time,seconds_elapsed,z,y,x
1761341838030779400,0.075779296875,-0.061847092103958126,0.001248319560661912,0.0014764200949575752
1761341838040845000,0.085844970703125,-0.05585983438789844,-0.0019464944252744316,-0.01230310349909123
1761341838050911200,0.0959111328125,-0.06738309892117977,0.0007828574733808637,0.0005433130964636803
1761341838060977200,0.10597705078125,-0.0652858343809843,0.002189655531384051,0.0005739365635905415
1761341838071043300,0.116043212890625,-0.07051964338123798,0.0022071729217655956,0.003306014708871953
1761341838081109200,0.126109130859375,-0.06737491561472415,-0.0026371435705572367,0.006291620090650394
1761341838091176200,0.13617626953125,-0.06198562379181385,0.005950889494735747,-0.008215688054985366
1761341838101242400,0.146242431640625,-0.0645277094900608,-0.001341751731466502,-0.008323509510746225
1761341838111308300,0.156308349609375,-0.0604886632323265,-0.005330656970851123,-0.0018644741310505195
1761341838121374200,0.166374267578125,-0.06348024626374245,-0.001773768206872046,-0.00011468502138741314
1761341838131440000,0.176440185546875,-0.06302957988679408,0.003418521472904831,-0.001410962776467204
1761341838141506300,0.18650634765625,-0.0684141955345869,0.0011166012060828507,0.00699572693912778
1761341838151572200,0.196572265625,-0.0625800825536251,0.0007401691091246902,-0.0025653478428255766
1761341838161639200,0.20663916015625,-0.0622796383023262,-0.002570800336077809,-0.01254037372053135
1761341838171705300,0.216705322265625,-0.06392506742179394,-0.0027742870189249513,-0.0018277268838137388
1761341838181771300,0.226771240234375,-0.06287526610791683,-0.0000370806073769927,-0.0018219410304212943
1761341838191837200,0.236837158203125,-0.06571195083856582,0.002579074974078685,0.0010305349244037643
1761341838201903400,0.2469033203125,-0.0669067135810852,0.001705726205650717,-0.008009566457057372
1761341838211969000,0.256968994140625,-0.0667582450211048,-0.003765910138469189,-0.0006921332828933373
1761341838222036500,0.267036376953125,-0.07558394103348255,-0.00402940164655447,-0.0004986200047889725
1761341838232102100,0.27710205078125,-0.07319090841710567,0.0036455899607390164,0.008633064083685167
1761341838242168000,0.28716796875,-0.06884791077673434,0.0015624087448231874,0.004304889553110115
1761341838252234200,0.297234130859375,-0.06061258187294006,-0.0037651246871799227,-0.0066779114279197525
1761341838262300200,0.307300048828125,-0.06315817470252513,-0.0035971477091312405,-0.009960759890335612
1761341838272366300,0.317366455078125,-0.06779810946285725,-0.0011026822785846887,-0.0020406481152866036
1761341838282432300,0.327432373046875,-0.06256079333126545,-0.0008104030674323439,0.005129887401475571
1761341838292499200,0.337499267578125,-0.0667494771927595,-0.001587397055607289,0.005351096970681101
1761341838302565400,0.3475654296875,-0.06570259848833084,-0.0005004603354260325,-0.00023244334927294402
1761341838312631000,0.357631103515625,-0.05912205105423927,-0.003215217453148216,-0.0008208787956740707
1761341838322697200,0.367697265625,-0.0675035104304552,-0.001170833877660334,0.005997833909001201
1761341838332763100,0.37776318359375,-0.06616203269362449,-0.0009376461762934923,-0.0014224614180158822
1761341838342829300,0.387829345703125,-0.05988017594516277,0.001601480379886925,-0.0004964463140117004
1761341838352895200,0.397895263671875,-0.06137479841709136,-0.005217752914596348,-0.003790181496622972
1761341838362961400,0.40796142578125,-0.07110124266147613,0.0021331030385568737,-0.005474252992891706
1761341838373028400,0.4180283203125,-0.07633914331495761,0.0018844803060404955,-0.0005093149287393316
1761341838383094300,0.42809423828125,-0.06930792950391769,0.0014984218642115593,0.0010051949871703982
1761341838393160400,0.438160400390625,-0.07424713947176932,0.006355031582526862,0.002709624284878373
1761341838403226000,0.44822607421875,-0.06078092417716979,0.004919957278110087,-0.0006667294135782868
1761341838413292300,0.458292236328125,-0.07050678389966487,0.004146488687582313,-0.008335839269356802
1761341838423358200,0.468358154296875,-0.061383566245436665,-0.002376757335010916,-0.0014300510694272815
1761341838433425200,0.478425048828125,-0.05884089602530002,-0.0012867336085997522,0.006746880444325506
1761341838443491300,0.4884912109375,-0.07036299151480198,-0.0005243709339760244,0.007017728708381764
1761341838453557200,0.49855712890625,-0.065873863402009,0.005347882100287825,0.002629028762760572
1761341838463623200,0.508623046875,-0.07485153510570526,0.002016637052036822,-0.013238717548502608
1761341838473689300,0.518689453125,-0.070510291031003,0.0011028284090571106,0.0002923568429658189
1761341838483755300,0.52875537109375,-0.056742462441325185,-0.0032553302678279576,0.003955989350471646
1761341838493821200,0.5388212890625,-0.06856207957267761,-0.0009526062834076583,-0.0002851325177354738
1761341838503888100,0.54888818359375,-0.0664671531200409,0.0008454378481954336,-0.003589854885241948
1761341838513954000,0.5589541015625,-0.06870879456698895,0.0006056194766424596,-0.0014809638393344356
1761341838524020200,0.569020263671875,-0.06586275748610496,0.0039453218259848655,-0.0034915547430748118
1761341838534086100,0.579086181640625,-0.0684060122281313,-0.0005693243205547332,0.0017360163126373662
1761341838544152300,0.58915234375,-0.06705752022862434,-0.0029646219592541455,-0.009881949899927713
1761341838554218200,0.59921826171875,-0.07080079841017722,-0.0015487090130336582,0.005662523840297944
1761341838564284400,0.609284423828125,-0.06481821686923503,0.0009506883209571241,0.0013144390328554436
1761341838574351400,0.619351318359375,-0.05658990222811699,-0.00433919824808836,-0.000454273972986266
1761341838584417300,0.629417236328125,-0.06616261721551418,0.0023879545824602244,0.002289722938952036
1761341838594483200,0.639483154296875,-0.06691197427809238,-0.002351860355772078,-0.0011195055492222309
1761341838604549000,0.649549072265625,-0.06511749207675456,0.0029472872319631278,0.005818522686185315
1761341838614615300,0.659615234375,-0.0694558135420084,-0.0001267864511348307,0.000031902108760550615
1761341838624681200,0.66968115234375,-0.0639180531591177,-0.0072129818524233995,-0.0035743011230835687
1761341838634747400,0.679747314453125,-0.0598790069013834,0.0018222652574069796,0.0013174895064672453
1761341838644814300,0.689814453125,-0.066910805234313,0.0048820729531347746,-0.003819010298885405
1761341838654880300,0.69988037109375,-0.07289689390659332,0.002659519799146801,-0.0032844467644579708
1761341838664946400,0.709946533203125,-0.06362286960482597,0.003690123222209513,0.0038382858215132726
1761341838675012400,0.720012451171875,-0.07439619255363941,0.008717632528021931,0.0014729494962375611
1761341838685078300,0.730078369140625,-0.06257482185661792,0.0018385405387729406,-0.000744046133221127
1761341838695144200,0.740144287109375,-0.05853402203321457,0.001928958768583834,0.000460900076595135
1761341838705210000,0.750210205078125,-0.06481997043490409,-0.00042602512603625653,0.0029437618343159553
1761341838715277300,0.76027734375,-0.07065466793775559,-0.0009549626372754573,-0.0035544913109159097
1761341838725343200,0.77034326171875,-0.06107552320957183,-0.004313771545886993,-0.009461253969557583
1761341838735409200,0.7804091796875,-0.06556582036614418,0.006952047627605497,0.00006483626398257911
1761341838745475300,0.790475341796875,-0.07215104397535324,0.0036575178605504333,0.006674495628126897
1761341838755541200,0.800541259765625,-0.06631108577549458,-0.0004892813542857765,-0.0009059815295506268
1761341838765607700,0.810607666015625,-0.06810732154250144,0.0036103177179582415,0.00673843227638863
1761341838775673300,0.82067333984375,-0.06361527082026004,0.003904971549287438,-0.0031078343888046216
1761341838785740500,0.830740478515625,-0.07034837846755981,-0.0010481756123714148,-0.0011377170593477785
1761341838795806500,0.840806396484375,-0.07064999176263809,-0.004550868237391114,0.0013369339924538507
1761341838805872400,0.850872314453125,-0.06511515398919582,-0.0036309769134968517,0.0021153710190439596
1761341838815938600,0.8609384765625,-0.06122866794466972,0.0023912242517806588,0.0012176230282988398
1761341838826004500,0.87100439453125,-0.06736790135204791,0.008211582702025771,-0.0019085187687538563
1761341838836070700,0.881070556640625,-0.07006313178539275,0.0008511369366198777,-0.00565305732563138
1761341838846136600,0.891136474609375,-0.05824176108837127,-0.0007682261598296463,-0.003173853396298364
1761341838856203500,0.90120361328125,-0.06362637673616409,0.0007966302704066038,-0.0018678077324526382
1761341838866269700,0.911269775390625,-0.060635962748527526,-0.004352423055842518,0.0011048240033211187
1761341838876335400,0.92133544921875,-0.060488078710436814,-0.0017516111739911138,0.0023564314996125176
1761341838886401500,0.931401611328125,-0.07305588386058808,0.005973101326543838,0.0037513518901541826
1761341838896467500,0.941467529296875,-0.07755027267038822,0.015165548292081802,-0.007236696088151075
1761341838906533400,0.951533447265625,-0.07156593756377697,0.00264567393688485,0.00027967089132871476
1761341838916599600,0.961599609375,-0.061838324275612824,0.0024439590860158202,0.00221761668396648
1761341838926666500,0.97166650390625,-0.06977087084054946,0.005789725849963724,0.000381080872612074
1761341838936732400,0.981732421875,-0.07007540674507617,-0.005775478128902614,0.004350505093391984
1761341838946798600,0.991798583984375,-0.0582581277012825,0.000533266626484692,-0.006107477429090067
1761341838956864500,1.001864501953125,-0.056314592418074606,0.003757178842741996,0.0016608595840400084
1761341838966930400,1.011930419921875,-0.05915595332384109,0.0028038784395903347,-0.0017003878768300637
1761341838976996400,1.021996337890625,-0.0639484482973814,0.007612849623896181,0.002670351720415056
1761341838987062500,1.0320625,-0.05466974782049656,0.004283741733804345,0.000738634739164263
1761341838997129500,1.04212939453125,-0.06514379556179047,0.006489489883463829,-0.012342531327181496
1761341839007195400,1.0521953125,-0.06439151588976383,-0.0026497473238036033,-0.0027286943115293976
1761341839017261600,1.062261474609375,-0.07052607312202454,0.005557506262976676,-0.010627594335190952
1761341839027327500,1.072327392578125,-0.06005202538073062,0.004338449329417199,0.0018058255792595445
1761341839037393700,1.0823935546875,-0.06334171457588672,0.00809646842237562,0.003611646591941826
1761341839047459600,1.09245947265625,-0.06932721872627735,0.0019575638085603713,0.006408510768855922
1761341839057525500,1.102525390625,-0.06603343787789344,0.0008108779914677142,-0.0020667917701182887
1761341839067591400,1.11259130859375,-0.06737959178984165,0.002292494851350784,0.004161672556982375
1761341839077658400,1.122658447265625,-0.06962181775867939,-0.0019762502427212894,-0.003175346667063422
1761341839087724500,1.132724609375,-0.07724924389719963,0.0005722469300031662,0.002711103855911642
1761341839097790500,1.14279052734375,-0.0651250908613205,0.000018978695105761287,0.004173061600676737
1761341839107856600,1.152856689453125,-0.06991349418163299,0.004031666668877006,0.0003198796041309833
1761341839117922600,1.162922607421875,-0.06542436606884003,-0.00526109886597842,0.004301619883789681
1761341839127988500,1.172988525390625,-0.06408171928822994,-0.0012306925724260508,0.00004107636248227209
1761341839138054700,1.1830546875,-0.06662438950836658,-0.0005388013181276619,0.0032964796955464405
1761341839148121600,1.19312158203125,-0.06887129165232181,0.0018150135327130556,0.007049589717946946
1761341839158187300,1.203187255859375,-0.07051730529367924,-0.0023875709899701175,-0.003937426213896833
1761341839168253400,1.21325341796875,-0.06932137350738048,-0.0010017426547594367,-0.0029670057125855236
1761341839178319400,1.2233193359375,-0.06842588597238064,0.0007006225500255823,-0.003524228603392839
1761341839188385500,1.233385498046875,-0.06603402239978313,-0.0019008651852607725,0.004915687528369016
1761341839198451500,1.243451416015625,-0.06588496931791304,-0.00008665537014603614,0.0077845072632189835
1761341839208517600,1.253517578125,-0.06902502090930938,-0.003773691586125642,-0.0014622591388644649
1761341839218584600,1.26358447265625,-0.060194064199924464,0.0022741189444437622,-0.004407167184073478
1761341839228650500,1.273650390625,-0.0678214903384447,0.004212704057898372,0.0037462555899284776
1761341839238716700,1.283716552734375,-0.06706745710074902,0.0019046097786165773,-0.00334538773803506
1761341839248782300,1.2937822265625,-0.0618307254910469,0.002508219961263239,-0.002167151438631117
1761341839258848500,1.3038486328125,-0.06303016440868377,0.0024361959046684204,-0.002996747830300592
1761341839268914400,1.31391455078125,-0.06751987704336643,-0.0019893471863120793,-0.0007654451142763718
1761341839278980600,1.323980712890625,-0.06183014096915722,-0.0018249321385286747,0.0011666965586598962
1761341839289047600,1.334047607421875,-0.06572305675446986,0.0009696670160628855,-0.001480635045771487
1761341839299113500,1.344113525390625,-0.07245850248932838,0.001982040662690997,0.005562881124415435
1761341839309179600,1.3541796875,-0.06467559352815151,0.003237484083883464,-0.0003207335540791973
1761341839319245600,1.36424560546875,-0.06587269435822964,0.00040673590367659924,-0.0019284336121985688
1761341839329311500,1.3743115234375,-0.06901625308096408,-0.005212218222953379,-0.0016204179757973178
1761341839339377400,1.38437744140625,-0.07559855408072472,0.0005390387801453471,0.0015439780389890074
1761341839349443300,1.394443359375,-0.06452244879305362,-0.0019665325663052497,0.0025901078247465193
1761341839359510500,1.404510498046875,-0.07260346391797065,0.0011818119294010102,-0.0016487581542925908
1761341839369576400,1.414576416015625,-0.060332595887780185,0.003564779809489846,0.0034757269862806424
1761341839379642400,1.424642333984375,-0.05494798023998737,0.0029263175091706214,0.004263776658009737
1761341839389708500,1.43470849609375,-0.05928980883657932,-0.001922017571143806,0.0010841648077825083
1761341839399774500,1.4447744140625,-0.06078560035228729,-0.002225914154853672,-0.0016828156875213606
1761341839409840600,1.454840576171875,-0.0631768794029951,-0.003375120722595602,0.0013860201314557343
1761341839419906300,1.46490625,-0.06482464661002159,0.0033069691235199567,-0.0006028064650483429
1761341839429973500,1.474973388671875,-0.07170739186108112,-0.0018048757311888038,0.0034940663605695587
1761341839440039400,1.485039306640625,-0.07379705761671065,0.002288713725376874,0.0014560166277457027
1761341839450105300,1.495105224609375,-0.0748410137116909,-0.0005640270909294486,0.0012691568527137859
1761341839460171500,1.505171630859375,-0.07125029574334621,-0.002768478332646191,0.003978100717579946
1761341839470237400,1.515237548828125,-0.06406944432854653,0.0029666677858680487,-0.002698002345743589
1761341839480303600,1.5253037109375,-0.06496434734165668,-0.00011648425282910465,0.0027049572429154066
1761341839490369500,1.53536962890625,-0.05942483339309692,0.0001026931894943118,0.005079303425131365
1761341839500436500,1.5454365234375,-0.07513561274409293,-0.00456339892540127,0.013840679196757263
1761341839510502700,1.555502685546875,-0.06810556797683238,0.006300305720604956,-0.004648926350963302
1761341839520568600,1.565568603515625,-0.060923547518253324,0.00005392214432358741,0.0076335042528575285
1761341839530634500,1.575634521484375,-0.0649590866446495,-0.002698025178629905,0.0015155921947211026
1761341839540700400,1.585700439453125,-0.07259001991450786,0.00042127588568255305,-0.00297623019865714
1761341839550766600,1.5957666015625,-0.0742354490339756,0.006999667895305902,0.004370278372941539
1761341839560832500,1.60583251953125,-0.06630465603470802,0.0005519895932637155,-0.004205073307291605
1761341839570898400,1.6158984375,-0.06900105551183223,-0.0011015315011143683,-0.00189890612361487
1761341839580965600,1.625965576171875,-0.07004734969437122,0.0009725165602751075,0.004733147735428065
1761341839591031600,1.636031494140625,-0.07094225270748138,-0.0009532090716063976,-0.0029569364097202194
1761341839601097500,1.646097412109375,-0.06884674173295498,-0.0020471235218457876,-0.008168387447693385
1761341839611163400,1.656163330078125,-0.07139233456254004,0.0008718691973946988,0.0026773933825548738
1761341839621229300,1.666229248046875,-0.07408405786454678,0.005789323991164564,0.002222612519492395
1761341839631295500,1.67629541015625,-0.0694470457136631,0.0039092458656057715,-0.00121839934643358
1761341839641361400,1.686361328125,-0.06720072809159755,-0.0023117658074013887,0.0019184784737648441
1761341839651428400,1.696428466796875,-0.06974339831173419,-0.002944985677022487,0.0031425312428502365
1761341839661494500,1.70649462890625,-0.0757253953307867,0.005451196344289928,0.00025023016771301627
1761341839671560400,1.716560546875,-0.06794131732583046,0.005480203243065625,0.0021743803304387255
1761341839681626600,1.726626708984375,-0.06958908453285693,0.0004990172970108687,-0.007761418648576364
1761341839691692500,1.736692626953125,-0.07288228085935115,-0.0006806940068490802,-0.0017204488507471978
1761341839701758500,1.746758544921875,-0.06405424675941467,-0.0006649119158275425,0.004423090838990174
1761341839711824400,1.756824462890625,-0.06809270849525928,-0.0002604045018553734,-0.0015222913635661824
1761341839721891300,1.766891357421875,-0.06809446206092834,-0.0073616513418033715,0.004503681794530712
1761341839731957500,1.77695751953125,-0.06166179866492748,-0.008149312854465096,-0.000904871851275675
1761341839742023400,1.7870234375,-0.06824936036169528,-0.0003872457519173622,0.0033676269693067294
1761341839752089600,1.797089599609375,-0.06585398965775967,0.0019248305827379226,0.005920562855130993
1761341839762155500,1.807155517578125,-0.07483049231767654,-0.00039239685107022524,-0.003334227023203857
1761341839772221000,1.817220947265625,-0.06929623906612396,-0.0024423881834372877,-0.0060416639175731686
1761341839782286600,1.82728662109375,-0.05777472809851169,-0.007192103461176156,0.005834291077475063
1761341839792352800,1.837352783203125,-0.06240940216183662,-0.001531958807632327,-0.0056996044476749375
1761341839802419700,1.847419677734375,-0.06495207238197326,-0.002957077973615378,-0.0034054199627367777
1761341839812485600,1.857485595703125,-0.07243512161374091,-0.0006410743825137615,0.0015933427392039448
1761341839822551800,1.8675517578125,-0.06375438703000545,-0.0010355353265069425,-0.0046745402828324584
1761341839832617700,1.87761767578125,-0.0692898093253374,0.007574873967375606,0.002465038406662643
1761341839842684000,1.887683837890625,-0.07183306406736374,-0.002029478267300874,-0.0008175862934673205
1761341839852749800,1.897749755859375,-0.0601578238427639,0.0016976342307403682,0.0006354255264392122
1761341839862815700,1.907815673828125,-0.07033376542031765,-0.0038193573587574064,0.004800404285360127
1761341839872883000,1.917883056640625,-0.06584755991697311,-0.008025211550761014,-0.004918372675799764
1761341839882948600,1.927948486328125,-0.06644727937579155,0.0018827450066804885,0.0025040552427992224
1761341839893014800,1.938014892578125,-0.06839373726844787,0.0034640045824460685,0.004185327427205629
1761341839903080700,1.948080810546875,-0.05596738641560077,0.0012632431351579725,-0.005543199176411144
1761341839913146600,1.958146728515625,-0.06569383065998553,-0.0014199498005211353,-0.0003617505510570481
1761341839923212800,1.968212890625,-0.07048106493651866,0.003624254911765456,-0.0031956405364209784
1761341839933278700,1.97827880859375,-0.06733984430134296,0.0011265563445165753,0.001885192692093551
1761341839943345700,1.988345703125,-0.06344751303792,-0.0010243746116757391,0.002806517921248451
1761341839953411800,1.998411865234375,-0.06449088461101055,-0.0034327143950387833,-0.008075690495828167
1761341839963477800,2.008477783203125,-0.0677776511967182,-0.001106956594903022,0.004407039319910109
1761341839973543700,2.018543701171875,-0.06912614319622516,-0.0010313523417338729,0.004419085950730368
1761341839983609600,2.028609619140625,-0.07661036147177219,-0.002114891528431326,-0.00003418996396940201
1761341839993675800,2.03867578125,-0.0731675275415182,-0.006659640552289784,0.004149064237158745
1761341840003741700,2.04874169921875,-0.06718202339112758,-0.002337009846512228,0.005752809639368206
1761341840013808600,2.05880859375,-0.06284487096965313,-0.002096278159506619,-0.009412017133506015
1761341840023874800,2.068874755859375,-0.06538812571167946,-0.001975373459886759,0.003125726238521747
1761341840033940700,2.078940673828125,-0.0625496874153614,0.009759561062697321,-0.00652906840860378
1761341840044007000,2.0890068359375,-0.06150163966715336,0.002902772236801684,0.006202393737505189
1761341840054072800,2.09907275390625,-0.052824412214756006,0.001560636912845075,-0.0013322897833772003
1761341840064138800,2.109138671875,-0.06629296559691429,0.0024555399259552357,-0.002931610172218643
1761341840074204700,2.11920458984375,-0.06763970403075217,-0.0022017660942859948,-0.0028618739708326756
1761341840084270600,2.1292705078125,-0.06315232948362827,-0.001110810786113143,0.006469132082024589
1761341840094337800,2.139337890625,-0.0597089110314846,-0.002189637265074998,0.0043960612681694326
1761341840104403700,2.14940380859375,-0.06225508838295936,0.003911218626983464,-0.003907003676169552
1761341840114470000,2.159469970703125,-0.05881225445270538,-0.006294917159434407,0.005684639773983508
1761341840124535800,2.169535888671875,-0.06150105514526367,-0.009341152987536043,0.0022643967014504595
1761341840134601700,2.179601806640625,-0.06254734932780265,0.004691902409587055,0.000047560902195982634
1761341840144668000,2.18966796875,-0.061949967956542965,-0.0012493424739688634,-0.0014762602647533638
1761341840154733600,2.199733642578125,-0.06509644928872585,-0.0030574330755509436,0.0009556247909786179
1761341840164800800,2.20980078125,-0.06554653114378452,-0.008240425204019993,-0.002465814724797383
1761341840174866700,2.21986669921875,-0.061657122489809986,-0.003086458240635693,0.0017893265356076881
1761341840184932600,2.2299326171875,-0.05956394960284233,-0.0005006429985165596,0.00019501568202394992
1761341840194998800,2.239998779296875,-0.05252981318235397,0.003782696876488626,0.007181257840176113
1761341840205064700,2.250064697265625,-0.0694429540604353,0.0015282142142765223,0.003015644327015616
1761341840215131000,2.260130859375,-0.07453238615393638,-0.003360854735225439,0.011145800389861687
1761341840225196800,2.27019677734375,-0.057476621934771537,0.003959533014427871,-0.0019587876512669024
1761341840235263700,2.280263671875,-0.05927051961421966,-0.0014954809884540736,-0.0011107285877224057
1761341840245330000,2.290329833984375,-0.0654033232808113,-0.0015724186821840702,-0.0058192122393520545
1761341840255395600,2.3003955078125,-0.06390519367754459,0.005827920702192932,-0.0003791446438524872
1761341840265461800,2.310461669921875,-0.06674480101764202,-0.000902337400894612,-0.005463521536323242
1761341840275527700,2.320527587890625,-0.05791676691770553,-0.009256799172330648,0.0004987661352613941
1761341840285593900,2.33059375,-0.0603103840559721,0.003549837968684733,-0.0035204794434597715
1761341840295659800,2.34065966796875,-0.0734773241430521,0.0075342131634242825,-0.005523211267730221
1761341840305725700,2.3507255859375,-0.06809037040770054,-0.007413765121530741,0.0051449114406714215
1761341840315793000,2.36079296875,-0.05403086539506912,-0.0031125059973448515,0.0036484714709920808
1761341840325858800,2.37085888671875,-0.06285831497311592,0.0083741345862858,-0.0003078832056606188
1761341840335924700,2.3809248046875,-0.06211012695431709,0.0064370473101735114,0.0036930275653488933
1761341840345990700,2.39099072265625,-0.06390402463376521,0.005122676775977015,0.0057854424004908644
1761341840356056600,2.401056640625,-0.06255845524370669,0.001724156911484897,0.006860921578318812
1761341840366122800,2.411122802734375,-0.06434650770425795,-0.007509992037620395,0.014267731802677736
1761341840376188700,2.421188720703125,-0.060462944269180294,0.00028035131134092805,0.006505582501739263
1761341840386255600,2.431255615234375,-0.05761924527585506,-0.002740037689451128,0.00501833961866796
1761341840396321800,2.44132177734375,-0.06749240451455116,-0.002589048378821462,-0.0019665690989233552
1761341840406387700,2.4513876953125,-0.05985621054768562,-0.0000995331180281937,-0.000012699651368893683
1761341840416454000,2.461453857421875,-0.0694336017102003,-0.0023153094713576137,0.004288079982204362
1761341840426519600,2.47151953125,-0.07527180634438992,0.004513221374433487,0.0012143761918647215
1761341840436585700,2.481585693359375,-0.07123217556476592,0.004396170866023749,0.0031104190715355797
1761341840446651600,2.491651611328125,-0.07377250769734382,0.005780866690073162,0.0032937671486521136
1761341840456717800,2.5017177734375,-0.07466916427612304,-0.0003812178699299693,-0.0032120436819503082
1761341840466784800,2.51178466796875,-0.07032558211386203,-0.000865896114334464,-0.0005920795750571415
1761341840476850700,2.5218505859375,-0.07556172920167446,-0.000660473202727735,-0.002046776461973786
1761341840486916900,2.531916748046875,-0.0685235011279583,-0.0044666788189671935,-0.0014653598448261618
1761341840496982800,2.541982666015625,-0.0646323389083147,-0.00522343373671174,0.010006781855993904
1761341840507049000,2.552049072265625,-0.07944821524620056,-0.0002269406236708164,-0.004673129210458137
1761341840517114600,2.562114501953125,-0.06283668766319751,-0.0022443265943787993,-0.00006169445882551371
1761341840527180500,2.5721806640625,-0.05864391214847564,-0.002207574780564755,-0.0004657086824532598
1761341840537247700,2.582247802734375,-0.06402618970870971,-0.005660948371142149,-0.005581343796290457
1761341840547313700,2.592313720703125,-0.06088204646408558,-0.0009673837274312972,0.00004625942767597735
1761341840557379800,2.6023798828125,-0.058332361981272694,-0.0036169666544534265,0.001868858045223169
1761341840567445800,2.61244580078125,-0.050697921580076216,-0.0062848889557644725,-0.0023580709008499978
1761341840577511700,2.62251171875,-0.06446224303841591,0.005718852570839226,0.002392653590464033
1761341840587577900,2.632577880859375,-0.06775368579924106,0.00001810191227123141,-0.0007428359902463853
1761341840597643800,2.642643798828125,-0.06506663867235184,-0.004668558066617697,-0.0018603276788955554
1761341840607710700,2.652710693359375,-0.06925941418707371,-0.003632273821439594,-0.00783838374176994
1761341840617776600,2.662776611328125,-0.0679132602751255,-0.003910378376767039,0.0011376713935751467
1761341840627842600,2.672842529296875,-0.05429506928920746,-0.00695847736839205,0.007292289599752985
1761341840637908700,2.68290869140625,-0.06896189254522324,-0.001758789833448827,0.007897379353432916
1761341840647974700,2.692974609375,-0.06208090085983276,0.002508219961263239,0.007268068473949097
1761341840658040800,2.703040771484375,-0.06582008738815784,-0.0014346907119266688,-0.002375588291231543
1761341840668106800,2.713106689453125,-0.0644715953886509,-0.006130739573668689,-0.006494462886103429
1761341840678173000,2.7231728515625,-0.05952946281135082,-0.0002814838225021958,0.0012577769421739503
1761341840688239900,2.733239990234375,-0.06177519591152668,0.005151793272607028,-0.0020574713859241455
1761341840698305800,2.743305908203125,-0.06955693582892418,-0.0024308621424250303,-0.0009390846481313928
1761341840708371700,2.753371826171875,-0.06731003368496895,-0.0016196370910853146,-0.0024598736077779903
1761341840718437600,2.763437744140625,-0.06745908676683902,-0.0016657960540615022,-0.0027573632835876196
1761341840728503800,2.77350390625,-0.08181903603076934,0.004363930830545724,0.00918735066531226
1761341840738569700,2.78356982421875,-0.07074234622120856,-0.006678765377867967,-0.0011855017238296568
1761341840748635600,2.7936357421875,-0.06565583673715591,-0.0037731983957812187,-0.0003852181916125118
1761341840758702800,2.803702880859375,-0.06849836668670177,0.003539572302997112,-0.002627476126491092
1761341840768769000,2.81376904296875,-0.0623667320638895,-0.006637355655245482,-0.000258687468804419
1761341840778835000,2.8238349609375,-0.06057108081877231,-0.0014048618292436003,0.005006772478460334
1761341840788901000,2.833901123046875,-0.06476210276782512,-0.004057659626659006,0.0024070291756885125
1761341840798967000,2.843967041015625,-0.07014964102506638,-0.0029883316284045574,0.0011717471931129693
1761341840809033200,2.854033203125,-0.06625614071786404,0.001953855747822672,-0.003662431497685611
1761341840819099100,2.86409912109375,-0.0696995591700077,-0.0035053960387594995,-0.0032336801250232384
1761341840829165300,2.874165283203125,-0.06132394501268863,-0.005696348478086292,-0.0026851291644386945
1761341840839232300,2.884232177734375,-0.059824646365642546,-0.0008453647829592228,0.0006500568399904295
1761341840849298200,2.894298095703125,-0.07254734981656075,0.00005657075913622975,0.007066011129785329
1761341840859364000,2.904364013671875,-0.059979544666409486,-0.0038941944269463417,-0.0014318548674462361
1761341840869430000,2.914429931640625,-0.06237608441412448,0.001771156124677509,0.0050789928978774695
1761341840879496200,2.92449609375,-0.06596504881680011,0.0022744112053886055,0.0030091232546838
1761341840889562000,2.93456201171875,-0.06282499722540379,0.0005908420326188207,0.005201852092565969
1761341840899628300,2.944628173828125,-0.07165536941289902,-0.00020874737985432146,0.003965638528228737
1761341840909695200,2.9546953125,-0.061033437633514404,-0.00937123759854585,0.00551849399341736
1761341840919761200,2.96476123046875,-0.06687105774581432,-0.00016015899777412413,0.004279490250372327
1761341840929827300,2.974827392578125,-0.05759118822515011,-0.0019315343181602657,-0.0005834715769160539
1761341840939893000,2.98489306640625,-0.0698608872115612,-0.009626582332793622,0.002159812948969193
1761341840949959000,2.994958984375,-0.07075929735600948,-0.0015185513367876409,0.007515065504959784
1761341840960025000,3.005025146484375,-0.07060965975224971,0.006574135959614068,0.0009422538527520373
1761341840970091000,3.015091064453125,-0.061333881884813306,-0.002652249808143824,-0.0007573622725205496
1761341840980158200,3.025158203125,-0.0599877279728651,-0.0030907690895721316,0.0019998914132127537
1761341840990224100,3.03522412109375,-0.06881576207280159,0.001960139358136803,0.008275213389610871
1761341841000290000,3.0452900390625,-0.06402735875248909,0.0010707345040515065,0.0059310157504864035
1761341841010356200,3.055356201171875,-0.055198155608773225,0.0004760382802225649,0.0020955383739899845
1761341841020422100,3.065422119140625,-0.06283318053185939,-0.0068878050186671315,0.0023452570850495246
1761341841030488000,3.075488037109375,-0.07196341244876385,-0.003501633179094642,-0.005628420641296543
1761341841040554000,3.085553955078125,-0.060140872707962985,-0.009478497365303337,0.002824852728960104
1761341841050620200,3.0956201171875,-0.0716600455880165,-0.0007747106995433569,0.001164436102914624
1761341841060687000,3.10568701171875,-0.06836568021774292,0.004066409188695252,-0.005900282685505226
1761341841070753000,3.1157529296875,-0.06237666893601417,0.001214855682477355,0.0008013703776057809
1761341841080819200,3.125819091796875,-0.06567161882817744,-0.007092314614821225,0.008903720551496372
1761341841090885000,3.135885009765625,-0.06686988870203495,-0.0004553973509930074,-0.0012881766470149159
1761341841100951300,3.145951416015625,-0.07375263395309448,-0.003032006373349577,-0.0032721535384654995
1761341841111017200,3.156017333984375,-0.07420388485193252,0.004866418726276606,-0.0029487028709147124
1761341841121083100,3.166083251953125,-0.06193067873418331,0.0008376016016118227,-0.0028036729436134917
1761341841131150000,3.176150146484375,-0.06432195778489112,-0.0016818521397188304,0.003200841867923736
1761341841141216000,3.186216064453125,-0.0625239684522152,0.0016915150172077118,0.012103133080736734
1761341841151282200,3.1962822265625,-0.06312427243292332,0.0031360147370956834,-0.004523263277835213
1761341841161348000,3.20634814453125,-0.06551613600552082,-0.0015865568053908645,-0.0006283518982585519
1761341841171414000,3.2164140625,-0.07299450906217098,-0.0065225519028492265,0.0034654339211294427
1761341841181480200,3.226480224609375,-0.06535948413908481,0.0016772672961466012,0.005733369719958864
1761341841191546000,3.236546142578125,-0.06251227801442145,0.002097629866376519,0.003931389198754914
1761341841201613300,3.24661328125,-0.06969020681977271,-0.0014092092107981442,0.006770010158163495
1761341841211679200,3.25667919921875,-0.06834346838593483,0.006183584005758166,-0.0022168266660999507
1761341841221745000,3.266744873046875,-0.06086158819794654,0.0045533159228041764,-0.004862436670903116
1761341841231811000,3.27681103515625,-0.05772036756277084,0.005341963816154748,-0.0007170530950184911
1761341841241877000,3.286876953125,-0.0631073212981224,0.00022063874704763293,-0.0037170797277940437
1761341841251943200,3.296943115234375,-0.05996317805349827,-0.0061648245063610375,0.003989919019537046
1761341841262009000,3.307009033203125,-0.06445347521007061,-0.0039046427557244893,-0.00019032124059740452
1761341841272075300,3.3170751953125,-0.06954349182546138,-0.0011298990790732204,-0.005369340446847491
1761341841282142200,3.32714208984375,-0.05847323175668716,-0.0049142581896856425,-0.004044708813540637
1761341841292208000,3.3372080078125,-0.07193769348561764,-0.0023420696141198275,-0.0013841661010868846
1761341841302274300,3.3472744140625,-0.06475333493947982,-0.007814436610601843,-0.0025703665112378074
1761341841312340000,3.357340087890625,-0.06699789899587631,0.003109656453132629,-0.003334272688976489
1761341841322406100,3.36740625,-0.06924363209605217,-0.008648348417785019,0.006180866892286576
1761341841332472000,3.37747216796875,-0.0714864425867796,-0.0037687414163723584,0.010390287581132725
1761341841342538200,3.387538330078125,-0.06804711578786372,0.0022134930646978317,0.0019373749704798683
1761341841352605200,3.397605224609375,-0.0704360567510128,-0.0044160811428911985,-0.007122490557376295
1761341841362671000,3.407671142578125,-0.06519815609753131,-0.005638955735042691,-0.00018971845239866523
1761341841372737300,3.4177373046875,-0.06160510004162788,-0.006411401412263512,-0.0008019046671455726
1761341841382803200,3.42780322265625,-0.06175473764538764,-0.002864029395300895,-0.0018032226302195338
1761341841392869000,3.437869140625,-0.05831131919324398,-0.0005377601385116576,0.0024008871292695404
1761341841402935000,3.44793505859375,-0.06549392417371272,-0.003519954287074506,0.005137079760665074
1761341841413001000,3.4580009765625,-0.0651940644443035,-0.0011530972915701568,0.0043717488108202815
1761341841423067100,3.468067138671875,-0.06579027677178383,-0.003008607231453061,-0.002401425985386595
1761341841433134000,3.478134033203125,-0.05650982272922992,-0.0029890988133847714,0.007817678880458697
1761341841443200000,3.488199951171875,-0.06205109024345874,0.0010927088738419116,0.00008344963290728628
1761341841453266200,3.49826611328125,-0.0609983663201332,0.0025379940450191494,0.0035152278796071186
1761341841463332000,3.50833203125,-0.07236965516209602,-0.0045490416064858435,-0.0012852586041437462
1761341841473398300,3.518398193359375,-0.06683423286676407,-0.001220445173047483,-0.014023461018293163
1761341841483464000,3.5284638671875,-0.06743102971613407,-0.002745389718003571,-0.001497746010776609
1761341841493530000,3.538530029296875,-0.06174187816381454,-0.00033803631532937286,-0.0038935688058612866
1761341841503597000,3.54859716796875,-0.05994622691869735,-0.006287519304268061,-0.005995135061838664
1761341841513663000,3.5586630859375,-0.07072422604262829,-0.0031265527890063823,-0.003834043471235782
1761341841523729200,3.568729248046875,-0.06698503951430321,-0.0014326814179308712,0.00011982698738574981
1761341841533795000,3.578795166015625,-0.06578560059666633,-0.005710468334984034,0.0071188509952975435
1761341841543861200,3.588861328125,-0.0710240857720375,0.002279763233941048,-0.001970966712827794
1761341841553927200,3.59892724609375,-0.07251929276585578,0.007516567908879369,-0.002451064680237323
1761341841563993000,3.6089931640625,-0.07087386364638805,-0.0035688531964085993,0.010199244821327738
1761341841574059000,3.61905908203125,-0.06369242770969867,-0.00291928498018533,0.008073434606660157
1761341841584126200,3.629126220703125,-0.06504208875298499,-0.0009739595986902713,0.0013877965300111098
1761341841594192100,3.639192138671875,-0.05950491289198398,-0.003367065280303359,-0.0008852675350848585
1761341841604258000,3.649258056640625,-0.0678828651368618,0.005094382263254374,0.00676364891603589
1761341841614324000,3.659323974609375,-0.07087853982150555,-0.003354096200875938,-0.0003802451889729127
1761341841624390100,3.66939013671875,-0.06713818424940109,-0.003357256272342056,0.0038129458842799066
1761341841634456000,3.6794560546875,-0.07431903566420078,-0.0062503108327277,0.011549033728777431
1761341841644522200,3.689522216796875,-0.07057809557020664,-0.0037085356617346404,-0.0028179480641381816
1761341841654589200,3.699589111328125,-0.07087503269016743,-0.0017321575548499822,-0.004671115349885076
1761341841664655000,3.709655029296875,-0.07147066049575805,-0.004817538083251565,-0.0012575212138472125
1761341841674721000,3.719720947265625,-0.06234159762263298,-0.0030828780440613625,0.004344783172081225
1761341841684787000,3.729786865234375,-0.0692249273955822,-0.0012639372549019753,0.004808382095838897
1761341841694853000,3.73985302734375,-0.06937398047745227,-0.0038124709602445363,0.0015183732402743772
1761341841704919000,3.7499189453125,-0.0644365240752697,-0.001408916949853301,0.007365327436500229
1761341841714985200,3.759985107421875,-0.06772913587987422,0.001791705722361803,0.011527328787045552
1761341841725051100,3.770051025390625,-0.06698036333918571,-0.004930843998305499,0.003993796043633483
1761341841735118000,3.7801181640625,-0.05904898581802845,-0.0026959428193978965,0.0025929025700315834
1761341841745184300,3.790184326171875,-0.06622983723282813,-0.009200411076284944,0.008719984315312467
1761341841755250200,3.800250244140625,-0.07341244221329689,-0.0035122276383452115,-0.00125662616470363
1761341841765315600,3.810315673828125,-0.06503273640275001,-0.0031799086777493358,0.000029477256233803926
1761341841775381500,3.820381591796875,-0.0608417144536972,-0.0029275596181862055,0.0006713142571505158
1761341841785447700,3.83044775390625,-0.06936755073666573,-0.0015574037761427462,0.005038309261039831
1761341841795513600,3.840513671875,-0.06637304509580134,-0.001954166275076568,0.005999190182448364
1761341841805580500,3.85058056640625,-0.06293138020932675,-0.008685593421943485,0.005336808150424622
1761341841815646700,3.860646728515625,-0.06292787307798862,-0.004784238601848483,-0.0036219898894429203
1761341841825712600,3.870712646484375,-0.07190846739113331,-0.008143650298658758,0.008302731584198772
1761341841835778800,3.88077880859375,-0.06323123993873596,-0.0032740532346069813,0.0008233858465915545
1761341841845844500,3.890844482421875,-0.06877016936540603,-0.006030749797914177,0.0011621254148194565
1761341841855910700,3.90091064453125,-0.0629331337749958,0.002894369734637439,0.0075095582127803935
1761341841865976600,3.9109765625,-0.059788406008481974,-0.007202752719353884,0.006962792783905752
1761341841876042500,3.92104248046875,-0.06906301483213902,-0.009593228052463381,0.002623000880773179
1761341841886109700,3.931109619140625,-0.06487257740497589,-0.011872260634042321,-0.0017751792792463673
1761341841896175600,3.941175537109375,-0.07070844395160675,-0.0003298164762556553,-0.0012209246636601164
1761341841906241500,3.951241455078125,-0.06547346590757369,-0.006093494569510221,0.003970985990203917
1761341841916307700,3.9613076171875,-0.06772036805152892,-0.0054053479085676365,0.00415717904495541
1761341841926373600,3.97137353515625,-0.06787234374284744,0.001870543112233281,-0.0028043670633574945
1761341841936439600,3.981439453125,-0.06383329748511314,-0.0029787235498428344,0.0030123518248088657
1761341841946505500,3.99150537109375,-0.059497314107418056,-0.001327230015769601,-0.003417923251283355
1761341841956571600,4.001571533203125,-0.07401683784723281,-0.00758968794401735,0.0032566682749660685
1761341841966637600,4.011637451171875,-0.06818214034438133,-0.006612221213988959,-0.004172166551533155
1761341841976704500,4.02170458984375,-0.06443944668471813,-0.0045863048769533635,-0.000028454342926852404
1761341841986770700,4.031770751953125,-0.07042378179132938,0.001953874014131725,0.002607031560083851
1761341841996836600,4.041836669921875,-0.0744616590052843,-0.0005296498972922563,-0.0021166359609458593
1761341842006902800,4.05190283203125,-0.06144260295629501,0.0017978249358944593,0.0028423518530325963
1761341842016968700,4.06196875,-0.06533201161026954,0.0000011873100884258746,0.008407666963129303
1761341842027034600,4.07203466796875,-0.07012392206192017,-0.007197985212691128,0.002964969019126147
1761341842037100500,4.0821005859375,-0.06623334436416625,0.0026412900227122007,0.010305527340550907
1761341842047167500,4.09216748046875,-0.06429097812473773,0.00039088074741885063,0.01300915570948273
1761341842057233700,4.102233642578125,-0.0705751729607582,0.0036529512832872567,0.0014816899251192807
1761341842067299600,4.112299560546875,-0.06593231559097766,-0.0029608043006621298,0.003130534844379872
1761341842077365800,4.12236572265625,-0.06204056884944439,-0.004082574872206896,-0.0027496503345901145
1761341842087431700,4.132431640625,-0.06383329748511314,0.0014978373423218726,0.0005888784043956548
1761341842097497600,4.14249755859375,-0.06263795022070408,-0.0012436799181625247,-0.005339370000269263
1761341842107563800,4.152563720703125,-0.061739540076255796,-0.002341357228066772,-0.00688376359778922
1761341842117629400,4.16262939453125,-0.0663753831833601,0.0019087379644624888,-0.0010338000271469354
1761341842127696600,4.172696533203125,-0.0657785863339901,-0.0049158108259551225,-0.0008079736483283341
1761341842137762600,4.182762451171875,-0.0656301177740097,-0.007914462918974458,0.0011871182921808212
1761341842147828500,4.192828369140625,-0.0795505065768957,-0.0023559337426908313,0.005565694136009551
1761341842157894700,4.202894775390625,-0.0641401714771986,-0.005361362636368721,0.0023206934659508985
1761341842167960600,4.212960693359375,-0.057252750051021574,-0.009017930648848415,0.004624385564750992
1761341842178026800,4.22302685546875,-0.06562485707700252,-0.006949947002064436,-0.0011680802315706387
1761341842188092700,4.2330927734375,-0.065325581869483,-0.0011086005627177656,0.00018856767492834477
1761341842198158600,4.24315869140625,-0.06936696621477603,-0.007455759366042911,0.008396867007901892
1761341842208225800,4.253225830078125,-0.06847147867977618,-0.008989033347927033,0.0009704113681567832
1761341842218291500,4.26329150390625,-0.07116320198178291,-0.00021979849683120844,-0.001040179535583593
1761341842228357600,4.273357666015625,-0.06966682594418526,-0.006194708187971264,0.0009123290719464421
1761341842238423600,4.283423583984375,-0.07280980014503002,0.001620915732719004,0.000031801644060760734
1761341842248489700,4.29348974609375,-0.060391048076748846,-0.00640226825773716,-0.00042896143521647896
1761341842258555600,4.3035556640625,-0.06786825208961964,-0.004810761282593012,0.006494243690394796
1761341842268621600,4.31362158203125,-0.07115735676288604,-0.00003894377090036869,0.010095017261872999
1761341842278688800,4.323688720703125,-0.06935819838643073,-0.006629501142352819,0.0020874372659251093
1761341842288754700,4.333754638671875,-0.06486790122985839,0.0003865698984824121,0.004326092171343043
1761341842298820600,4.343820556640625,-0.06411912868916989,-0.009053458619955927,-0.0015889085926814005
1761341842308886500,4.353886474609375,-0.05783434933125972,-0.010422755945473908,0.0032776927966857326
1761341842318952400,4.363952392578125,-0.057977557194232934,-0.004373739838507027,0.0012428533676778898
1761341842329018600,4.3740185546875,-0.06470832675397396,-0.0014606836697086691,0.0028786607088521123
1761341842339084500,4.38408447265625,-0.06680792938172816,-0.005309559383895248,-0.0025063567977398633
1761341842349150700,4.394150634765625,-0.06321428880393505,-0.007922938486374913,-0.000935024960944429
1761341842359217700,4.4042177734375,-0.06785188547670841,0.002683503462933004,0.009858486825949512
1761341842369283600,4.41428369140625,-0.07188742460310459,-0.0027551073944196104,0.00008381039251107721
1761341842379349800,4.424349853515625,-0.06171440563499927,-0.006402560518682003,-0.0018428605208639054
1761341842389416700,4.434416748046875,-0.0662006111383438,-0.006694510936271399,0.005805402909708209
1761341842399482600,4.444482666015625,-0.06785013191103935,0.0006161774032749235,0.002938734032749198
1761341842409548500,4.454548583984375,-0.06261398482322693,-0.00244368509138003,0.005014051602617837
1761341842419614500,4.464614501953125,-0.06112111591696739,-0.001562865402549505,0.0050947019236627965
1761341842429680600,4.4746806640625,-0.06276537599265575,-0.0004433050544001162,0.0068932483787648375
1761341842439746600,4.48474658203125,-0.06396247682273387,-0.003277231572382152,0.0049543938372517
1761341842449812700,4.494812744140625,-0.062463762697577474,-0.0013061872277408838,0.000064160410547629
1761341842459879700,4.504879638671875,-0.06380874756574631,-0.006015607027709484,-0.0019075917535694314
1761341842469945600,4.514945556640625,-0.0647106648415327,-0.003927018984314054,-0.002861472112033516
1761341842480011800,4.52501171875,-0.06695289081037044,0.0003472973340190947,0.0036508734906325114
1761341842490077700,4.53507763671875,-0.07054711591005325,-0.00163762940550223,0.005840446823625825
1761341842500143600,4.5451435546875,-0.05887888994812965,-0.001015077060367912,0.00007548095558304339
1761341842510209500,4.55520947265625,-0.06396715299785137,0.005591572929359972,0.0005740370282903313
1761341842520275700,4.565275634765625,-0.06889934870302676,0.002038282628264278,-0.004297272502235137
1761341842530341600,4.575341552734375,-0.06890402487814426,-0.003906104060448706,0.00015236841696314514
1761341842540408600,4.58540869140625,-0.06576397328674793,-0.00008183306455612182,0.004031561637599952
1761341842550474800,4.595474853515625,-0.0674076488405466,-0.007906462275609373,0.0008124899932416156
1761341842560540700,4.605540771484375,-0.0715951636582613,-0.005895871371868998,0.009516185327456333
1761341842570606600,4.615606689453125,-0.07548749492168426,-0.0038399617553688584,0.008918155502225272
1761341842580672500,4.625672607421875,-0.07563596348166465,-0.005545834091491997,0.006194183031585998
1761341842590738400,4.635738525390625,-0.07294482470154762,-0.005028660083282738,0.0003895929726306349
1761341842600804600,4.6458046875,-0.06261573838889599,-0.0035440110160969195,0.00579936589456629
1761341842610871600,4.65587158203125,-0.06650514704287051,-0.005663779649045318,0.005731890148925595
1761341842620937500,4.6659375,-0.06142156016826629,-0.0005651230694726109,-0.000595947465999052
1761341842631003600,4.676003662109375,-0.07294307113587856,-0.0016242219346575438,0.000786465069418773
1761341842641069600,4.686069580078125,-0.06456804150044917,-0.0009910751302726567,0.001966217472474091
1761341842651135700,4.6961357421875,-0.05648410376608371,-0.0015640709789469837,0.006406432976201176
1761341842661201700,4.70620166015625,-0.06964695219993591,-0.004004066275898367,0.005946528413449414
1761341842671267600,4.716267578125,-0.065159577652812,-0.006620788112934679,0.004711780720413662
1761341842681333500,4.72633349609375,-0.0660614949285984,0.0058105677085928615,-0.005916037377063184
1761341842691400400,4.736400390625,-0.06740414170920848,-0.0032706922337412832,0.0011679021350573747
1761341842701466600,4.746466552734375,-0.06934826151430606,-0.0015264423822984098,0.007494433708884753
1761341842711532500,4.756532470703125,-0.06470949579775333,-0.0034703977906145153,0.002274813064187765
1761341842721598700,4.7665986328125,-0.07593290060162544,-0.009885032339580357,0.007034679843182675
1761341842731664600,4.77666455078125,-0.07488719094097614,0.002214607309550047,0.0073483032364631065
1761341842741730800,4.786730712890625,-0.06172551155090332,-0.0018551628800109027,0.0021153664524666965
1761341842751796700,4.796796630859375,-0.06411971321105957,-0.008573072958178819,0.004868651782558299
1761341842761863700,4.80686376953125,-0.06172960320413112,-0.004801956921629607,0.003685830639582127
1761341842771930600,4.8169306640625,-0.06457271767556667,-0.003298310893028974,-0.00196710795504041
1761341842781996800,4.826996826171875,-0.07160568505227566,-0.0058113531598821275,0.0000676310092676431
1761341842792062700,4.837062744140625,-0.06487316192686557,-0.0045580286305397745,0.013123361240257508
1761341842802129000,4.84712890625,-0.06262684430480003,-0.003884111424349248,0.009450307883857749
1761341842812194800,4.85719482421875,-0.07953238639831542,0.0045333508470095695,0.0071298473133472725
1761341842822260700,4.8672607421875,-0.07324526895284653,-0.006660827862378209,-0.0038139322649687526
1761341842832326700,4.87732666015625,-0.06980243502259253,-0.00624592691855505,0.004776292757410556
1761341842842393600,4.8873935546875,-0.06531622951924801,0.006006272943783551,0.0043768222781596705
1761341842852459800,4.897459716796875,-0.06770984665751457,0.007051398082543164,0.011750867310655303
1761341842862525700,4.907525634765625,-0.06112696113586425,-0.003939111280906946,0.0030156214941293
1761341842872591600,4.917591552734375,-0.07220189737975596,-0.0037175044194795188,0.00018403306370601058
1761341842882657800,4.92765771484375,-0.06816051303446292,-0.0021044249333441256,0.0014459473248803988
1761341842892723700,4.9377236328125,-0.0531909074395895,-0.0015860270824283361,0.016050952824484557
1761341842902790000,4.947789794921875,-0.06351122592389583,0.0007756605476140976,0.0026943171178922054
1761341842912856800,4.95785693359375,-0.06306465120017528,-0.0015005955549888311,-0.0019789034241111947
1761341842922922800,4.9679228515625,-0.07428630243837833,-0.003786660665553063,0.006734884045855142
1761341842932988700,4.97798876953125,-0.06006897651553154,-0.004169559035915881,0.006363383852341212
1761341842943054600,4.9880546875,-0.06620879444479942,0.004006751423329115,0.014267992097581736
1761341842953120800,4.998120849609375,-0.0684580346763134,-0.005806220327038317,-0.0005937737752217799
1761341842963186700,5.008186767578125,-0.07069967612326145,-0.005349964459519833,0.005508205494843423
1761341842973252900,5.0182529296875,-0.07383855867087841,0.002598017136566341,0.011479713085922412
1761341842983318800,5.02831884765625,-0.06455985819399357,0.001335175860207528,0.00502262306814082
1761341842993385700,5.0383857421875,-0.06426409011781216,-0.007970741417165845,0.0008516072940779849
1761341843003452000,5.048451904296875,-0.06890402487814426,-0.005096428089868277,0.010675977221294305
1761341843013517800,5.058517822265625,-0.07055179208517075,-0.008646046862844377,0.006524113672273233
1761341843023583700,5.068583740234375,-0.06531739856302737,-0.0028471513257361945,0.003836335893021896
1761341843033649700,5.078649658203125,-0.06516659191548824,0.004249492404330522,0.0002876943675801158
1761341843043715800,5.0887158203125,-0.06082534784078598,-0.004816332506854087,0.009512212405237369
1761341843053781800,5.09878173828125,-0.06471592553853989,0.0011774462815374136,0.009112225902755745
1761341843063848700,5.1088486328125,-0.06755962453186512,-0.00418481140397489,-0.002893438152875751
1761341843073915000,5.118914794921875,-0.06920388460755347,-0.0038271022737957536,-0.0009753524047555401
1761341843083980800,5.128980712890625,-0.05483575203716755,-0.004240468847658485,0.010009375671879388
1761341843094046700,5.139046630859375,-0.05483282942771911,-0.00284874049462378,0.007435246300976723
1761341843104113000,5.14911279296875,-0.05901800615787506,-0.007647080687060952,0.00858689142097719
1761341843114178600,5.159178466796875,-0.0629027386367321,-0.0008708097514696419,-0.001832005766709335
1761341843124244700,5.16924462890625,-0.07113105327785015,0.004900448860041797,-0.0016872681003529577
1761341843134310700,5.179310546875,-0.06499298891425133,0.0025351445008069276,0.0034556705789407713
1761341843144377600,5.189377685546875,-0.061701546153426164,-0.005794566421862692,-0.004685678164777346
1761341843154443800,5.19944384765625,-0.06439911467432975,-0.0033529271570965644,0.002888314453186467
1761341843164509700,5.209509765625,-0.06334872883856296,-0.005721775180287659,0.005776213347841985
1761341843174575900,5.219575927734375,-0.0634954438328743,-0.00988552552992478,0.0005067348125856369
1761341843184641800,5.229641845703125,-0.06798457194566726,-0.01019702089820057,0.0031793013229733332
1761341843194707700,5.239707763671875,-0.07037818908393383,-0.004838051148317754,0.008654056639363989
1761341843204773600,5.249773681640625,-0.06843231571316719,-0.007403097597043961,0.012574280556710437
1761341843214839800,5.25983984375,-0.06319733766913414,-0.007482245514169335,0.006369617230305448
1761341843224906800,5.26990673828125,-0.06678571754992008,-0.005649458862747997,0.004563992580445483
1761341843234972700,5.27997265625,-0.06349135217964649,0.0003847615338861942,0.006413301108404994
1761341843245038800,5.290038818359375,-0.0667851330280304,-0.004967267018556595,-0.0010792009382974356
1761341843255104800,5.300104736328125,-0.06753565913438797,-0.006669942750595509,-0.001001308829919435
1761341843265170700,5.310170654296875,-0.06349485931098461,0.00003571063419803977,0.010102227887371555
1761341843275236900,5.32023681640625,-0.05915244619250297,0.00025744535978883504,0.005040724980412051
1761341843285302500,5.330302490234375,-0.06139350311756134,-0.0027691724523901937,0.0035870692731114102
1761341843295370000,5.340369873046875,-0.056607437884807585,-0.00953556131478399,0.006167500520637258
1761341843305435600,5.350435546875,-0.06797697316110134,-0.0026026385127566752,0.00039550669018644836
1761341843315501600,5.36050146484375,-0.06499006630480289,-0.004928597242292016,0.00519499766009394
1761341843325567700,5.370567626953125,-0.06678747111558914,-0.000539477171562612,0.004806687895674258
1761341843335633700,5.380633544921875,-0.07561901234686375,-0.0030998291788622736,-0.0009796906531555577
1761341843345699800,5.390699951171875,-0.0700835900515318,-0.010525321270804851,0.005145843022433109
1761341843355765800,5.400765869140625,-0.06200199040472507,-0.012824757319595663,0.003678318619984202
1761341843365832000,5.41083203125,-0.0687327599644661,0.0035274982727132734,0.0025193213105900213
1761341843375899000,5.42089892578125,-0.059309098058938976,-0.006039627224113791,-0.002393041749531403
1761341843385964500,5.430964599609375,-0.06484978105127812,-0.007546506389416754,-0.00008973324322141706
1761341843396030700,5.44103076171875,-0.06484978105127812,-0.006769640265405177,0.0015706148841651156
1761341843406096600,5.4510966796875,-0.07293021165430545,-0.0029000505567528304,-0.005008658474870026
1761341843416162800,5.461162841796875,-0.07038812595605849,-0.0038455329796299336,0.005652148576756008
1761341843426228700,5.471228759765625,-0.07038695691227913,-0.0031640900541096925,0.00024846290231216695
1761341843436295000,5.481294921875,-0.07711655742824078,-0.004515011472720653,0.004823127573821693
1761341843446361900,5.49136181640625,-0.06723989105820656,-0.004089242075011134,0.0023853425002656877
1761341843456427800,5.501427734375,-0.06050502984523773,-0.004995744194369763,-0.0002893200690858066
1761341843466494000,5.511493896484375,-0.06574293049871921,-0.008744100409839303,0.008053926188591867
1761341843476559600,5.5215595703125,-0.06110182669460773,-0.005681370104663074,0.01306509628095664
1761341843486625800,5.531625732421875,-0.06798866359889506,-0.006112034873198718,0.0072918009759858245
1761341843496691700,5.541691650390625,-0.07636953845322132,-0.004732727610319853,-0.00012972732689231633
1761341843506757600,5.551757568359375,-0.07263035192489624,-0.0029043979383073745,0.003461766959587112
1761341843516823800,5.56182373046875,-0.07397709035873412,-0.005150514630973339,0.004781224660854786
1761341843526890800,5.571890869140625,-0.0660480509251356,-0.007305080582667141,0.0020126230306224896
1761341843536956700,5.581956787109375,-0.07143032848536968,-0.0076315177917480465,0.0062942504391539835
1761341843547022800,5.59202294921875,-0.07068506307601928,-0.0022819917236454783,0.0033621836092090234
1761341843557088800,5.6020888671875,-0.07308160282373428,-0.009693711018562316,0.004465372777869924
1761341843567154700,5.61215478515625,-0.07083762328922748,-0.0036843145359307526,0.0017027168312342836
1761341843577220600,5.622220703125,-0.06365443378686904,-0.0003758658413775265,0.005601943626324646
1761341843587286800,5.632286865234375,-0.0700870971828699,-0.0022549758525565265,0.0067987476288806645
1761341843597352700,5.642352783203125,-0.06903963395655155,-0.0003280994432047009,0.0056552675490267575
1761341843607419600,5.652419677734375,-0.07068330951035022,0.0004945237849839032,0.00845841076967772
1761341843617485800,5.66248583984375,-0.06754150435328483,-0.008004753284621984,0.004321959418919869
1761341843627551700,5.6725517578125,-0.061706806850433345,-0.013163067629560828,0.00602900079882238
1761341843637618000,5.682617919921875,-0.06814180833399296,-0.005644088567886501,0.0052021626198198645
1761341843647683800,5.692683837890625,-0.06469955892562866,-0.004785243248846382,0.007277178795589134
1761341843657749800,5.702749755859375,-0.07337795542180538,0.00011891367193311453,0.0011093175153480842
1761341843667815700,5.712815673828125,-0.06499532700181007,-0.013203490971494465,0.0062083531208336346
1761341843677882600,5.722882568359375,-0.06409574781358242,-0.002063599732611328,0.000521982614067383
1761341843687948800,5.73294873046875,-0.06798457194566726,-0.006428443878609687,0.012533752183499745
1761341843698014700,5.7430146484375,-0.07112579258084296,-0.0021388386595994234,0.0069066056172596285
1761341843708081000,5.753080810546875,-0.0645405689716339,-0.007891630032658576,0.0021583653439767657
1761341843718146800,5.763146728515625,-0.06828150906562805,-0.00012194587923586368,-0.002203140634042211
1761341843728212700,5.773212646484375,-0.05915244619250297,0.005200619116704911,0.0015618196563562377
1761341843738278700,5.783278564453125,-0.06348959861397743,-0.0025440219270065423,0.005407014709268697
1761341843748344600,5.793344482421875,-0.06393441977202892,-0.010475107187218963,0.0071721703514223915
1761341843758410800,5.80341064453125,-0.05704992095530033,-0.007527874754182994,0.0048153917919378725
1761341843768477700,5.813477783203125,-0.0709673871487379,-0.001324362205248326,0.004422396719246171
1761341843778543400,5.82354345703125,-0.0651285979926586,-0.00820550002111122,0.0027814930778462437
1761341843788609500,5.833609619140625,-0.05270750783681869,-0.005703673268016427,0.00668728204446379
1761341843798675500,5.843675537109375,-0.0658744479238987,0.00006692775636911391,-0.0022563229928491634
1761341843808741600,5.85374169921875,-0.06063946987986564,-0.004517148630879819,-0.0032945389002095905
1761341843818807600,5.8638076171875,-0.06288461845815181,-0.003579064063169062,-0.0005563826405908912
1761341843828873700,5.873873779296875,-0.06857260096669196,-0.0032174276765435934,-0.00016257471714634447
1761341843838940700,5.883940673828125,-0.06273556537628174,-0.006801314045302569,-0.003849012711504474
1761341843849006600,5.894006591796875,-0.07754735006093978,-0.00482310930751264,0.0036155921146972104
1761341843859072800,5.90407275390625,-0.07096037288606166,-0.008402666561026126,0.003364329900522716
1761341843869138400,5.914138427734375,-0.0763484956651926,-0.008047587779350579,0.002783598269964568
1761341843879204600,5.92420458984375,-0.06153554193675518,0.001372402598056942,-0.0014104604529682546
1761341843889270500,5.9342705078125,-0.06258417420685292,-0.0036665779498405754,0.007077491505024954
1761341843899336700,5.944336669921875,-0.0675210460871458,-0.0028199710578657687,0.0033495524564990773
1761341843909402600,5.954402587890625,-0.06677578067779541,-0.003594261632300913,0.0047906683426350355
1761341843919469600,5.964469482421875,-0.06303600962758064,-0.007577047658152878,0.005877637028857134
1761341843929535700,5.97453564453125,-0.05959726735055446,-0.005962086742185056,0.006617723939591087
1761341843939601700,5.9846015625,-0.0634907676577568,-0.0007480601546354591,-0.004280070205684751
1761341843949667600,5.99466748046875,-0.07321545833647251,-0.0029049641938880084,0.012217845501587726
1761341843959733500,6.0047333984375,-0.06932663420438766,-0.006261435014940798,0.0004324457336682826
1761341843969799400,6.01479931640625,-0.06334113005399704,-0.006574409954249859,0.003166619937913492
1761341843979865600,6.024865478515625,-0.054960839721560475,-0.00454456636076793,-0.0013573054936248808
1761341843989932500,6.0349326171875,-0.06498772821724415,-0.0022889877200126646,0.003015982253733091
1761341843999998500,6.04499853515625,-0.05646013836860656,-0.005819372069556266,0.008780756325530818
1761341844010064600,6.055064697265625,-0.06079787531197071,-0.00022394494898617267,0.008631922439369373
1761341844020130600,6.065130615234375,-0.0718652127712965,0.0017976605391129851,0.005583910212712362
1761341844030196700,6.07519677734375,-0.06318272462189198,-0.0037367753755301234,0.005425545879802666
1761341844040262400,6.085262451171875,-0.052259764069318766,-0.005829966528806835,0.004000458679860457
1761341844050328600,6.09532861328125,-0.05898936458528042,-0.005540482062939554,0.013182502982392907
1761341844060394500,6.10539453125,-0.06871463978588581,-0.01084098135754466,0.0075185909026069565
1761341844070461400,6.11546142578125,-0.06662263594269752,-0.006348273048177361,0.005619182455493137
1761341844080527600,6.125527587890625,-0.07021452295482158,-0.005193970180209726,-0.00193664431811776
1761341844090593500,6.135593505859375,-0.07201017419993877,-0.0035607246888801456,-0.00023563538677990434
1761341844100659700,6.14565966796875,-0.062433952081203455,-0.010125015107914805,0.00031918091780971735
1761341844110725600,6.1557255859375,-0.06198387022614479,-0.007505151465721428,-0.001981940197991207
1761341844120791600,6.16579150390625,-0.06467500900626182,0.0006129260002635419,-0.0053234006795799356
1761341844130857500,6.175857421875,-0.06078209322094917,-0.005037226982228458,0.0016405200489098206
1761341844140923400,6.18592333984375,-0.06676818189322949,-0.009250314632616937,-0.006278203486651182
1761341844150990600,6.195990478515625,-0.06422375810742378,-0.00029090923797339197,0.002687704714015126
1761341844161056500,6.206056396484375,-0.06616846243441105,-0.007971051944419742,0.003316600034967996
1761341844171122400,6.216122314453125,-0.06931143663525581,-0.002710373203549534,0.003911319091683254
1761341844181188600,6.226188720703125,-0.06647007572948932,-0.0028149478228762744,0.0005634060364216566
1761341844191254500,6.236254638671875,-0.07320201433300971,-0.0036855566449463363,0.0011492111343191936
1761341844201320700,6.24632080078125,-0.06287526610791683,-0.009279047536756842,0.002875993827730417
1761341844211386600,6.25638671875,-0.05958499239087105,-0.012048694913182407,0.005995002631098032
1761341844221453600,6.26645361328125,-0.06721943279206752,-0.011650909500941633,0.0016773540611146017
1761341844231519700,6.276519775390625,-0.07305646838247776,-0.008030125187896192,0.00351392183850985
1761341844241585400,6.28658544921875,-0.06782090581655502,-0.010963785753306001,0.0024942736343014985
1761341844251651600,6.296651611328125,-0.06422960332632065,-0.008714947380591184,0.002403448979114182
1761341844261717500,6.306717529296875,-0.06348024626374245,-0.00697535543795675,-0.0028873189393430945
1761341844271783700,6.31678369140625,-0.05899462528228759,-0.010285027975216507,0.002930135167762637
1761341844281849600,6.326849609375,-0.06198796187937259,-0.010394497965369374,0.00637363125171978
1761341844291915800,6.336915771484375,-0.06663023472726344,-0.005535531893186271,0.004025949314143508
1761341844301982700,6.346982666015625,-0.06034428632557392,-0.006680719872936606,0.0012666817678371443
1761341844312048600,6.357048583984375,-0.06917465851306914,-0.00885777165107429,-0.006547430615779012
1761341844322114600,6.367114501953125,-0.0723176327139139,-0.005966744650993496,-0.005092962057725526
1761341844332180500,6.377180419921875,-0.0684276395380497,-0.00684182871878147,-0.0028784186802571637
1761341844342246700,6.38724658203125,-0.06393909594714642,-0.006233432763163,-0.0018521489390172063
1761341844352312600,6.3973125,-0.0655821869790554,-0.0006038841772824526,0.002539090023562312
1761341844362378500,6.40737841796875,-0.06737666918039321,-0.00035352614540606734,-0.0006963619334390387
1761341844372444700,6.417444580078125,-0.060790861049294466,-0.006989986751507967,0.003842126312991604
1761341844382511600,6.42751171875,-0.055553544917702674,-0.003257175165042281,-0.0003114908016985282
1761341844392577500,6.43757763671875,-0.06512976703643798,0.001371361418440938,0.00025415285758208483
1761341844402643700,6.447643798828125,-0.06258534325063228,-0.0053633901966735715,0.0024500280671985817
1761341844412709400,6.45770947265625,-0.06153612645864486,0.002639372060261667,0.011169144732831045
1761341844422775600,6.467775634765625,-0.05899228719472885,0.002049041484296322,0.006596256459876894
1761341844432841500,6.477841552734375,-0.060787938439846034,-0.006143343326915055,-0.00348558622659184
1761341844442907600,6.48790771484375,-0.06916472164094448,-0.010335753515455872,-0.002189532233797945
1761341844452973600,6.4979736328125,-0.0688631083458662,-0.008454889938607811,0.0050895827905507755
1761341844463040500,6.50804052734375,-0.06078150869905948,-0.001619235232286155,0.0036422563593368974
1761341844473106700,6.518106689453125,-0.055095864278078076,-0.00775859650382772,-0.00469031324069947
1761341844483172600,6.528172607421875,-0.06751344730257988,-0.00856830545151606,-0.000554720406467095
1761341844493238800,6.53823876953125,-0.06078033965528011,-0.008693630597926676,0.0033785913213156163
1761341844503304400,6.548304443359375,-0.06886077025830745,-0.0012054485333152115,0.0004020094962092116
1761341844513370600,6.55837060546875,-0.07663958756625652,-0.00803523975443095,-0.002974115873384289
1761341844523436500,6.5684365234375,-0.06406827528476715,-0.011392203765828161,0.0014989378874422981
1761341844533503500,6.57850341796875,-0.06721008044183253,-0.003924059842247515,-0.0018860603417735545
1761341844543569700,6.588569580078125,-0.0645189416617155,-0.006361570921167731,0.004152767731319181
1761341844553635600,6.598635498046875,-0.06601181056797505,-0.0006316489670425653,0.00009022643356584012
1761341844563701500,6.608701416015625,-0.0657090282291174,-0.007249806731473654,-0.0013116990864975378
1761341844573767700,6.618767578125,-0.06914893954992293,-0.005366422403976321,0.007858718710322864
1761341844583833600,6.62883349609375,-0.06780337015986442,-0.00797583771739155,-0.0047679313544416796
1761341844593899500,6.6388994140625,-0.06795300776362419,-0.0127659215381369,0.005295978383114561
1761341844603965400,6.64896533203125,-0.06421089862585068,-0.003974840181414038,0.004716210300358944
1761341844614032400,6.659032470703125,-0.07333996149897574,-0.011697452056407927,0.008535371296294033
1761341844624098600,6.6690986328125,-0.06989712756872177,-0.004263648793846369,0.003285483377496712
1761341844634164500,6.67916455078125,-0.06735211926102638,-0.009053038494847714,-0.0004396015602396801
1761341844644230700,6.689230712890625,-0.0663099167317152,-0.0028696371521800754,0.01028301868122071
1761341844654296600,6.699296630859375,-0.06496200925409794,-0.010253080200683325,-0.0026842386818723752
1761341844664362800,6.70936279296875,-0.05672960295975208,-0.00784446642268449,-0.002266118301078677
1761341844674428400,6.719428466796875,-0.06166764388382435,-0.009066062373202293,0.004751085250917822
1761341844684494600,6.72949462890625,-0.06914952407181263,-0.02434493484664708,0.012058672884502448
1761341844694561500,6.7395615234375,-0.07049450893998145,-0.012456161469221114,0.011418082559178583
1761341844704627500,6.74962744140625,-0.0770803170710802,-0.0058078642948530615,0.004777895626029931
1761341844714693600,6.759693603515625,-0.07034779394567012,-0.006940119727794081,0.006823576109460555
1761341844724759600,6.769759521484375,-0.06436053622961044,-0.0018844803060404955,0.0015607693435857072
1761341844734825700,6.77982568359375,-0.06989595852494239,-0.007304824854340404,-0.004193821260915138
1761341844744891600,6.7898916015625,-0.07588321624100208,-0.010071677485480905,-0.0008966794116655365
1761341844754957600,6.79995751953125,-0.059123220098018646,0.0003635178164578974,-0.000699581370409578
1761341844765023500,6.8100234375,-0.06002396833002567,0.00032724092667922377,0.002085953128314577
1761341844775090200,6.820090087890625,-0.0709498514920473,-0.004813665625732392,0.003466269604768604
1761341844785156400,6.83015625,-0.06750877112746238,-0.0032985666213557123,0.0032632624125340953
1761341844795222300,6.84022216796875,-0.064963762819767,-0.006341843307390809,0.0032734595795627683
1761341844805288200,6.8502880859375,-0.0676607468187809,-0.004264415978826582,0.0024571153951110317
1761341844815354400,6.860354248046875,-0.06616027912795543,-0.00935092546287924,-0.006123560914210974
1761341844825420300,6.870420166015625,-0.07274374917149544,-0.005616890033707023,-0.0012376383364433423
1761341844835486500,6.880486572265625,-0.055232642400264736,-0.006488320839684456,-0.004577724278275855
1761341844845552400,6.890552490234375,-0.0606195961356163,-0.0024413470038212835,-0.0005312436327571049
1761341844855619300,6.900619384765625,-0.07019698729813098,-0.004679207324795424,0.001813086437107995
1761341844865685200,6.910685302734375,-0.07319090841710567,-0.007265753219276666,-0.0007041296813637017
1761341844875751200,6.920751220703125,-0.05867781441807746,-0.009747560097649693,0.00007360409232787787
1761341844885817300,6.9308173828125,-0.07035013203322887,-0.0021048450584523377,-0.005261213030409999
1761341844895883300,6.94088330078125,-0.07394201904535293,-0.0014909692101180553,-0.001997160600009374
1761341844905949400,6.950949462890625,-0.07229775896966457,0.0011533347535878419,-0.000154099149745889
1761341844916015400,6.961015380859375,-0.06392039124667644,-0.012035397040192037,0.010031966529600322
1761341844926082300,6.971082275390625,-0.06691255879998206,-0.004426346808578819,0.004168481323681771
1761341844936148500,6.9811484375,-0.06227262403964996,-0.0068438562790863215,-0.001285098773939535
1761341844946214400,6.99121435546875,-0.07199731471836567,-0.0049884011381305755,0.0036117881558369843
1761341844956280300,7.0012802734375,-0.06960428210198878,-0.005982526742015034,0.0024306794793345033
1761341844966346200,7.01134619140625,-0.06077332539260387,-0.012062613840680568,0.00426119197527878
1761341844976412400,7.021412353515625,-0.06196808813512325,-0.005840579254366457,0.002777278127032332
1761341844986478300,7.031478271484375,-0.06989829661250115,-0.011869959079101681,0.005283931752294302
1761341844996544300,7.041544189453125,-0.07348959910273552,-0.013070000784937292,0.005878705607936717
1761341845006611500,7.051611572265625,-0.0663052405565977,-0.008357293049339205,0.002532664849353023
1761341845016677400,7.061677490234375,-0.06316226635575294,-0.005853128208685666,0.0030097351760370655
1761341845026743300,7.071743408203125,-0.058823360368609426,-0.0022441804639063774,0.010148788709146902
1761341845036809500,7.0818095703125,-0.060168345236778255,-0.005770418361295014,0.0076978199270321054
1761341845046875100,7.091875244140625,-0.06450199052691459,-0.0046345461991615594,-0.006210896704369224
1761341845056941300,7.10194140625,-0.06824409966468811,-0.009358524247445165,0.002190386183746159
1761341845067007200,7.11200732421875,-0.07183306406736374,-0.008272975766751916,0.0034083973711123688
1761341845077073400,7.122073486328125,-0.06046177522540092,-0.007325867642369121,0.0014644693622598423
1761341845087140400,7.132140380859375,-0.0643535219669342,-0.005301047283876687,0.008252056276309304
1761341845097206300,7.142206298828125,-0.06300561448931694,-0.006387783074658364,0.0026585197187261656
1761341845107272400,7.1522724609375,-0.06749649616777896,-0.000009516747016459704,0.004030182531266473
1761341845117338400,7.16233837890625,-0.07333645436763762,-0.00373735989741981,-0.002898689716728404
1761341845127404300,7.172404296875,-0.0722924982726574,0.0013055661732330917,-0.0021587261035805566
1761341845137470200,7.18247021484375,-0.05837386303544044,-0.010038268406223506,0.00047251288257539267
1761341845147536400,7.192536376953125,-0.061817281487584114,-0.003827193605341017,0.0014894028741167858
1761341845157602300,7.202602294921875,-0.06690320644974708,0.0007499415844678879,-0.0006966907270019874
1761341845167669200,7.212669189453125,-0.06061608900427818,-0.008823558854218571,0.004165344085101969
1761341845177735400,7.2227353515625,-0.06256371594071387,-0.008392309563793242,0.0031067886426113544
1761341845187801300,7.23280126953125,-0.07124561956822872,-0.010496807562373579,0.0057297666904982175
1761341845197867500,7.242867431640625,-0.06885141790807246,-0.008530329794995486,0.0029484471425879743
1761341845207933400,7.252933349609375,-0.07274316464960574,-0.0050468533270992336,0.01010747031806968
1761341845217999000,7.2629990234375,-0.07005027230381965,-0.00292995250467211,-0.0019980191165348514
1761341845228065300,7.273065185546875,-0.0574824671536684,-0.00523032013522461,-0.004477990230848081
1761341845238132200,7.28313232421875,-0.0624234306871891,-0.0046427660382352765,0.0027572354194242503
1761341845248198100,7.2931982421875,-0.06481938591301441,-0.005881733248662203,0.005558040552516468
1761341845258264300,7.303264404296875,-0.058386722517013545,-0.005491820615623146,0.004102567347465082
1761341845268330200,7.313330322265625,-0.07036006890535354,-0.0013811886927112937,0.004562430811021477
1761341845278396400,7.323396484375,-0.06556698940992355,-0.006091284346114844,0.008129973399755545
1761341845288462300,7.33346240234375,-0.06511983016431332,-0.005550930391717702,0.0013786770752165466
1761341845298528500,7.343528564453125,-0.06960895827710628,-0.0041861813771538435,0.0005719957682536915
1761341845308594200,7.35359423828125,-0.07544716291129588,-0.010837309829425067,0.005456941098487004
1761341845318661000,7.3636611328125,-0.07529752530753613,-0.007240655310638248,0.002063901126710698
1761341845328727300,7.373727294921875,-0.0682663114964962,-0.006857775206584483,0.0016249069212470203
1761341845338793200,7.383793212890625,-0.06602291648387909,-0.0020234138526953756,0.005353033199440687
1761341845348859400,7.393859375,-0.06796586724519729,-0.0011873648873530328,0.00624080778544303
1761341845358925300,7.40392529296875,-0.06497603777945041,-0.00446550977518782,0.010532787624630145
1761341845368991500,7.413991455078125,-0.06990998705029487,-0.004703282320126891,0.010074006439885125
1761341845379057400,7.424057373046875,-0.0633253479629755,-0.00772085830932483,0.009184382390091195
1761341845389123300,7.434123291015625,-0.07335340550243855,-0.009592588731646538,-0.0025928340713726357
1761341845399190500,7.4441904296875,-0.06766425395011902,-0.0016367708889767527,0.002416792517877184
1761341845409256200,7.454256103515625,-0.055388709744811054,-0.008928827593289316,0.006239570243004709
1761341845419322400,7.464322265625,-0.06167290458083152,-0.003397478684876114,0.009761268962593748
1761341845429388300,7.47438818359375,-0.0640659371972084,0.0013448570040054618,0.007120732425129972
1761341845439454200,7.4844541015625,-0.06286883636713028,-0.01031279276497662,0.010745096934749744
1761341845449520400,7.494520263671875,-0.06720774235427379,0.0002726063963025808,0.004558887147065252
1761341845459586300,7.50458642578125,-0.06795476132929325,-0.002858914828766137,0.005531508738617412
1761341845469652500,7.514652587890625,-0.0694511373668909,-0.0014914989330805837,0.0005613602098077535
1761341845479719400,7.524719482421875,-0.06840250509679317,0.00027562033729627725,0.0024185780495870855
1761341845489785300,7.534785400390625,-0.06466507213413715,0.004636044036503881,-0.0005364175647962838
1761341845499851300,7.544851318359375,-0.05928279457390308,-0.006266275586839765,0.007342677213274873
1761341845509917200,7.554917236328125,-0.06287058993279934,-0.0041406434686854475,-0.00467215652950108
1761341845519983400,7.5649833984375,-0.06675999858677387,-0.00793439146215096,0.008056583936559036
1761341845530049300,7.57504931640625,-0.06899988646805286,-0.007811240006517619,0.004231696452735923
1761341845540115500,7.585115478515625,-0.06630348699092864,0.0019616371954791247,0.006424037131550721
1761341845550182400,7.595182373046875,-0.06420739149451256,-0.00022054741550236938,0.0038037305313628166
1761341845560248300,7.605248291015625,-0.078570847889781,-0.003409844976104796,-0.002112407310400158
1761341845570314500,7.615314453125,-0.07019055755734444,-0.004467573868110776,-0.0011979365137172863
1761341845580380400,7.62538037109375,-0.0727326432555914,-0.010809709436446428,0.0021800246199360114
1761341845590446300,7.6354462890625,-0.07109247483313083,-0.008021850549895316,0.006697881070291623
1761341845600512300,7.64551220703125,-0.07513444370031357,-0.0008946838174015283,0.0007170119958231226
1761341845610578200,7.655578125,-0.06794833158850669,-0.006421977605205029,0.009480547758494504
1761341845620644400,7.665644287109375,-0.05418167204260826,-0.008073599003441631,0.007218900136556476
1761341845630711300,7.675711181640625,-0.05971592529416084,-0.0013071553421206772,0.00297835822366178
1761341845640777500,7.685777587890625,-0.05866904658973217,-0.0013958017399534582,0.0041783131645293905
1761341845650843400,7.695843505859375,-0.06510112546384335,-0.009874437880329786,0.007316752754151821
1761341845660909300,7.705909423828125,-0.06929214741289615,-0.0026296909164637327,0.003950737786618992
1761341845670975500,7.7159755859375,-0.06390870080888271,-0.0051401759000495074,-0.002145122269913554
1761341845681041200,7.726041259765625,-0.05702127938270569,-0.0008624620482325554,0.0064625516441883515
1761341845691107300,7.736107421875,-0.06270575475990772,-0.004527706557512283,0.007481021671462804
1761341845701173200,7.74617333984375,-0.0642056379288435,-0.008300630958657712,0.005155569832003675
1761341845711240200,7.756240234375,-0.06899287220537662,-0.0035487967890687287,0.0051946916994173075
1761341845721306400,7.766306396484375,-0.06405541580319404,0.0005416691286489367,0.002103785612527281
1761341845731372300,7.776372314453125,-0.07213584640622138,0.0002322378532961011,0.007044497984298504
1761341845741438500,7.7864384765625,-0.06331131943762303,-0.003483220739569515,0.0011432517509907484
1761341845751504400,7.79650439453125,-0.06436170527338982,0.003353018488641828,0.001678061880590394
1761341845761570300,7.8065703125,-0.06720832687616347,-0.007447411662805825,0.011568423415836877
1761341845771636200,7.81663623046875,-0.07663783400058746,-0.004212156068626791,0.0015297440176596864
1761341845781702400,7.826702392578125,-0.07469312967360019,-0.003729213123582303,0.0021429531457135454
1761341845791769300,7.836769287109375,-0.054793081939220424,0.0009754391697235405,0.001961600662861019
1761341845801835300,7.846835205078125,-0.07365209618806838,-0.00510536031499505,0.0088651740728179
1761341845811901200,7.856901123046875,-0.06272913563549518,0.0016515483330003917,0.004431214779941365
1761341845821967000,7.866967041015625,-0.07141454639434815,-0.009322247357666492,0.004974473077477887
1761341845832033300,7.877033203125,-0.06842120979726314,-0.004686404250562191,0.01045648468513973
1761341845842099200,7.88709912109375,-0.06333470031321048,-0.00251983733382076,0.0035163695239229125
1761341845852165000,7.8971650390625,-0.05959200665354728,-0.004653287432249635,0.0016960404952755196
1761341845862231300,7.907231201171875,-0.06049100131988525,-0.007563603654690086,0.010921398783149197
1761341845872298200,7.91729833984375,-0.06692600280344486,-0.0024292364409193396,0.0023092267904430627
1761341845882364200,7.9273642578125,-0.06962240228056907,-0.001568217431101948,0.00225886200980749
1761341845892430300,7.937430419921875,-0.07785305500924587,-0.0006368000661954283,0.004298706407495774
1761341845902496000,7.94749609375,-0.06109656599760055,-0.0006676153295673429,-0.0017942036401247606
1761341845912562200,7.957562255859375,-0.06080021339952946,0.003945997679419815,0.006205366579303518
1761341845922628000,7.967628173828125,-0.06843523832261562,-0.00027899960447102785,0.006631752464943565
1761341845932694300,7.9776943359375,-0.13968611858785152,0.007521061420906335,-0.02622065189091954
1761341845942760200,7.98776025390625,0.01609539475440979,-0.019631332061905413,0.03427387482661288
1761341845952827100,7.9978271484375,-0.09404080422222613,-0.0017061828633770345,-0.007545360178523697
1761341845962893300,8.007893310546875,-0.05079202960431575,-0.0054696635827422135,0.008077243132097647
1761341845972959200,8.017959228515625,-0.06260813960433007,-0.0008271167402155696,-0.0006729810578515753
1761341845983025400,8.028025390625,-0.06947860989570617,-0.003543006369099021,0.0014801098893862216
1761341845993091000,8.038091064453125,-0.06888005948066711,-0.0014194200775586067,0.0044183872644091024
1761341846003157200,8.0481572265625,-0.06379296547472477,-0.007827423956338316,0.004624897021404467
