time,seconds_elapsed,z,y,x
1761341838030779400,0.075779296875,-0.0005532181821763515,-0.0018875142559409142,0.0003522578626871109
1761341838040845000,0.085844970703125,0.0022353094536811113,0.00009441748261451721,0.00029510119929909706
1761341838050911200,0.0959111328125,0.00005737645551562309,-0.0007585929706692696,-0.0002146279439330101
1761341838060977200,0.10597705078125,0.0014139735139906406,-6.295740604400635e-7,-0.0011370531283318996
1761341838071043300,0.116043212890625,-0.0009796759113669395,-0.0011106347665190697,-0.0003532851114869118
1761341838081109200,0.126109130859375,-0.00042777322232723236,-0.00032419897615909576,-0.0006910879164934158
1761341838091176200,0.13617626953125,-0.0003801025450229645,0.002067319117486477,-0.002550240606069565
1761341838101242400,0.146242431640625,-0.0005057454109191895,-0.00016442127525806427,-0.00010605063289403915
1761341838111308300,0.156308349609375,0.0008039972744882107,-0.0004903925582766533,-0.00014946004375815392
1761341838121374200,0.166374267578125,-0.0016921781934797764,0.00017556454986333847,-0.000951884314417839
1761341838131440000,0.176440185546875,-0.0013315863907337189,-0.0017134156078100204,-0.0031950646080076694
1761341838141506300,0.18650634765625,-0.0011534448713064194,-0.00016865041106939316,-0.0010184049606323242
1761341838151572200,0.196572265625,0.0004559033550322056,-0.0003952858969569206,-0.002741470467299223
1761341838161639200,0.20663916015625,-0.001825051847845316,0.000571761280298233,0.0008628852665424347
1761341838171705300,0.216705322265625,0.0018913894891738892,0.0002375338226556778,-0.002445293590426445
1761341838181771300,0.226771240234375,-0.0008420199155807495,-0.0002566259354352951,0.001139300875365734
1761341838191837200,0.236837158203125,0.000593157485127449,0.00006375182420015335,-0.0034258896484971046
1761341838201903400,0.2469033203125,0.00029656942933797836,0.0018447600305080414,0.0009007980115711689
1761341838211969000,0.256968994140625,-0.0012358138337731361,-0.0002996167168021202,-0.0012007025070488453
1761341838222036500,0.267036376953125,0.0007815416902303696,0.0002768170088529587,-0.0014336728490889072
1761341838232102100,0.27710205078125,-0.001202247105538845,-0.002387409098446369,0.0007216236554086208
1761341838242168000,0.28716796875,-0.0010443213395774364,-0.0001742793247103691,-0.0015983129851520061
1761341838252234200,0.297234130859375,-0.00048558972775936127,0.0016904659569263458,0.00039612874388694763
1761341838262300200,0.307300048828125,-0.00033665169030427933,-0.00011343788355588913,0.0012796749360859394
1761341838272366300,0.317366455078125,0.0006926599889993668,-0.0014082668349146843,0.0013182912953197956
1761341838282432300,0.327432373046875,-0.0003491896204650402,0.0026332195848226547,-0.0017711324617266655
1761341838292499200,0.337499267578125,0.003241550410166383,-0.0014049308374524117,0.0020731408149003983
1761341838302565400,0.3475654296875,0.0006180135533213615,0.00016062892973423004,-0.00179689796641469
1761341838312631000,0.357631103515625,-0.000016617588698863983,-0.0005459077656269073,0.002195446752011776
1761341838322697200,0.367697265625,-0.0009626308456063271,0.000551171600818634,-0.0003110175020992756
1761341838332763100,0.37776318359375,-0.0021368181332945824,0.0012230873107910156,0.002529510296881199
1761341838342829300,0.387829345703125,0.00019354792311787605,0.00040664616972208023,0.0014116168022155762
1761341838352895200,0.397895263671875,-0.0019465680234134197,0.0005970625206828117,-0.0017322446219623089
1761341838362961400,0.40796142578125,0.0009756512008607388,-0.0009030746296048164,0.001216334756463766
1761341838373028400,0.4180283203125,-0.002600175328552723,0.001295630820095539,0.0008189906366169453
1761341838383094300,0.42809423828125,9.73232090473175e-7,-0.0025138435885310173,0.0022460399195551872
1761341838393160400,0.438160400390625,0.0010190997272729874,-0.002806524746119976,0.0015016868710517883
1761341838403226000,0.44822607421875,0.00016479240730404854,-0.0000936649739742279,0.0002274494618177414
1761341838413292300,0.458292236328125,0.0020196838304400444,0.0007777214050292969,0.00013104267418384552
1761341838423358200,0.468358154296875,-0.002013751771301031,0.0010155048221349716,0.0022317287512123585
1761341838433425200,0.478425048828125,0.0005383556708693504,-0.00039756856858730316,-0.00031798146665096283
1761341838443491300,0.4884912109375,0.00019897054880857468,0.00020354241132736206,-0.0011680820025503635
1761341838453557200,0.49855712890625,0.00015209894627332687,-0.0013453513383865356,-0.002363308798521757
1761341838463623200,0.508623046875,0.0020959023386240005,-0.0001292666420340538,-0.00022655632346868515
1761341838473689300,0.518689453125,0.0017693988047540188,-0.0024214498698711395,0.001034450251609087
1761341838483755300,0.52875537109375,-0.002045933622866869,-0.00020958948880434036,0.0008081924170255661
1761341838493821200,0.5388212890625,-0.00022539682686328888,0.001284710131585598,-0.0017748074606060982
1761341838503888100,0.54888818359375,0.0008764113299548626,-0.0004276009276509285,-0.0025185756385326385
1761341838513954000,0.5589541015625,-0.0001347907818853855,-0.0034598764032125473,-0.00007219566032290459
1761341838524020200,0.569020263671875,-0.00002619018778204918,-0.0005416702479124069,-0.0014796028845012188
1761341838534086100,0.579086181640625,0.000025209039449691772,0.0014421185478568077,-0.0018505812622606754
1761341838544152300,0.58915234375,0.001780183520168066,0.0017925212159752846,-0.0008998150005936623
1761341838554218200,0.59921826171875,-0.00027018412947654724,-0.00028074998408555984,0.0020238030701875687
1761341838564284400,0.609284423828125,-0.0027229906991124153,0.0016733482480049133,0.004660609178245068
1761341838574351400,0.619351318359375,-0.0005695582367479801,-0.0005117757245898247,-0.0027104876935482025
1761341838584417300,0.629417236328125,0.000018513761460781097,0.0011543454602360725,-0.0018923617899417877
1761341838594483200,0.639483154296875,-0.0014661988243460655,0.0003708433359861374,0.0035665854811668396
1761341838604549000,0.649549072265625,0.0012199287302792072,-0.00011137127876281738,0.0009191143326461315
1761341838614615300,0.659615234375,0.000057192519307136536,0.001629536971449852,0.0003366810269653797
1761341838624681200,0.66968115234375,-0.000296739861369133,0.00014613382518291473,-0.00014493754133582115
1761341838634747400,0.679747314453125,-0.0009875642135739326,-0.0003982158377766609,0.000020977109670639038
1761341838644814300,0.689814453125,-0.0010200231336057186,0.0016127517446875572,-0.0011597988195717335
1761341838654880300,0.69988037109375,-0.00009057996794581413,0.0014534946531057358,0.002411500085145235
1761341838664946400,0.709946533203125,-0.0006498601287603378,0.001710129901766777,-0.001081900205463171
1761341838675012400,0.720012451171875,-0.0017441529780626297,-0.0007751313969492912,0.001404161099344492
1761341838685078300,0.730078369140625,0.0014605927281081676,0.00008857809007167816,0.0008626147173345089
1761341838695144200,0.740144287109375,0.0018246467225253582,-0.0006480524316430092,0.00006073666736483574
1761341838705210000,0.750210205078125,-0.0012813112698495388,0.0017121769487857819,0.0005759778432548046
1761341838715277300,0.76027734375,-0.001422991044819355,0.00047673657536506653,-0.0018909084610641003
1761341838725343200,0.77034326171875,-0.00018446380272507668,0.0034235017374157906,0.0023765196092426777
1761341838735409200,0.7804091796875,-0.0003956523723900318,0.0013337191194295883,-0.000033641234040260315
1761341838745475300,0.790475341796875,0.001633855514228344,-0.002278863452374935,-0.0023520635440945625
1761341838755541200,0.800541259765625,0.00020506978034973145,-0.0040320223197340965,0.0010091117583215237
1761341838765607700,0.810607666015625,-0.0027951588854193687,0.0026181302964687347,-0.0033426578156650066
1761341838775673300,0.82067333984375,0.001069354359060526,-0.0012834006920456886,0.0018952474929392338
1761341838785740500,0.830740478515625,0.0010943622328341007,0.0027182595804333687,0.00028996681794524193
1761341838795806500,0.840806396484375,0.0008341711945831776,0.00031182728707790375,0.0006574825383722782
1761341838805872400,0.850872314453125,-0.0007098638452589512,0.0001035500317811966,0.00032830145210027695
1761341838815938600,0.8609384765625,0.001623597927391529,0.0000169975683093071,0.0018319226801395416
1761341838826004500,0.87100439453125,0.000054506585001945496,0.0002656877040863037,0.0013123545795679092
1761341838836070700,0.881070556640625,-0.0007793288677930832,-0.0011074375361204147,-0.0001726243644952774
1761341838846136600,0.891136474609375,-0.00038322294130921364,-0.0005379645153880119,-0.001142679713666439
1761341838856203500,0.90120361328125,0.001061275601387024,-0.0012136083096265793,-0.0008627814240753651
1761341838866269700,0.911269775390625,-0.0001631118357181549,0.0013931626453995705,0.003651877399533987
1761341838876335400,0.92133544921875,0.0008664662018418312,0.0015324456617236137,-0.002576191443949938
1761341838886401500,0.931401611328125,-0.0016645626164972782,0.000051363371312618256,0.002335913013666868
1761341838896467500,0.941467529296875,-0.00034123798832297325,0.001446060836315155,0.0012179180048406124
1761341838906533400,0.951533447265625,-0.000367478933185339,-0.0006790086627006531,0.0005044830031692982
1761341838916599600,0.961599609375,-0.0020932075567543507,0.00007919315248727798,0.002392930444329977
1761341838926666500,0.97166650390625,-0.0003279205411672592,-0.0010246718302369118,0.0012114946730434895
1761341838936732400,0.981732421875,-0.00043098488822579384,-0.00018843915313482285,0.001371550839394331
1761341838946798600,0.991798583984375,-0.001486286986619234,0.00004698149859905243,0.0009269271977245808
1761341838956864500,1.001864501953125,-0.0024745860137045383,-0.0009056311100721359,-0.0005197017453610897
1761341838966930400,1.011930419921875,-0.001648241188377142,-0.000454670749604702,0.0036768801510334015
1761341838976996400,1.021996337890625,0.0010572639293968678,0.0014502881094813347,-0.0006108088418841362
1761341838987062500,1.0320625,0.00003848224878311157,0.0007446520030498505,-0.0005891919136047363
1761341838997129500,1.04212939453125,0.0009516803547739983,-2.337619662284851e-7,-0.0011194273829460144
1761341839007195400,1.0521953125,-0.0010101175867021084,0.00006678886711597443,-0.0013428921811282635
1761341839017261600,1.062261474609375,-0.00003620004281401634,0.000757080502808094,0.000025173649191856384
1761341839027327500,1.072327392578125,-0.0004283166490495205,0.001823623664677143,-0.0029579903930425644
1761341839037393700,1.0823935546875,-0.00046666618436574936,0.00040202774107456207,-0.0011718082241714
1761341839047459600,1.09245947265625,0.00009416742250323296,0.001733211800456047,0.0001223944127559662
1761341839057525500,1.102525390625,0.00025502266362309456,-0.00029105693101882935,0.0007144147530198097
1761341839067591400,1.11259130859375,0.0009475895203649998,-0.0006194654852151871,-0.000424225814640522
1761341839077658400,1.122658447265625,-0.0006244746036827564,0.0003121085464954376,0.000425056554377079
1761341839087724500,1.132724609375,-0.0016510281711816788,-0.0035138381645083427,-0.0032819691114127636
1761341839097790500,1.14279052734375,0.0002954765222966671,-0.0013521499931812286,-0.00036740535870194435
1761341839107856600,1.152856689453125,-0.00012926384806632996,0.0015401029959321022,-0.0005034804344177246
1761341839117922600,1.162922607421875,-0.0010065091773867607,0.00031851138919591904,0.0009303656406700611
1761341839127988500,1.172988525390625,0.002583657158538699,-0.00017970241606235504,0.00255374563857913
1761341839138054700,1.1830546875,-0.0005791126750409603,0.0017622746527194977,0.0003116303123533726
1761341839148121600,1.19312158203125,0.00008675782009959221,0.00013629067689180374,-0.002557652071118355
1761341839158187300,1.203187255859375,-0.000029622111469507217,-0.0004504034295678139,0.0012514670379459858
1761341839168253400,1.21325341796875,-0.001364340540021658,0.0000815289095044136,-0.0017590299248695374
1761341839178319400,1.2233193359375,-0.0016221348196268082,0.0016192374750971794,0.0034807398915290833
1761341839188385500,1.233385498046875,-0.00039247283712029457,-0.0000036582350730895996,-0.00031979242339730263
1761341839198451500,1.243451416015625,-0.000761853065341711,-0.00007476471364498138,0.001055996399372816
1761341839208517600,1.253517578125,-0.0014484929852187634,0.0017487062141299248,0.0001611742191016674
1761341839218584600,1.26358447265625,0.00043622637167572975,-0.002100360579788685,-0.002112366259098053
1761341839228650500,1.273650390625,0.0022562099620699883,0.00001372210681438446,-0.002323695458471775
1761341839238716700,1.283716552734375,-0.0012250738218426704,-0.0005657821893692017,-0.0027023968286812305
1761341839248782300,1.2937822265625,-0.000234995037317276,0.0003154389560222626,0.003735970240086317
1761341839258848500,1.3038486328125,0.00012799352407455444,-0.0001303739845752716,-0.0010286918841302395
1761341839268914400,1.31391455078125,0.001026018988341093,-0.0010500187054276466,-0.0005630385130643845
1761341839278980600,1.323980712890625,-0.0015354095958173275,0.0030374014750123024,0.00016400450840592384
1761341839289047600,1.334047607421875,-0.0017271745018661022,-0.0004089800640940666,0.0015630279667675495
1761341839299113500,1.344113525390625,-0.0005676341243088245,-0.001238022930920124,-0.0013608564622700214
1761341839309179600,1.3541796875,-0.00018760748207569122,-0.00016540475189685822,-0.0009188815020024776
1761341839319245600,1.36424560546875,0.0013740700669586658,-0.0005403775721788406,-0.00046587781980633736
1761341839329311500,1.3743115234375,0.0002965009771287441,0.000947888009250164,-0.0009435811080038548
1761341839339377400,1.38437744140625,0.002196666318923235,-0.00009793508797883987,-0.003011791966855526
1761341839349443300,1.394443359375,-0.0009470237419009209,-0.00021210592240095139,0.001643423456698656
1761341839359510500,1.404510498046875,-0.0016157436184585094,0.0010723359882831573,-0.00007910933345556259
1761341839369576400,1.414576416015625,-0.0012084092013537884,-0.0000868532806634903,0.002143717370927334
1761341839379642400,1.424642333984375,-0.0022760708816349506,0.0009152935817837715,0.0017748698592185974
1761341839389708500,1.43470849609375,-0.0007525947876274586,-0.00033356621861457825,-0.00042269937694072723
1761341839399774500,1.4447744140625,0.0007821847684681416,-0.0004257112741470337,0.000018320512026548386
1761341839409840600,1.454840576171875,0.000683903694152832,-0.000596262514591217,0.0005430113524198532
1761341839419906300,1.46490625,0.001429854892194271,-0.00193796306848526,0.000897744670510292
1761341839429973500,1.474973388671875,0.00017552636563777924,0.0008357279002666473,-0.000598453450948
1761341839440039400,1.485039306640625,0.00012146402150392532,0.0028426852077245712,-0.0036802636459469795
1761341839450105300,1.495105224609375,-0.0012259003706276417,0.0004860367625951767,0.000340193510055542
1761341839460171500,1.505171630859375,0.0012713456526398659,0.0016919160261750221,0.0009729601442813873
1761341839470237400,1.515237548828125,0.0015101134777069092,-0.001290588639676571,0.000817327294498682
1761341839480303600,1.5253037109375,-0.0006361277773976326,-0.0022458648309111595,0.0002050665207207203
1761341839490369500,1.53536962890625,-0.003741276916116476,-0.00027816370129585266,0.00047622527927160263
1761341839500436500,1.5454365234375,0.001253481488674879,0.0011061476543545723,0.0013952823355793953
1761341839510502700,1.555502685546875,0.001047130674123764,0.00007897615432739258,-0.000905964057892561
1761341839520568600,1.565568603515625,-0.0009787362068891525,-0.0020638033747673035,0.0013867514207959175
1761341839530634500,1.575634521484375,-0.0018267612904310226,0.0007845256477594376,-0.0003777393139898777
1761341839540700400,1.585700439453125,-0.0012507191859185696,0.0010748105123639107,0.0004824618808925152
1761341839550766600,1.5957666015625,0.000905333086848259,-0.0027427542954683304,0.0002938271500170231
1761341839560832500,1.60583251953125,-0.0011024242267012596,-0.0008769435808062553,-0.0027230014093220234
1761341839570898400,1.6158984375,-0.0002590673975646496,-0.0029347725212574005,-0.000950890127569437
1761341839580965600,1.625965576171875,-0.00041273143142461777,-0.00005349889397621155,-0.0010717976838350296
1761341839591031600,1.636031494140625,-0.000009527895599603653,-0.00013538077473640442,-0.0015689125284552574
1761341839601097500,1.646097412109375,0.0008778371848165989,0.0011173700913786888,0.0020255562849342823
1761341839611163400,1.656163330078125,0.0005104565061628819,-0.0007078032940626144,0.0006895330734550953
1761341839621229300,1.666229248046875,-0.0004504118114709854,-0.0023696161806583405,0.00213429844006896
1761341839631295500,1.67629541015625,0.00010771024972200394,-0.00034760870039463043,0.0007034963928163052
1761341839641361400,1.686361328125,0.00012075994163751602,-0.0013156682252883911,-0.00008613104000687599
1761341839651428400,1.696428466796875,0.0008738781325519085,-0.0017306841909885406,0.00005582859739661217
1761341839661494500,1.70649462890625,0.001309837680310011,-0.0007671527564525604,-0.0017316853627562523
1761341839671560400,1.716560546875,-0.0008958899416029453,0.00044655613601207733,0.000030417926609516144
1761341839681626600,1.726626708984375,-0.0013337135314941406,0.0005802465602755547,-0.000032432377338409424
1761341839691692500,1.736692626953125,0.0008832793682813644,0.0015191501006484032,0.0015701930969953537
1761341839701758500,1.746758544921875,0.0001415889710187912,-0.001826046034693718,-0.0008524847216904163
1761341839711824400,1.756824462890625,-0.001431895885616541,0.0001735566183924675,-0.0022533629089593887
1761341839721891300,1.766891357421875,0.0011329948902130127,-0.0012895837426185608,0.0002100616693496704
1761341839731957500,1.77695751953125,-0.001001882366836071,-0.001189359463751316,0.0033827200531959534
1761341839742023400,1.7870234375,0.0018514287658035755,0.0014482354745268822,-0.0005896510556340218
1761341839752089600,1.797089599609375,0.001035783439874649,0.0002001384273171425,-0.0016329758800566196
1761341839762155500,1.807155517578125,-0.00041217729449272156,0.001745305024087429,-0.00040632346644997597
1761341839772221000,1.817220947265625,-0.0022301585413515568,-0.0009229397401213646,-0.0012079458683729172
1761341839782286600,1.82728662109375,0.0015880153514444828,-0.0008345227688550949,-0.0014476301148533821
1761341839792352800,1.837352783203125,-0.0018161679618060589,0.0031712139025330544,-0.0027461466379463673
1761341839802419700,1.847419677734375,0.001110912300646305,-0.00013030599802732468,-0.001733346376568079
1761341839812485600,1.857485595703125,-0.0015266649425029755,-0.0012576142325997353,-0.000028736423701047897
1761341839822551800,1.8675517578125,-0.0007415651343762875,0.00118264090269804,-0.0014127814210951328
1761341839832617700,1.87761767578125,-0.002380775287747383,-0.002218914218246937,-0.0001781955361366272
1761341839842684000,1.887683837890625,-0.000053971074521541595,0.00140298530459404,-0.0016077803447842598
1761341839852749800,1.897749755859375,0.000008462462574243546,-0.00036571919918060303,-0.002071497030556202
1761341839862815700,1.907815673828125,0.0015600202605128288,-0.0013588117435574532,0.0009938017465174198
1761341839872883000,1.917883056640625,-0.0015480970032513142,0.001554763875901699,0.002264808863401413
1761341839882948600,1.927948486328125,-0.0018575568683445454,-0.002049824222922325,0.0024283267557621002
1761341839893014800,1.938014892578125,-0.000631979200989008,0.0006578089669346809,-0.0019460865296423435
1761341839903080700,1.948080810546875,-0.00036433152854442596,-0.00011290982365608215,-0.0013431468978524208
1761341839913146600,1.958146728515625,-0.002345695160329342,-0.000014942139387130737,0.000295284204185009
1761341839923212800,1.968212890625,-0.0002015838399529457,-0.00022479891777038574,-0.0016544163227081299
1761341839933278700,1.97827880859375,-0.00157541548833251,-0.0001096874475479126,-0.0008424869738519192
1761341839943345700,1.988345703125,0.001421439927071333,-0.0016133086755871773,-0.002437187824398279
1761341839953411800,1.998411865234375,0.00035993102937936783,0.0017673615366220474,-0.0022613820619881153
1761341839963477800,2.008477783203125,-0.0004978729411959648,-0.00050324946641922,-0.00017213216051459312
1761341839973543700,2.018543701171875,-0.0023380988277494907,-0.0005916301161050797,0.0011879019439220428
1761341839983609600,2.028609619140625,0.0015796772204339504,-0.002032932825386524,-0.0015812525525689125
1761341839993675800,2.03867578125,-0.0010264297015964985,-0.0012742476537823677,0.0012291474267840385
1761341840003741700,2.04874169921875,-0.0013939463533461094,-0.0010811686515808105,-0.003313672263175249
1761341840013808600,2.05880859375,-0.00014773709699511528,-0.0009498577564954758,0.0012604892253875732
1761341840023874800,2.068874755859375,0.000904478132724762,0.000025126151740550995,0.0019057728350162506
1761341840033940700,2.078940673828125,-0.000006239861249923706,-0.001357351429760456,-0.00032979948446154594
1761341840044007000,2.0890068359375,-0.000963912345468998,-0.0013174042105674744,-0.0015045199543237686
1761341840054072800,2.09907275390625,-0.0011760219931602478,0.0022684894502162933,-0.0008907029405236244
1761341840064138800,2.109138671875,0.0007052351720631123,-0.00012436043471097946,0.0008824295364320278
1761341840074204700,2.11920458984375,-0.0009444314055144787,0.0017112111672759056,0.0012479997240006924
1761341840084270600,2.1292705078125,0.0007943464443087578,-0.0009407643228769302,-0.002104919869452715
1761341840094337800,2.139337890625,-0.0006270860321819782,0.0002136416733264923,-0.0009903786703944206
1761341840104403700,2.14940380859375,0.0011625583283603191,-0.0008729277178645134,0.0023910365998744965
1761341840114470000,2.159469970703125,-0.001267936546355486,-0.00011103041470050812,-0.0022651455365121365
1761341840124535800,2.169535888671875,0.0008175848051905632,0.00026846956461668015,-0.0012286431156098843
1761341840134601700,2.179601806640625,0.0022022915072739124,0.0008204011246562004,-0.0013362225145101547
1761341840144668000,2.18966796875,0.0009636553004384041,-0.0005726981908082962,0.0010600900277495384
1761341840154733600,2.199733642578125,0.0006057433784008026,0.0021675648167729378,-0.0007055350579321384
1761341840164800800,2.20980078125,-0.0007130536250770092,-0.0013960106298327446,0.0006569381803274155
1761341840174866700,2.21986669921875,-0.0006938804872334003,0.000345379114151001,0.0006399373523890972
1761341840184932600,2.2299326171875,0.0006294441409409046,0.001446862705051899,-0.0010005701333284378
1761341840194998800,2.239998779296875,-0.0011595087125897408,-0.0011193044483661652,0.0013378127478063107
1761341840205064700,2.250064697265625,-0.0001030326820909977,0.0011491766199469566,0.00008000200614333153
1761341840215131000,2.260130859375,0.0001646755263209343,-0.0010724803432822227,-0.0005858102813363075
1761341840225196800,2.27019677734375,0.00039024557918310165,0.00006974954158067703,0.0011505703441798687
1761341840235263700,2.280263671875,-0.0013845781795680523,0.00040951836854219437,-0.001078898087143898
1761341840245330000,2.290329833984375,-0.0006111962720751762,-0.0013518966734409332,0.001093708910048008
1761341840255395600,2.3003955078125,0.003438082989305258,0.0004119379445910454,-0.00024260114878416061
1761341840265461800,2.310461669921875,0.0006889021024107933,-0.0002679666504263878,-0.0002689664252102375
1761341840275527700,2.320527587890625,-0.001398665364831686,0.001704116351902485,-0.002623684238642454
1761341840285593900,2.33059375,0.00006793718785047531,0.0012985169887542725,0.000030422117561101913
1761341840295659800,2.34065966796875,0.002401184756308794,-0.00034054089337587357,-0.0014339042827486992
1761341840305725700,2.3507255859375,0.0003412296064198017,-0.0001463964581489563,0.0022934558801352978
1761341840315793000,2.36079296875,-0.0024222820065915585,-0.0012256363406777382,0.00019088247790932655
1761341840325858800,2.37085888671875,0.0017468961887061596,0.0003853095695376396,0.0017059543170034885
1761341840335924700,2.3809248046875,0.0011832546442747116,0.0017062705010175705,-0.00023844698444008827
1761341840345990700,2.39099072265625,-0.0007158457301557064,-0.000040230341255664825,0.0013533243909478188
1761341840356056600,2.401056640625,-0.0009790663607418537,-0.0004002498462796211,-0.0018692719750106335
1761341840366122800,2.411122802734375,-0.000003284309059381485,-0.002589900977909565,0.0005110609345138073
1761341840376188700,2.421188720703125,-0.0010857605375349522,0.0010917037725448608,0.003441798035055399
1761341840386255600,2.431255615234375,0.0004634000360965729,0.00027517881244421005,-0.003256584517657757
1761341840396321800,2.44132177734375,-0.0009634164161980152,0.002257019281387329,-0.0012552831321954727
1761341840406387700,2.4513876953125,0.0012957435101270676,-0.00029002781957387924,-0.0025216159410774708
1761341840416454000,2.461453857421875,0.00028981640934944153,0.0016646021977066994,0.0011520134285092354
1761341840426519600,2.47151953125,-0.0017645456828176975,-0.0005383649840950966,-0.00019128480926156044
1761341840436585700,2.481585693359375,0.0007882043719291687,0.00020141713321208954,0.0019407509826123714
1761341840446651600,2.491651611328125,0.00027341535314917564,-0.0028194067999720573,-0.0027030031196773052
1761341840456717800,2.5017177734375,-0.0007692733779549599,-0.00009801425039768219,0.0003100303001701832
1761341840466784800,2.51178466796875,-0.001022540032863617,0.0016096048057079315,-0.00447433814406395
1761341840476850700,2.5218505859375,0.00010146200656890869,0.0010816557332873344,-0.0007052058354020119
1761341840486916900,2.531916748046875,-0.0014982987195253372,-0.0004432704299688339,-0.0013813823461532593
1761341840496982800,2.541982666015625,0.001490793190896511,0.0008202968165278435,-0.0009103519842028618
1761341840507049000,2.552049072265625,-0.0009657065384089947,0.000536404550075531,0.0016638599336147308
1761341840517114600,2.562114501953125,0.001469699665904045,-0.0013816384598612785,-0.0017038537189364433
1761341840527180500,2.5721806640625,0.0012116394937038422,-0.0021169371902942657,-0.0009563043713569641
1761341840537247700,2.582247802734375,0.0003852713853120804,-0.00027059298008680344,-0.003530106507241726
1761341840547313700,2.592313720703125,0.00003400072455406189,-0.00038883741945028305,-0.0014541726559400558
1761341840557379800,2.6023798828125,0.00007013790309429169,0.0003392919898033142,-0.0023811650462448597
1761341840567445800,2.61244580078125,-0.0002686162479221821,0.0012855129316449165,-0.0011257505975663662
1761341840577511700,2.62251171875,-0.0005965740419924259,0.0005003884434700012,0.0009612739086151123
1761341840587577900,2.632577880859375,-0.00002399459481239319,-0.0017891312018036842,0.0009064124897122383
1761341840597643800,2.642643798828125,0.00024542491883039474,-0.0005520833656191826,0.0013699773699045181
1761341840607710700,2.652710693359375,0.0004081437364220619,0.0004093172028660774,0.00243524182587862
1761341840617776600,2.662776611328125,0.00016910117119550705,-0.0000017778947949409485,-0.0010955440811812878
1761341840627842600,2.672842529296875,-0.0004146639257669449,-0.00192324910312891,0.002575889229774475
1761341840637908700,2.68290869140625,0.0005931374616920948,0.00041105132550001144,0.000841114204376936
1761341840647974700,2.692974609375,0.0003201635554432869,0.000590016134083271,0.00019156886264681816
1761341840658040800,2.703040771484375,0.0005006752908229828,-0.0017537102103233337,-0.002568135503679514
1761341840668106800,2.713106689453125,-0.00027670152485370636,-0.0013675522059202194,-0.001756936777383089
1761341840678173000,2.7231728515625,0.0005716877058148384,0.0006056558340787888,0.0013171075843274593
1761341840688239900,2.733239990234375,-0.0008616256527602673,-0.0005512218922376633,-0.0012206188403069973
1761341840698305800,2.743305908203125,-0.000940865371376276,0.001192430965602398,0.00018192315474152565
1761341840708371700,2.753371826171875,0.0010072370059788227,0.000535428524017334,-0.0012354115024209023
1761341840718437600,2.763437744140625,0.0013861716724932194,0.0015159090980887413,-0.0017341747879981995
1761341840728503800,2.77350390625,0.0009467499330639839,-0.0011187558993697166,-0.0012971502728760242
1761341840738569700,2.78356982421875,-0.0015427623875439167,-0.00012006610631942749,0.00030115386471152306
1761341840748635600,2.7936357421875,5.397014319896698e-7,-0.00004922598600387573,-0.00009059719741344452
1761341840758702800,2.803702880859375,0.0010290415957570076,-0.00040485523641109467,-0.0007318072021007538
1761341840768769000,2.81376904296875,0.00004713423550128937,0.001134186051785946,-0.0010146349668502808
1761341840778835000,2.8238349609375,-0.00028832582756876945,-0.000995277427136898,-0.0011735507287085056
1761341840788901000,2.833901123046875,-0.0007674284279346466,0.001147502101957798,-0.0014680959284305573
1761341840798967000,2.843967041015625,-0.0030471961945295334,0.000026123598217964172,-0.0003258856013417244
1761341840809033200,2.854033203125,0.0013856352306902409,0.0007544979453086853,0.001096508465707302
1761341840819099100,2.86409912109375,0.0022921315394341946,0.0002567470073699951,0.0004598451778292656
1761341840829165300,2.874165283203125,0.0018122298642992973,-0.0002790810540318489,-0.002046988345682621
1761341840839232300,2.884232177734375,0.00023900112137198448,-0.0008789096027612686,0.0020560570992529392
1761341840849298200,2.894298095703125,0.0008619143627583981,0.0023403195664286613,-0.0005338666960597038
1761341840859364000,2.904364013671875,0.0023013013415038586,-0.0022390084341168404,0.0030203177593648434
1761341840869430000,2.914429931640625,0.0013361717574298382,0.0005871374160051346,0.0021433387883007526
1761341840879496200,2.92449609375,0.0016605779528617859,-0.0013944832608103752,-0.002768108155578375
1761341840889562000,2.93456201171875,-0.0010441280901432037,-0.001393151469528675,0.0019238493405282497
1761341840899628300,2.944628173828125,-0.002089635469019413,-0.0024341633543372154,0.0007712617516517639
1761341840909695200,2.9546953125,-0.0002565821632742882,0.00010382942855358124,0.0032962048426270485
1761341840919761200,2.96476123046875,0.00048239901661872864,0.0005621546879410744,-0.001092828344553709
1761341840929827300,2.974827392578125,-0.00021987641230225563,0.0018958663567900658,-0.0003961450420320034
1761341840939893000,2.98489306640625,-0.0015632337890565395,-0.000543009489774704,-0.00015072571113705635
1761341840949959000,2.994958984375,0.002415262395516038,0.0004404960200190544,0.0002855006605386734
1761341840960025000,3.005025146484375,-0.0007283566519618034,-0.0009907186031341553,0.000945760402828455
1761341840970091000,3.015091064453125,-0.0012860228307545185,-0.00020428746938705444,0.0009721252135932446
1761341840980158200,3.025158203125,-0.000025715678930282593,0.002672293223440647,-0.0013754470273852348
1761341840990224100,3.03522412109375,-0.00042039621621370316,-0.0009583933278918266,-0.0016383007168769836
1761341841000290000,3.0452900390625,0.0005958802066743374,0.001422901637852192,-0.000031118281185626984
1761341841010356200,3.055356201171875,-0.0013168021105229855,0.00046496186405420303,0.002047212328761816
1761341841020422100,3.065422119140625,0.0009711938910186291,0.0002370281144976616,-0.00009265169501304626
1761341841030488000,3.075488037109375,0.0010023531503975391,-0.0002625808119773865,0.0002287914976477623
1761341841040554000,3.085553955078125,0.00021504005417227745,-0.0004340456798672676,0.0006980500183999538
1761341841050620200,3.0956201171875,0.001379640307277441,0.0008115153759717941,-0.001358176115900278
1761341841060687000,3.10568701171875,0.0023292689584195614,-0.0002148076891899109,0.00020609470084309578
1761341841070753000,3.1157529296875,0.0020554959774017334,0.0007383376359939575,0.0007770764641463757
1761341841080819200,3.125819091796875,-0.00128477206453681,0.001270241104066372,0.0007326374761760235
1761341841090885000,3.135885009765625,-0.00029034772887825966,-0.0001401696354150772,0.001115067396312952
1761341841100951300,3.145951416015625,0.0015422767028212547,0.0007439618930220604,0.0024713282473385334
1761341841111017200,3.156017333984375,0.001702332403510809,0.000296284444630146,-0.000672533642500639
1761341841121083100,3.166083251953125,-0.0007579256780445576,-0.0016383249312639236,-0.0005811834707856178
1761341841131150000,3.176150146484375,-0.00032889051362872124,-0.0013064956292510033,-0.0009795925579965115
1761341841141216000,3.186216064453125,0.0003831302747130394,-0.00033162813633680344,-0.0007682424038648605
1761341841151282200,3.1962822265625,0.0009897984564304352,-0.0009750472381711006,-0.0009192437864840031
1761341841161348000,3.20634814453125,0.0013570147566497326,-0.0022283149883151054,-0.002249494194984436
1761341841171414000,3.2164140625,0.0004792367108166218,0.0009509669616818428,0.00010820198804140091
1761341841181480200,3.226480224609375,0.0005235583521425724,0.002799294888973236,-0.0023002647794783115
1761341841191546000,3.236546142578125,-0.00014090025797486305,-0.0010263361036777496,-0.00530138099566102
1761341841201613300,3.24661328125,-0.001113757025450468,0.001183951273560524,-0.0012277476489543915
1761341841211679200,3.25667919921875,0.0011126454919576645,-0.0006280634552240372,-0.0017238948494195938
1761341841221745000,3.266744873046875,-0.0008106664754450321,0.00113016739487648,-0.001336345449090004
1761341841231811000,3.27681103515625,0.0010756500996649265,0.0014622630551457405,0.002364915795624256
1761341841241877000,3.286876953125,-0.00032212724909186363,0.001702645793557167,-0.0032206890173256397
1761341841251943200,3.296943115234375,0.00035591376945376396,0.0010014353320002556,-0.0001127799041569233
1761341841262009000,3.307009033203125,-0.00019062170758843422,0.001773785799741745,0.002011030912399292
1761341841272075300,3.3170751953125,0.0003033950924873352,-0.0009351819753646851,0.0013063587248325348
1761341841282142200,3.32714208984375,-0.0005263825878500938,-0.0013760700821876526,-0.001565802376717329
1761341841292208000,3.3372080078125,-0.0014694076962769032,0.0009757671505212784,-0.0025325296446681023
1761341841302274300,3.3472744140625,-0.000852605327963829,0.00046008452773094177,-0.0007081092335283756
1761341841312340000,3.357340087890625,-0.00039028050377964973,-0.000861109234392643,-0.00021462561562657356
1761341841322406100,3.36740625,-0.001465825829654932,-0.0007252264767885208,-0.0018933317624032497
1761341841332472000,3.37747216796875,-0.00009376555681228638,-0.00020031724125146866,0.0005503850989043713
1761341841342538200,3.387538330078125,0.0033649764955043793,-0.004069328308105469,-0.0010933983139693737
1761341841352605200,3.397605224609375,0.0001396220177412033,-0.000009072944521903992,-0.0017362851649522781
1761341841362671000,3.407671142578125,0.0010354472324252129,-0.002111125737428665,0.0008017187938094139
1761341841372737300,3.4177373046875,-0.0021456987597048283,0.0008593648672103882,-0.00009869597852230072
1761341841382803200,3.42780322265625,-0.0013342476449906826,0.00016607530415058136,0.0005996548570692539
1761341841392869000,3.437869140625,-0.0002724453806877136,0.000058749690651893616,0.0011828872375190258
1761341841402935000,3.44793505859375,0.0010813563130795956,-0.0011146320030093193,-0.0013672728091478348
1761341841413001000,3.4580009765625,-0.0015860656276345253,-0.002009187825024128,0.001365663018077612
1761341841423067100,3.468067138671875,0.0006040371954441071,-0.0017165234312415123,-0.000791595783084631
1761341841433134000,3.478134033203125,0.00060670031234622,0.0022148340940475464,0.0022175097838044167
1761341841443200000,3.488199951171875,-0.001140774693340063,-0.0012267595157027245,-0.001076383050531149
1761341841453266200,3.49826611328125,-0.0025581088848412037,-0.0016824258491396904,0.0008922256529331207
1761341841463332000,3.50833203125,-0.00017782347276806831,0.000646849162876606,0.0013509411364793777
1761341841473398300,3.518398193359375,0.00008263392373919487,0.0001347241923213005,-0.0008120783604681492
1761341841483464000,3.5284638671875,-0.00021137436851859093,-0.00043552927672863007,0.00017177825793623924
1761341841493530000,3.538530029296875,-0.000777828972786665,-0.0005082329735159874,-0.0025068288668990135
1761341841503597000,3.54859716796875,-0.0005850447341799736,0.00044392235577106476,0.0026816888712346554
1761341841513663000,3.5586630859375,0.0008157780393958092,0.0001786714419722557,0.0018449234776198864
1761341841523729200,3.568729248046875,-0.00030612386763095856,-0.0033472366631031036,-0.00033925985917449
1761341841533795000,3.578795166015625,0.0001902892254292965,0.0009175492450594902,0.002010713331401348
1761341841543861200,3.588861328125,-0.0006662276573479176,-0.0022320421412587166,0.00044461851939558983
1761341841553927200,3.59892724609375,-0.00014105206355452538,-0.0009417403489351273,-0.00032077357172966003
1761341841563993000,3.6089931640625,-0.0014928788878023624,0.0010787248611450195,0.00009252363815903664
1761341841574059000,3.61905908203125,0.00023498013615608215,0.0010965680703520775,0.0027413037605583668
1761341841584126200,3.629126220703125,0.001470728311687708,-0.0017269710078835487,0.0004284186288714409
1761341841594192100,3.639192138671875,-0.0017607510089874268,-0.0011898111552000046,-0.0016762777231633663
1761341841604258000,3.649258056640625,-0.0004598707892000675,0.0017798179760575294,-0.001114256214350462
1761341841614324000,3.659323974609375,0.0012512104585766792,0.0028674528002738953,-0.00013581058010458946
1761341841624390100,3.66939013671875,-0.0006723534315824509,-0.000170169398188591,-0.0012416131794452667
1761341841634456000,3.6794560546875,0.0035096085630357265,0.0005014799535274506,-0.0004591764882206917
1761341841644522200,3.689522216796875,-0.00230829743668437,0.0017651887610554695,0.0008472087793052197
1761341841654589200,3.699589111328125,0.003348788945004344,-0.0010697469115257263,-0.0005123354494571686
1761341841664655000,3.709655029296875,0.0015323045663535595,-0.0012728553265333176,-0.0013301861472427845
1761341841674721000,3.719720947265625,0.0006843539886176586,0.0001055961474776268,-0.0013118106871843338
1761341841684787000,3.729786865234375,-0.00033869920298457146,-0.0018435018137097359,0.0009512049145996571
1761341841694853000,3.73985302734375,0.0013556038029491901,-0.0022187409922480583,-0.000412866473197937
1761341841704919000,3.7499189453125,0.001332184299826622,-0.0025567784905433655,0.0018657799810171127
1761341841714985200,3.759985107421875,0.0004924894310534,-0.0010169390588998795,-0.00025010108947753906
1761341841725051100,3.770051025390625,-0.0005064303986728191,-0.0029689092189073563,-0.0005948585458099842
1761341841735118000,3.7801181640625,0.0003963811323046684,0.00040584802627563477,-0.0023283101618289948
1761341841745184300,3.790184326171875,0.0004224455915391445,-0.0005810298025608063,0.0004106685519218445
1761341841755250200,3.800250244140625,0.0014514909125864506,-0.0013687927275896072,-0.0020415703766047955
1761341841765315600,3.810315673828125,-0.0014445106498897076,-0.0009403461590409279,-0.00011267280206084251
1761341841775381500,3.820381591796875,0.00014220084995031357,-0.00022635236382484436,0.0006926674395799637
1761341841785447700,3.83044775390625,0.0006857467815279961,-0.00005772523581981659,-0.0013567805290222168
1761341841795513600,3.840513671875,-0.000056209973990917206,0.00005625840276479721,0.0006427206099033356
1761341841805580500,3.85058056640625,0.0010244888253509998,-0.0017346525564789772,-0.0025948723778128624
1761341841815646700,3.860646728515625,-0.00033452222123742104,0.00010266248136758804,-0.00019136955961585045
1761341841825712600,3.870712646484375,-0.0005806940607726574,0.0016671838238835335,0.0015902267768979073
1761341841835778800,3.88077880859375,-0.0002813548780977726,0.00056463573127985,0.0004594484344124794
1761341841845844500,3.890844482421875,0.0016687256284058094,0.000044250860810279846,0.00035061687231063843
1761341841855910700,3.90091064453125,-0.0003137313760817051,-0.0004540262743830681,0.0004603387787938118
1761341841865976600,3.9109765625,0.0012700408697128296,-0.0032201511785387993,-0.0016174898482859135
1761341841876042500,3.92104248046875,0.0014090579934418201,0.0013554254546761513,-0.0021895370446145535
1761341841886109700,3.931109619140625,-0.0005578678101301193,-0.0005089929327368736,-0.0015312782488763332
1761341841896175600,3.941175537109375,-0.0000015334226191043854,-0.00012070406228303909,0.0008575776591897011
1761341841906241500,3.951241455078125,-0.0008031902834773064,0.0014415886253118515,-0.0008258982561528683
1761341841916307700,3.9613076171875,-0.0005581798031926155,-0.00009159371256828308,0.0008281907066702843
1761341841926373600,3.97137353515625,-0.0025177081115543842,-0.00030372757464647293,0.000013623852282762527
1761341841936439600,3.981439453125,0.000038127414882183075,-0.00097750686109066,-0.0005538957193493843
1761341841946505500,3.99150537109375,-0.0012984788045287132,0.0015078596770763397,0.0033330367878079414
1761341841956571600,4.001571533203125,0.0002940911799669266,-0.001534801907837391,-0.00005983049049973488
1761341841966637600,4.011637451171875,0.00013555120676755905,-0.0002055549994111061,0.0006697895005345345
1761341841976704500,4.02170458984375,-0.0005576699040830135,0.00036809034645557404,-0.00356889795511961
1761341841986770700,4.031770751953125,0.0001671425998210907,-0.0010940907523036003,0.0003048684448003769
1761341841996836600,4.041836669921875,0.00018685031682252884,-0.0007646577432751656,-0.0014568124897778034
1761341842006902800,4.05190283203125,0.0011726855300366879,-0.0005790861323475838,0.0015721782110631466
1761341842016968700,4.06196875,-0.0008084401488304138,0.0007522283121943474,0.0013604569248855114
1761341842027034600,4.07203466796875,0.0007419171743094921,0.00035476312041282654,-0.0007229633629322052
1761341842037100500,4.0821005859375,0.0023019970394670963,0.0015630396082997322,0.00213460810482502
1761341842047167500,4.09216748046875,0.0010496964678168297,0.000008190050721168518,-0.0003523603081703186
1761341842057233700,4.102233642578125,0.0012398464605212212,0.0007821042090654373,0.0011089160107076168
1761341842067299600,4.112299560546875,-0.0012455731630325317,0.00036483723670244217,-0.002655643504112959
1761341842077365800,4.12236572265625,0.0008237031288444996,0.0007328856736421585,0.000218972098082304
1761341842087431700,4.132431640625,-0.0010057580657303333,-0.0010985517874360085,-0.0010939300991594791
1761341842097497600,4.14249755859375,0.0014243763871490955,-0.0002681789919734001,0.0007191505283117294
1761341842107563800,4.152563720703125,-0.00009976187720894814,0.00038917362689971924,-0.0014933845959603786
1761341842117629400,4.16262939453125,0.003187111346051097,-0.0010899454355239868,0.00007255421951413155
1761341842127696600,4.172696533203125,-0.00012107985094189644,0.0010469062253832817,-0.00022955471649765968
1761341842137762600,4.182762451171875,0.0005151494406163692,0.0003361087292432785,-0.0015033446252346039
1761341842147828500,4.192828369140625,-0.00005702301859855652,0.00024238508194684982,0.0023232512176036835
1761341842157894700,4.202894775390625,-0.00009057857096195221,0.0007089702412486076,-0.0015684259124100208
1761341842167960600,4.212960693359375,0.0004138834774494171,0.0005384813994169235,-0.002299106679856777
1761341842178026800,4.22302685546875,-0.0010239570401608944,0.0008617890998721123,-0.002558764535933733
1761341842188092700,4.2330927734375,-0.001294727437198162,-0.001720404252409935,0.0020802635699510574
1761341842198158600,4.24315869140625,0.00023472588509321213,-0.00244345236569643,0.0009276475757360458
1761341842208225800,4.253225830078125,-0.00008773896843194962,0.002292330376803875,-0.00046176603063941
1761341842218291500,4.26329150390625,0.001126396469771862,-0.0034502437338232994,-0.0011230288073420525
1761341842228357600,4.273357666015625,-0.0007812422700226307,0.00026435498148202896,-0.0004597376100718975
1761341842238423600,4.283423583984375,-0.0007181251421570778,0.00004677474498748779,0.0008667833171784878
1761341842248489700,4.29348974609375,-0.0017599603161215782,0.0006042970344424248,-0.0006545353680849075
1761341842258555600,4.3035556640625,0.00037376442924141884,0.002491147257387638,-0.002636726014316082
1761341842268621600,4.31362158203125,0.0005369549617171288,-0.00006089732050895691,-0.002760294359177351
1761341842278688800,4.323688720703125,-0.00031152786687016487,-0.00045211613178253174,0.00014015473425388336
1761341842288754700,4.333754638671875,0.0013377591967582703,-0.0012511350214481354,0.0013488736003637314
1761341842298820600,4.343820556640625,0.0002599777653813362,-0.0004338109865784645,0.00021117087453603745
1761341842308886500,4.353886474609375,0.001449289731681347,0.0007922518998384476,-0.0005665197968482971
1761341842318952400,4.363952392578125,0.002576339291408658,-0.00244109146296978,-0.0014855763874948025
1761341842329018600,4.3740185546875,-0.0011251801624894142,-0.0006601931527256966,-0.0010873018763959408
1761341842339084500,4.38408447265625,0.0006221197545528412,0.0006964206695556641,0.0023364578373730183
1761341842349150700,4.394150634765625,0.0024961219169199467,-0.0008576298132538795,0.0010712584480643272
1761341842359217700,4.4042177734375,-0.001618195790797472,-0.0013135625049471855,-0.0015919026918709278
1761341842369283600,4.41428369140625,0.0017511011101305485,0.0005272272974252701,-0.0012618578039109707
1761341842379349800,4.424349853515625,-0.0014167288318276405,-0.0010347170755267143,-0.0016237813979387283
1761341842389416700,4.434416748046875,-0.0011569634079933167,0.0015290109440684319,-0.003806459251791239
1761341842399482600,4.444482666015625,0.0010771621018648148,-0.0011442704126238823,0.0020719366148114204
1761341842409548500,4.454548583984375,0.00011060666292905807,-0.0007283603772521019,0.0012724925763905048
1761341842419614500,4.464614501953125,-0.0010116496123373508,-0.00128868967294693,-0.0002766684629023075
1761341842429680600,4.4746806640625,0.001422045286744833,0.0002355128526687622,-0.0011597410775721073
1761341842439746600,4.48474658203125,-0.002297591883689165,0.0024097170680761337,0.0005183168686926365
1761341842449812700,4.494812744140625,-0.0006071245297789574,0.0002284962683916092,-0.001664311159402132
1761341842459879700,4.504879638671875,-0.0008084597066044807,0.0007456820458173752,0.0015317481011152267
1761341842469945600,4.514945556640625,0.0007145730778574944,0.0014886055141687393,0.0023450185544788837
1761341842480011800,4.52501171875,-0.0012614922598004341,-0.0009489851072430611,0.0019356911070644855
1761341842490077700,4.53507763671875,0.0008260346949100494,-0.00007333606481552124,0.00009795511141419411
1761341842500143600,4.5451435546875,-0.0016757389530539513,-0.00046641845256090164,0.0003757220692932606
1761341842510209500,4.55520947265625,0.00033982936292886734,-0.000559990294277668,-0.00202546501532197
1761341842520275700,4.565275634765625,0.0013177422806620598,0.0018064947798848152,-0.0017069512978196144
1761341842530341600,4.575341552734375,-0.0015310985036194324,-0.0002909209579229355,0.0015120301395654678
1761341842540408600,4.58540869140625,0.0013075652532279491,0.00006194785237312317,-0.0004797480069100857
1761341842550474800,4.595474853515625,0.0010677049867808819,-0.00217241607606411,0.0010479185730218887
1761341842560540700,4.605540771484375,0.000715368427336216,-0.00019768252968788147,-0.0008684922941029072
1761341842570606600,4.615606689453125,0.0018769297748804092,-0.001146748661994934,0.0008918726816773415
1761341842580672500,4.625672607421875,-0.001224054954946041,0.0016948441043496132,-0.0013323989696800709
1761341842590738400,4.635738525390625,0.0008512036874890327,0.0013970620930194855,0.001818978227674961
1761341842600804600,4.6458046875,0.000048792921006679535,-0.0012501198798418045,-0.0009224801324307919
1761341842610871600,4.65587158203125,-0.0003021364100277424,-0.0005798749625682831,0.003314016852527857
1761341842620937500,4.6659375,0.00048109935596585274,-0.0002909218892455101,0.0011478015221655369
1761341842631003600,4.676003662109375,-0.00015385495498776436,0.00024047400802373886,0.0008304906077682972
1761341842641069600,4.686069580078125,-0.00034906482324004173,-0.00007324665784835815,0.000643270555883646
1761341842651135700,4.6961357421875,-0.0011290949769318104,-0.0009113652631640434,-0.002386204432696104
1761341842661201700,4.70620166015625,-0.0006198985502123833,-0.00010069925338029861,0.00014086905866861343
1761341842671267600,4.716267578125,-0.0003786482848227024,0.0003602486103773117,0.002424726728349924
1761341842681333500,4.72633349609375,-0.0027706995606422424,-0.0011276593431830406,-0.00020407931879162788
1761341842691400400,4.736400390625,0.00011463789269328117,-0.0006809597834944725,-0.0007223282009363174
1761341842701466600,4.746466552734375,0.0021927026100456715,-0.0013238461688160896,0.0010657175444066525
1761341842711532500,4.756532470703125,0.0006685466505587101,-0.0006172657012939453,-0.0023599020205438137
1761341842721598700,4.7665986328125,0.0015023821033537388,0.0005302904173731804,-0.0016736052930355072
1761341842731664600,4.77666455078125,-0.00011566327884793282,-0.001107407733798027,0.003168625757098198
1761341842741730800,4.786730712890625,-0.0003494890406727791,-0.0002251025289297104,0.0008205166086554527
1761341842751796700,4.796796630859375,-0.00028244499117136,-0.0002890564501285553,0.0013077887706458569
1761341842761863700,4.80686376953125,-0.000027847010642290115,-0.0021103927865624428,0.0029754596762359142
1761341842771930600,4.8169306640625,-0.001349145546555519,0.0007286975160241127,0.0003738757222890854
1761341842781996800,4.826996826171875,-0.0009113219566643238,-0.001852172426879406,-0.0005595623515546322
1761341842792062700,4.837062744140625,0.001150321215391159,0.00045516621321439743,-0.0011101607233285904
1761341842802129000,4.84712890625,0.0015620458871126175,0.0005398541688919067,0.0024068099446594715
1761341842812194800,4.85719482421875,0.0009001679718494415,0.0007949387654662132,-0.0027530035004019737
1761341842822260700,4.8672607421875,-0.0014231735840439796,0.0006412751972675323,0.0009450614452362061
1761341842832326700,4.87732666015625,0.0004290523938834667,-0.0006764261052012444,0.000029684510082006454
1761341842842393600,4.8873935546875,-0.0010031955316662788,0.0011379849165678024,-0.00043343938887119293
1761341842852459800,4.897459716796875,0.00037281448021531105,0.001165233552455902,0.0034195459447801113
1761341842862525700,4.907525634765625,0.0010532517917454243,0.000027797184884548187,-0.00048704445362091064
1761341842872591600,4.917591552734375,0.00018878746777772903,-0.000612109899520874,0.00020283041521906853
1761341842882657800,4.92765771484375,-0.0011137649416923523,0.0002707280218601227,-0.00013166246935725212
1761341842892723700,4.9377236328125,-0.003581663593649864,0.001567457802593708,-0.005098835565149784
1761341842902790000,4.947789794921875,0.0004503619857132435,-0.0027268892154097557,-0.000014594756066799164
1761341842912856800,4.95785693359375,0.0019718469120562077,-0.0015729041770100594,0.0033776145428419113
1761341842922922800,4.9679228515625,0.0030594822019338608,0.0007690796628594398,-0.0009819800034165382
1761341842932988700,4.97798876953125,0.0005847588181495667,-0.0006711743772029877,-0.00025308411568403244
1761341842943054600,4.9880546875,-0.0005510793998837471,0.00020260922610759735,0.00308678625151515
1761341842953120800,4.998120849609375,-0.0006462461315095425,-0.002321111038327217,0.0009589167311787605
1761341842963186700,5.008186767578125,0.0014619119465351105,0.0002469746395945549,-0.002524763811379671
1761341842973252900,5.0182529296875,0.002257687970995903,-0.0011843368411064148,-0.0010028257966041565
1761341842983318800,5.02831884765625,0.002641183091327548,0.000728079117834568,0.00022569019347429276
1761341842993385700,5.0383857421875,0.0020689978264272213,0.001245027408003807,0.0029726787470281124
1761341843003452000,5.048451904296875,0.000809855293482542,0.00019068177789449692,0.0006554624997079372
1761341843013517800,5.058517822265625,0.0023922547698020935,-0.001069176010787487,0.0023583555594086647
1761341843023583700,5.068583740234375,0.0005557392723858356,0.0027010617777705193,-0.001658489927649498
1761341843033649700,5.078649658203125,-0.0014234818518161774,0.0016956450417637825,-0.0008911211043596268
1761341843043715800,5.0887158203125,0.0005075763911008835,-0.0012351637706160545,-0.0004738038405776024
1761341843053781800,5.09878173828125,0.0012283790856599808,0.0010357005521655083,0.0005834582261741161
1761341843063848700,5.1088486328125,-0.00018815649673342705,-0.0004892256110906601,0.00022952398285269737
1761341843073915000,5.118914794921875,-0.0003385031595826149,0.0008582957088947296,-0.0007107183337211609
1761341843083980800,5.128980712890625,-0.0004737917333841324,-0.0009811492636799812,-0.0010265689343214035
1761341843094046700,5.139046630859375,0.0005303472280502319,-0.0035221511498093605,-0.0005124355666339397
1761341843104113000,5.14911279296875,-0.00004303129389882088,0.0004081418737769127,-0.0006799483671784401
1761341843114178600,5.159178466796875,0.001192301046103239,-0.00003625825047492981,-0.000715725589543581
1761341843124244700,5.16924462890625,-0.00037869764491915703,0.00044790375977754593,-0.0008736513555049896
1761341843134310700,5.179310546875,-0.0013375179842114449,-0.0021003149449825287,-0.000027680769562721252
1761341843144377600,5.189377685546875,0.0010417504236102104,-0.0012904470786452293,0.0017153583467006683
1761341843154443800,5.19944384765625,-0.0009663999080657959,0.0008667735382914543,-0.0008569099009037018
1761341843164509700,5.209509765625,0.0019209994934499264,0.0008097821846604347,0.00013405270874500275
1761341843174575900,5.219575927734375,-0.0022027818486094475,-0.0005332324653863907,-0.0016057607717812061
1761341843184641800,5.229641845703125,0.0022484255023300648,0.0011890344321727753,0.0019825827330350876
1761341843194707700,5.239707763671875,-0.0004902859218418598,-0.0012129442766308784,-0.0026158541440963745
1761341843204773600,5.249773681640625,-0.000464453361928463,0.00023581553250551224,0.0019232374615967274
1761341843214839800,5.25983984375,0.00023126741871237755,-0.00005221366882324219,-0.0026315501891076565
1761341843224906800,5.26990673828125,-0.0010286741890013218,-0.0011904491111636162,-0.00016333209350705147
1761341843234972700,5.27997265625,-0.00022342661395668983,-0.0004350394010543823,-0.0001733526587486267
1761341843245038800,5.290038818359375,0.0012993691489100456,0.00030611827969551086,0.0011582276783883572
1761341843255104800,5.300104736328125,-0.00033408263698220253,0.0005461834371089935,0.0029339524917304516
1761341843265170700,5.310170654296875,0.00020334357395768166,-0.0016969973221421242,0.0001349705271422863
1761341843275236900,5.32023681640625,0.0016228649765253067,-0.0011185798794031143,-0.0008084448054432869
1761341843285302500,5.330302490234375,-0.0004975437186658382,0.0010300586000084877,-0.0008971276693046093
1761341843295370000,5.340369873046875,-0.0006186491809785366,-0.002249855548143387,-0.0015987441875040531
1761341843305435600,5.350435546875,0.002384331077337265,0.0015054680407047272,-0.0002911323681473732
1761341843315501600,5.36050146484375,-0.00007013650611042976,0.00182401854544878,0.000597554724663496
1761341843325567700,5.370567626953125,-0.00035722553730010986,-0.0023555466905236244,0.0010428349487483501
1761341843335633700,5.380633544921875,0.0015278621576726437,-0.00007544923573732376,0.0017707752995193005
1761341843345699800,5.390699951171875,0.00141547666862607,-0.0016642911359667778,-0.001611705869436264
1761341843355765800,5.400765869140625,-0.000860326923429966,-0.0006030499935150146,-0.001183769665658474
1761341843365832000,5.41083203125,-0.0002962695434689522,0.0010273372754454613,0.00023782579228281975
1761341843375899000,5.42089892578125,-0.0032823593355715275,0.0009056543931365013,0.003474351018667221
1761341843385964500,5.430964599609375,0.0004924051463603973,0.00048460811376571655,0.00003274809569120407
1761341843396030700,5.44103076171875,-0.00016280077397823334,0.0004034750163555145,-0.0006953258998692036
1761341843406096600,5.4510966796875,-0.00034522730857133865,-0.0003256984055042267,0.001339862123131752
1761341843416162800,5.461162841796875,0.0003140433691442013,0.001460060477256775,-0.0015054857358336449
1761341843426228700,5.471228759765625,0.001231236383318901,-0.0017985831946134567,-0.00045540137216448784
1761341843436295000,5.481294921875,0.0012005139142274857,0.00012671854346990585,0.00085063511505723
1761341843446361900,5.49136181640625,0.00015708757564425468,0.0004561515524983406,-0.0011635133996605873
1761341843456427800,5.501427734375,-0.00107649527490139,-0.0006436826661229134,0.0019797389395534992
1761341843466494000,5.511493896484375,0.000049223192036151886,0.0008271811529994011,0.0006998232565820217
1761341843476559600,5.5215595703125,0.0008258521556854248,0.0001848991960287094,0.0007818997837603092
1761341843486625800,5.531625732421875,0.0005459538660943508,0.000697823241353035,0.0025273351930081844
1761341843496691700,5.541691650390625,0.00019251415506005287,0.0021209660917520523,-0.000440266914665699
1761341843506757600,5.551757568359375,0.0022346260957419872,-0.00023992639034986496,-0.0004088417626917362
1761341843516823800,5.56182373046875,0.00004622293636202812,0.0005838330835103989,0.00018745427951216698
1761341843526890800,5.571890869140625,-0.000940744299441576,-0.0012878365814685822,-0.0002176128327846527
1761341843536956700,5.581956787109375,-0.00040227314457297325,0.0007708044722676277,-0.003211126197129488
1761341843547022800,5.59202294921875,-0.0003418191336095333,0.0017817402258515358,0.0018414231017231941
1761341843557088800,5.6020888671875,0.0011605541221797466,0.0014226911589503288,-0.0014734393917024136
1761341843567154700,5.61215478515625,-0.0003957971930503845,-0.00022793561220169067,0.0007255328819155693
1761341843577220600,5.622220703125,0.001367589458823204,-0.001179572194814682,-0.001253154594451189
1761341843587286800,5.632286865234375,0.0007697097025811672,0.0015086224302649498,-0.00017057964578270912
1761341843597352700,5.642352783203125,0.003742466913536191,0.0006470382213592529,-0.004078681580722332
1761341843607419600,5.652419677734375,0.001444424968212843,-0.003138379193842411,0.0015629581175744534
1761341843617485800,5.66248583984375,0.0010414011776447296,0.0005267355591058731,0.0006781658157706261
1761341843627551700,5.6725517578125,-0.0021490659564733505,0.0008993111550807953,0.001170051284134388
1761341843637618000,5.682617919921875,0.0009369202889502048,0.00007444899529218674,0.0005794311873614788
1761341843647683800,5.692683837890625,0.0008873855695128441,0.0010172072798013687,-0.0005353684537112713
1761341843657749800,5.702749755859375,0.0018075210973620415,-0.0006028115749359131,-0.0029850206337869167
1761341843667815700,5.712815673828125,0.0013377396389842033,0.0024718083441257477,-0.0014300006441771984
1761341843677882600,5.722882568359375,0.0012372639030218124,-0.0026677483692765236,-0.0008654734119772911
1761341843687948800,5.73294873046875,0.00026174774393439293,-0.0022762631997466087,0.0008408143185079098
1761341843698014700,5.7430146484375,-0.0006590615957975388,-0.0007443586364388466,-0.0011886246502399445
1761341843708081000,5.753080810546875,0.0012219292111694813,-0.00003542564809322357,-0.002551363781094551
1761341843718146800,5.763146728515625,-0.001046119723469019,0.001118157058954239,-0.0007197363302111626
1761341843728212700,5.773212646484375,0.0023339642211794853,0.003178112208843231,-0.0026300218887627125
1761341843738278700,5.783278564453125,-0.001314858440309763,-0.0021069422364234924,-0.0026059444062411785
1761341843748344600,5.793344482421875,-0.00012256158515810966,-0.0008842842653393745,-0.0013217679224908352
1761341843758410800,5.80341064453125,0.0009010564535856247,-0.00026657525449991226,0.00016126222908496857
1761341843768477700,5.813477783203125,-0.0014289431273937225,-0.0005488703027367592,0.0019378568977117538
1761341843778543400,5.82354345703125,-0.000630322378128767,-0.000046125613152980804,-0.002192026935517788
1761341843788609500,5.833609619140625,0.0009047235362231731,0.0008098138496279716,0.002173427026718855
1761341843798675500,5.843675537109375,-0.001343666110187769,0.002705933526158333,-0.0026597408577799797
1761341843808741600,5.85374169921875,-0.00011195428669452667,0.0006329286843538284,0.0020484616979956627
1761341843818807600,5.8638076171875,0.0010208520106971264,-0.0012190891429781914,0.00006227986887097359
1761341843828873700,5.873873779296875,0.000585691537708044,-0.002125362865626812,-0.0020570633932948112
1761341843838940700,5.883940673828125,0.002553280908614397,-0.001166248694062233,0.0006147460080683231
1761341843849006600,5.894006591796875,-0.0024803602136671543,0.0017142267897725105,-0.0007160352542996407
1761341843859072800,5.90407275390625,0.001486768014729023,0.00036156270653009415,-0.0029078121297061443
1761341843869138400,5.914138427734375,0.002297434490174055,0.000992732122540474,-0.0010649044997990131
1761341843879204600,5.92420458984375,0.002300734631717205,0.0029753735288977623,0.00003782613202929497
1761341843889270500,5.9342705078125,0.0006197472102940083,-0.0008657043799757957,-0.0013483492657542229
1761341843899336700,5.944336669921875,-0.0007551801390945911,-0.0004517454653978348,0.0011817929334938526
1761341843909402600,5.954402587890625,0.0001971661113202572,0.0006920816376805305,-0.00028294511139392853
1761341843919469600,5.964469482421875,-0.0016293004155158997,-0.0015726247802376747,0.0002504936419427395
1761341843929535700,5.97453564453125,0.00018351292237639427,0.00047774333506822586,0.0011716815643012524
1761341843939601700,5.9846015625,-0.0024672793224453926,-0.0008825697004795074,0.00045116664841771126
1761341843949667600,5.99466748046875,0.0010057487525045872,-0.00008442066609859467,-0.00002580508589744568
1761341843959733500,6.0047333984375,0.002280184533447027,-0.0022695306688547134,0.0020617167465388775
1761341843969799400,6.01479931640625,0.00042316270992159843,0.0028061876073479652,0.00041082268580794334
1761341843979865600,6.024865478515625,-0.0030616074800491333,0.001953655853867531,-0.0012474078685045242
1761341843989932500,6.0349326171875,0.00012779468670487404,-0.00022933725267648697,0.0013273363001644611
1761341843999998500,6.04499853515625,0.0005090353079140186,0.0013718875125050545,-0.002274259924888611
1761341844010064600,6.055064697265625,-0.0013903314247727394,-0.00028912629932165146,-0.001724050845950842
1761341844020130600,6.065130615234375,0.0004897527396678925,-0.00029465463012456894,-0.0015430301427841187
1761341844030196700,6.07519677734375,0.000841289758682251,0.001479542814195156,-0.0016700630076229572
1761341844040262400,6.085262451171875,0.0027029861230403185,-0.0006987107917666435,-0.000352668110281229
1761341844050328600,6.09532861328125,-0.00012076366692781448,0.0006150268018245697,-0.0006988788954913616
1761341844060394500,6.10539453125,0.0000027241185307502747,0.002507009543478489,0.0034483587369322777
1761341844070461400,6.11546142578125,-0.000669191125780344,0.0012649120762944221,-0.002146409824490547
1761341844080527600,6.125527587890625,0.00031141703948378563,0.002186417579650879,0.000937699805945158
1761341844090593500,6.135593505859375,-0.0009016529656946659,0.0004074256867170334,0.0010138661600649357
1761341844100659700,6.14565966796875,-0.001550871878862381,0.0007843179628252983,-0.0004042568616569042
1761341844110725600,6.1557255859375,0.00024356646463274956,0.0010676775127649307,-0.003154236823320389
1761341844120791600,6.16579150390625,0.0009354925714433193,-0.00011016521602869034,-0.0011589066125452518
1761341844130857500,6.175857421875,0.00019486714154481888,0.0007436443120241165,-0.0009591695852577686
1761341844140923400,6.18592333984375,0.0006578918546438217,0.0012968061491847038,-0.0003905897028744221
1761341844150990600,6.195990478515625,0.001375613734126091,0.00127470213919878,-0.0018920800648629665
1761341844161056500,6.206056396484375,0.0008756653405725956,0.000607319176197052,-0.001350431703031063
1761341844171122400,6.216122314453125,-0.0009547253139317036,0.0011269021779298782,-0.0009139394387602806
1761341844181188600,6.226188720703125,0.0005174190737307072,0.0012760600075125694,0.0013444861397147179
1761341844191254500,6.236254638671875,0.0007371297106146812,-0.001481110230088234,-0.0035594580695033073
1761341844201320700,6.24632080078125,-0.0009492896497249603,0.0009156195446848869,0.0021273833699524403
1761341844211386600,6.25638671875,0.002642515581101179,0.00035156216472387314,-0.0017011770978569984
1761341844221453600,6.26645361328125,0.002433115616440773,0.000267847441136837,0.002013388555496931
1761341844231519700,6.276519775390625,-0.001291581429541111,0.0016849152743816376,-0.0017762896604835987
1761341844241585400,6.28658544921875,-0.0011377949267625809,-0.0008090715855360031,0.0023912745527923107
1761341844251651600,6.296651611328125,0.0009503895416855812,0.00044501107186079025,-0.0015587261877954006
1761341844261717500,6.306717529296875,-0.0009306413121521473,0.0005657756701111794,0.0010976307094097137
1761341844271783700,6.31678369140625,0.001411875244230032,-0.0016020378097891808,0.0009080143645405769
1761341844281849600,6.326849609375,-0.0004208693280816078,0.0016140332445502281,0.00016472488641738892
1761341844291915800,6.336915771484375,-0.0008283331990242004,0.005079337395727634,-0.0015729879960417747
1761341844301982700,6.346982666015625,0.0022714021615684032,0.001963757909834385,0.0016991873271763325
1761341844312048600,6.357048583984375,-0.0014951066114008427,-0.003112493082880974,-0.0007858085446059704
1761341844322114600,6.367114501953125,-0.0008975882083177567,-0.0003817994147539139,0.0001884186640381813
1761341844332180500,6.377180419921875,0.0013405322097241879,0.002415052615106106,0.0004182495176792145
1761341844342246700,6.38724658203125,0.0004444378428161144,-0.0025003189221024513,-0.0022988999262452126
1761341844352312600,6.3973125,0.0017701592296361923,0.00008481182157993317,-0.00029380619525909424
1761341844362378500,6.40737841796875,-0.0008159489370882511,-0.0012085456401109695,-0.0013164780102670193
1761341844372444700,6.417444580078125,-0.0015840050764381886,-0.0007310407236218452,0.0006001987494528294
1761341844382511600,6.42751171875,0.0006235046312212944,0.0007273154333233833,0.0018978668376803398
1761341844392577500,6.43757763671875,-0.00013230042532086372,-0.0020042890682816505,0.00016761105507612228
1761341844402643700,6.447643798828125,-0.0005906019359827042,-0.001550900749862194,0.0010376223362982273
1761341844412709400,6.45770947265625,0.0013505765236914158,-0.0005431612953543663,-0.0003056763671338558
1761341844422775600,6.467775634765625,0.0013698250986635685,-0.0010286066681146622,0.0021714000031352043
1761341844432841500,6.477841552734375,0.001504847314208746,0.00014478247612714767,-0.0011093481443822384
1761341844442907600,6.48790771484375,-0.00047576893121004105,0.0018813591450452805,0.0005974257364869118
1761341844452973600,6.4979736328125,-0.0010648597963154316,-0.002206326462328434,-0.00005824444815516472
1761341844463040500,6.50804052734375,-0.001465754583477974,0.000863303430378437,0.00014602858573198318
1761341844473106700,6.518106689453125,-0.0010721394792199135,0.0012734299525618553,0.000058144330978393555
1761341844483172600,6.528172607421875,-0.002366210799664259,-0.0026403022930026054,-0.001468404196202755
1761341844493238800,6.53823876953125,0.0002215830609202385,-0.00022588111460208893,-0.00026758480817079544
1761341844503304400,6.548304443359375,-0.0011627580970525742,-0.0009742705151438713,0.0010874303989112377
1761341844513370600,6.55837060546875,0.0003232858143746853,-0.001117815263569355,-0.002710237167775631
1761341844523436500,6.5684365234375,0.00026279082521796227,0.001497691497206688,0.0011124401353299618
1761341844533503500,6.57850341796875,0.0003520064055919647,0.00020552519708871841,-0.0024585919454693794
1761341844543569700,6.588569580078125,-0.0007899818010628223,-0.0015407521277666092,0.0013894676230847836
1761341844553635600,6.598635498046875,-0.0009481734596192837,0.0005322527140378952,0.0010280762799084187
1761341844563701500,6.608701416015625,-0.0005324641242623329,-0.0015945350751280785,-0.0021885735914111137
1761341844573767700,6.618767578125,-0.0015804176218807697,-0.0002182135358452797,0.001356626395136118
1761341844583833600,6.62883349609375,0.0004522101953625679,-0.0013397950679063797,0.001931766513735056
1761341844593899500,6.6388994140625,0.0000735083594918251,0.0003933906555175781,-0.0019963961094617844
1761341844603965400,6.64896533203125,0.0012919176369905472,-0.0015934733673930168,0.0005907593294978142
1761341844614032400,6.659032470703125,-0.0012023993767797947,0.0014776838943362236,-0.00024227751418948174
1761341844624098600,6.6690986328125,0.0004519098438322544,0.001334075815975666,-0.0018449830822646618
1761341844634164500,6.67916455078125,0.0012191664427518845,-0.0022665178403258324,0.0023580179549753666
1761341844644230700,6.689230712890625,0.0006679445505142212,0.0011510858312249184,0.00230737728998065
1761341844654296600,6.699296630859375,-0.00030171219259500504,-0.0013000881299376488,0.0005427668802440166
1761341844664362800,6.70936279296875,0.0007763965986669064,0.00046319887042045593,-0.0007509081624448299
1761341844674428400,6.719428466796875,0.0006008944474160671,0.002790801227092743,-0.0019892780110239983
1761341844684494600,6.72949462890625,0.000010342337191104889,-0.0002814466133713722,-0.000055612530559301376
1761341844694561500,6.7395615234375,0.0020463289692997932,0.00045944470912218094,-0.00047985417768359184
1761341844704627500,6.74962744140625,0.00044119125232100487,0.0004985155537724495,-0.0017270054668188095
1761341844714693600,6.759693603515625,-0.0015676314942538738,-0.0010016430169343948,-0.00032325321808457375
1761341844724759600,6.769759521484375,-0.00037358514964580536,-0.0018326109275221825,-0.0018380163237452507
1761341844734825700,6.77982568359375,0.001452811062335968,0.0002747485414147377,0.0018190364353358746
1761341844744891600,6.7898916015625,0.0002942662686109543,0.0007018018513917923,-0.001193552277982235
1761341844754957600,6.79995751953125,0.0013496773317456245,-0.00015626847743988037,0.0010256594978272915
1761341844765023500,6.8100234375,-0.0011764871887862682,-0.000040572136640548706,0.0003643035888671875
1761341844775090200,6.820090087890625,-0.0014641089364886284,-0.0012368643656373024,0.00011662952601909637
1761341844785156400,6.83015625,0.00015125423669815063,0.0002948036417365074,-0.00035661784932017326
1761341844795222300,6.84022216796875,0.0004370114766061306,0.0008306317031383514,0.0006151697598397732
1761341844805288200,6.8502880859375,0.0006796326488256454,0.000002671964466571808,-0.0022936188615858555
1761341844815354400,6.860354248046875,0.001341428142040968,-0.000923842191696167,0.0013072416186332703
1761341844825420300,6.870420166015625,0.0008982177823781967,-0.0004682578146457672,0.0004460080526769161
1761341844835486500,6.880486572265625,0.00018848571926355362,0.0006832936778664589,-0.002425944432616234
1761341844845552400,6.890552490234375,0.0007734084501862526,0.0012964420020580292,0.0002116854302585125
1761341844855619300,6.900619384765625,0.00047167250886559486,-0.0011611226946115494,0.00032034190371632576
1761341844865685200,6.910685302734375,0.002933888928964734,-0.0005995975807309151,0.00031266966834664345
1761341844875751200,6.920751220703125,0.002584748435765505,-0.0011791018769145012,0.0021068411879241467
1761341844885817300,6.9308173828125,-0.00010102475062012672,0.002293722704052925,-0.0015236246399581432
1761341844895883300,6.94088330078125,-0.00015961425378918648,0.00004441756755113602,0.0019597895443439484
1761341844905949400,6.950949462890625,0.0011234520934522152,-0.0033176885917782784,0.001448695082217455
1761341844916015400,6.961015380859375,0.002358892699703574,0.00034921709448099136,-0.00005679018795490265
1761341844926082300,6.971082275390625,-0.00017666257917881012,0.0007867338135838509,0.0008964929729700089
1761341844936148500,6.9811484375,-0.00034896936267614365,-0.001432744786143303,0.00046479422599077225
1761341844946214400,6.99121435546875,0.002151128835976124,-0.0008850526064634323,0.002852711360901594
1761341844956280300,7.0012802734375,0.0009883926250040531,0.00000257883220911026,-0.0006919554434716702
1761341844966346200,7.01134619140625,-0.0021164552308619022,-0.0024721212685108185,-0.0012811245396733284
1761341844976412400,7.021412353515625,-0.0006306781433522701,0.00004696287214756012,-0.0005847080610692501
1761341844986478300,7.031478271484375,-0.0008544363081455231,-0.002321491949260235,0.0008762064389884472
1761341844996544300,7.041544189453125,0.001331220380961895,0.0004950668662786484,0.0018261554650962353
1761341845006611500,7.051611572265625,0.0025379396975040436,0.00020838715136051178,-0.0009936834685504436
1761341845016677400,7.061677490234375,0.000005806330591440201,-0.0005197208374738693,-0.0009790360927581787
1761341845026743300,7.071743408203125,0.00014491425827145576,0.0028965454548597336,0.0002656513825058937
1761341845036809500,7.0818095703125,-0.00014936504885554314,0.0013734828680753708,-0.003867308609187603
1761341845046875100,7.091875244140625,-0.0012327535077929497,-0.0016684029251337051,-0.00026603369042277336
1761341845056941300,7.10194140625,0.000708690844476223,-0.00012616626918315887,0.0003904360346496105
1761341845067007200,7.11200732421875,-0.00127026392146945,0.0003785043954849243,-0.0003269864246249199
1761341845077073400,7.122073486328125,-0.0010782498866319656,-0.0011794446036219597,0.00372048607096076
1761341845087140400,7.132140380859375,-0.0005375193431973457,-0.0002179732546210289,0.00006440142169594765
1761341845097206300,7.142206298828125,0.0001288037747144699,-0.0019567515701055527,0.0008766651153564453
1761341845107272400,7.1522724609375,0.0009111328981816769,-0.0017022863030433655,-0.00042955344542860985
1761341845117338400,7.16233837890625,0.0013524186797440052,0.0026490529999136925,0.0018834024667739868
1761341845127404300,7.172404296875,0.001326683908700943,0.0017401883378624916,-0.0010144351981580257
1761341845137470200,7.18247021484375,-0.0011575128883123398,0.0005545485764741898,-0.00018858909606933594
1761341845147536400,7.192536376953125,0.0005135261453688145,0.0006873058155179024,0.001337698195129633
1761341845157602300,7.202602294921875,0.0008187247440218925,-0.0008293651044368744,0.00048761675134301186
1761341845167669200,7.212669189453125,0.0012336582876741886,0.0013146111741662025,0.0008482998237013817
1761341845177735400,7.2227353515625,-0.0012654517777264118,-0.003390396013855934,0.0013729427009820938
1761341845187801300,7.23280126953125,0.0012690532021224499,0.0010068956762552261,0.0009129284881055355
1761341845197867500,7.242867431640625,0.004154321737587452,0.0008705416694283485,-0.0018074903637170792
1761341845207933400,7.252933349609375,-0.00007463619112968445,-0.00015851296484470367,-0.0009171431884169579
1761341845217999000,7.2629990234375,0.0018199365586042404,-0.0017726551741361618,0.00126718170940876
1761341845228065300,7.273065185546875,0.0005741743370890617,-0.0009284159168601036,0.0008014044724404812
1761341845238132200,7.28313232421875,0.0013685952872037888,-0.0003702174872159958,0.00039074523374438286
1761341845248198100,7.2931982421875,0.001474352553486824,-0.003190038725733757,0.0019424958154559135
1761341845258264300,7.303264404296875,0.0015201587229967117,0.0017232270911335945,0.000969909131526947
1761341845268330200,7.313330322265625,-0.001535284798592329,0.001688830554485321,-0.0012937881983816624
1761341845278396400,7.323396484375,-0.003802965860813856,-0.000749293714761734,-0.0009835297241806984
1761341845288462300,7.33346240234375,-0.000669713132083416,-0.0009955177083611488,0.00048443209379911423
1761341845298528500,7.343528564453125,-0.00010805251076817513,0.0015310226008296013,0.0004852311685681343
1761341845308594200,7.35359423828125,-0.0006960923783481121,0.00004701223224401474,0.002146898303180933
1761341845318661000,7.3636611328125,0.0003507961519062519,0.00027311500161886215,-0.0020092306658625603
1761341845328727300,7.373727294921875,-0.0014286921359598637,-0.000963001511991024,0.0011395043693482876
1761341845338793200,7.383793212890625,0.0002887807786464691,0.0006002737209200859,-0.0022677439264953136
1761341845348859400,7.393859375,0.00039895670488476753,-0.00012230873107910156,0.001433064229786396
1761341845358925300,7.40392529296875,0.0022120364010334015,0.00025665946304798126,0.0003670006990432739
1761341845368991500,7.413991455078125,0.00043593719601631165,0.0015891287475824356,-0.003825792111456394
1761341845379057400,7.424057373046875,0.0020945537835359573,-0.00041010603308677673,0.002232632599771023
1761341845389123300,7.434123291015625,-0.0014447378925979137,-0.0011628726497292519,-0.00036916835233569145
1761341845399190500,7.4441904296875,0.0006082928739488125,0.0027810027822852135,-0.0011915522627532482
1761341845409256200,7.454256103515625,0.0014967299066483974,0.0007277056574821472,-0.001955485437065363
1761341845419322400,7.464322265625,0.0012738234363496304,-0.00004407856613397598,0.00034228991717100143
1761341845429388300,7.47438818359375,-0.0011227475479245186,-0.0011433903127908707,0.00010358728468418121
1761341845439454200,7.4844541015625,-0.0001821191981434822,0.001202322542667389,-0.0016008359380066395
1761341845449520400,7.494520263671875,0.00048432452604174614,-0.00264954287558794,-0.0015218541957437992
1761341845459586300,7.50458642578125,-0.0014565871097147465,-0.0014063790440559387,0.002727485727518797
1761341845469652500,7.514652587890625,-0.0007242029532790184,-0.0007609371095895767,-0.0020101889967918396
1761341845479719400,7.524719482421875,-0.0013148919679224491,-0.002212359569966793,7.636845111846924e-7
1761341845489785300,7.534785400390625,-0.0016041831113398075,0.0005814526230096817,0.0026800273917615414
1761341845499851300,7.544851318359375,0.0004560379311442375,-0.0005498584359884262,0.0011710799299180508
1761341845509917200,7.554917236328125,0.0020327395759522915,0.00046516675502061844,-0.002715610433369875
1761341845519983400,7.5649833984375,-0.000032009556889533997,0.0003783479332923889,-0.0006055878475308418
1761341845530049300,7.57504931640625,-0.0010697515681385994,-0.0037072906270623207,-0.001568187028169632
1761341845540115500,7.585115478515625,-0.0002580201253294945,0.00015828758478164673,-0.0010957424528896809
1761341845550182400,7.595182373046875,0.0014835908077657223,0.001056864857673645,-0.001614794135093689
1761341845560248300,7.605248291015625,0.000033233314752578735,-0.0011836523190140724,0.0002390318550169468
1761341845570314500,7.615314453125,-0.0004898011684417725,0.0005199043080210686,-0.0013661626726388931
1761341845580380400,7.62538037109375,-0.000306042842566967,-0.0016439147293567657,0.0015806248411536217
1761341845590446300,7.6354462890625,0.0014239768497645855,-0.00037659890949726105,0.0009332508780062199
1761341845600512300,7.64551220703125,-0.00251963222399354,0.0015288926661014557,-0.0013038041070103645
1761341845610578200,7.655578125,0.0012809457257390022,-0.003171074204146862,0.0006607389077544212
1761341845620644400,7.665644287109375,-0.001560913398861885,0.002368566580116749,-0.0014777793549001217
1761341845630711300,7.675711181640625,-0.0012391875497996807,0.0009606620296835899,-0.0007774154655635357
1761341845640777500,7.685777587890625,-0.0014431853778660297,-0.0004124641418457031,-0.0010887389071285725
1761341845650843400,7.695843505859375,-0.0006051240488886833,-0.000031509436666965485,-0.001710943877696991
1761341845660909300,7.705909423828125,-0.0005595837719738483,-0.002068295143544674,0.001225723884999752
1761341845670975500,7.7159755859375,0.0024269421119242907,0.00002730824053287506,0.0022534867748618126
1761341845681041200,7.726041259765625,-0.000041808001697063446,0.0004124017432332039,-0.0025279526598751545
1761341845691107300,7.736107421875,0.0003363979049026966,0.000044830143451690674,-0.00032710516825318336
1761341845701173200,7.74617333984375,0.0007952605374157429,-0.0001301392912864685,0.000342679675668478
1761341845711240200,7.756240234375,0.00032446952536702156,-0.0018503237515687943,-0.00030044326558709145
1761341845721306400,7.766306396484375,0.001265097875148058,-0.0002207355573773384,-0.0022184522822499275
1761341845731372300,7.776372314453125,-0.0006369403563439846,-0.001227925531566143,-0.0009458018466830254
1761341845741438500,7.7864384765625,-0.0005229571834206581,0.00038861390203237534,0.00010508159175515175
1761341845751504400,7.79650439453125,0.00013474328443408012,0.0013149678707122803,0.0011393558233976364
1761341845761570300,7.8065703125,-0.0005875062197446823,-0.0007841354236006737,-0.0004992866888642311
1761341845771636200,7.81663623046875,-0.0007274262607097626,-0.0014676107093691826,0.0037367986515164375
1761341845781702400,7.826702392578125,0.0011359876953065395,-0.0016297968104481697,0.0021434295922517776
1761341845791769300,7.836769287109375,-0.002132043242454529,-0.0007313070818781853,0.0026262984611094
1761341845801835300,7.846835205078125,0.0012616226449608803,0.00024767033755779266,0.0004664747975766659
1761341845811901200,7.856901123046875,-0.001504426822066307,0.001598854549229145,0.002065515611320734
1761341845821967000,7.866967041015625,-0.0015326561406254768,-0.0012483308091759682,0.0035017584450542927
1761341845832033300,7.877033203125,0.00010089157149195671,-0.0002189967781305313,0.0007055331952869892
1761341845842099200,7.88709912109375,0.000501963309943676,-0.0014704158529639244,0.0009758439846336842
1761341845852165000,7.8971650390625,0.00198834715411067,0.0010382942855358124,-0.0010559838265180588
1761341845862231300,7.907231201171875,0.002859999891370535,-0.002382536418735981,0.0006010346114635468
1761341845872298200,7.91729833984375,0.0014248695224523544,-0.0003603370860219002,0.0036641480401158333
1761341845882364200,7.9273642578125,-0.000024422537535429,0.0003696354106068611,0.00007394049316644669
1761341845892430300,7.937430419921875,-0.0013008019886910915,-0.000580446794629097,0.001882349606603384
1761341845902496000,7.94749609375,-0.002529850695282221,0.0009876219555735588,0.0007768715731799603
1761341845912562200,7.957562255859375,-0.0006988914683461189,0.002398192882537842,0.001377900131046772
1761341845922628000,7.967628173828125,0.00016876636072993279,0.00497240386903286,0.0008268924430012703
1761341845932694300,7.9776943359375,0.0002756556496024132,-0.032681070268154144,-0.012631265446543694
1761341845942760200,7.98776025390625,0.0020618378184735775,0.0008220290765166283,0.000812105368822813
1761341845952827100,7.9978271484375,-0.0010803448967635632,-0.0028645433485507965,0.00001230509951710701
1761341845962893300,8.007893310546875,-0.0007490473799407482,-0.0047418056055903435,0.0011694482527673244
1761341845972959200,8.017959228515625,-0.0023705707862973213,-0.004284311085939407,-0.0021478943526744843
1761341845983025400,8.028025390625,-0.0007082256488502026,0.0005077812820672989,-0.0025420421734452248
1761341845993091000,8.038091064453125,0.0018471423536539078,-0.003012285567820072,0.0007906733080744743
1761341846003157200,8.0481572265625,0.0023430229630321264,-0.00042182859033346176,-0.0004700669087469578
