time,seconds_elapsed,z,y,x
1761340654494972200,0.08297216796875,0.6339303559780121,-0.18817272079400718,0.32871063390560445
1761340654505039000,0.0930390625,0.7517781522452831,-0.15160985368080437,0.1685785241384059
1761340654515106300,0.103106201171875,0.7647533691525459,-0.0515835453081876,0.14749620781689882
1761340654525173200,0.11317333984375,0.7896329588651657,0.002546798405982554,0.23975889645069837
1761340654535240200,0.123240234375,0.8927946426540613,-0.03207896316479891,0.19549027726575732
1761340654545308200,0.13330810546875,0.7052636538296938,-0.1126210380623117,0.21046777390614152
1761340654555375000,0.143375,0.11091536665558814,-0.09450644897259772,0.07822568771392106
1761340654565442000,0.153442138671875,-0.42016602474451065,0.09203699011914432,-0.23711444635652004
1761340654575509000,0.163509033203125,-0.5344394696563481,0.23698881068285554,-0.4372266112692654
1761340654585576400,0.173576416015625,-0.2955968112677336,0.2692629676261917,-0.4216490298438817
1761340654595643600,0.1836435546875,0.20314123041033744,0.19044767998866735,-0.16338818895369767
1761340654605710600,0.193710693359375,0.7729074495136737,-0.00524254029598087,0.2143427156433463
1761340654615778600,0.203778564453125,1.2068985859930514,-0.15815717469872906,0.5542472359973937
1761340654625845500,0.213845458984375,1.263064125329256,-0.20923247822383417,0.740245973753184
1761340654635912400,0.223912353515625,0.9965800112992524,-0.16059512416906654,0.681083444558084
1761340654645979400,0.2339794921875,0.8421504970878362,-0.02598933191965334,0.5231164769355208
1761340654656046300,0.24404638671875,0.8585153564333915,0.09021307176076807,0.36772114989925175
1761340654666113300,0.25411328125,0.9068307667911052,0.09005589930452405,0.2621519300445914
1761340654676181500,0.264181396484375,0.9069956019639969,-0.005675027128844522,0.23527835350316018
1761340654686248400,0.27424853515625,0.81077394657135,-0.09432049794644116,0.11858893349077552
1761340654696315600,0.284315673828125,0.5305787025749683,-0.10562802823665551,-0.23541860222406685
1761340654706382600,0.294382568359375,-0.042186113822460174,-0.08621691479668953,-0.799306942269951
1761340654716449500,0.304449462890625,-0.17861878357231617,-0.08172991470890119,-1.0840076079268008
1761340654726516500,0.3145166015625,0.24497137040197847,-0.13857714356579817,-1.1062133753202854
1761340654736584400,0.32458447265625,1.0063976409584283,-0.21193291455525903,-0.8525405198074877
1761340654746651400,0.3346513671875,1.9104910917401312,-0.22780896747056392,-0.4375493769502267
1761340654756718300,0.34471826171875,2.7885055138915775,-0.2130283451091498,0.0991590605514124
1761340654766785300,0.354785400390625,3.5111177774071693,-0.326384638643451,0.5598089983103797
1761340654776852500,0.3648525390625,3.956401292273402,-0.42782169059682634,0.7237202247574925
1761340654786919400,0.37491943359375,4.194073737838864,-0.3837250304453075,0.786156953317672
1761340654796987600,0.384987548828125,4.112268145811558,-0.41384800070412453,0.4846521601151675
1761340654807054600,0.3950546875,4.257856181919575,-0.3701167763315141,0.1711318436167203
1761340654817121500,0.40512158203125,4.614931836500763,-0.2102640497612767,0.08435142231890931
1761340654827188500,0.4151884765625,4.907333651119471,-0.07423943108934909,-0.004230568508151919
1761340654837255400,0.42525537109375,5.117599618843197,-0.026341341961408034,-0.14449147304296492
1761340654847322400,0.435322265625,5.188811920663714,0.062210253727389496,-0.338837987101078
1761340654857390300,0.445390380859375,5.194996746778488,0.19750790069848298,-0.593397087396495
1761340654867457300,0.455457275390625,5.3682426051408045,0.4699325106933713,-0.8214447589937597
1761340654877524500,0.4655244140625,5.313485179036856,0.9272891059953718,-0.9795932206630706
1761340654887591400,0.47559130859375,4.96378852879107,1.5518959725067019,-0.8074378609512001
1761340654897658400,0.485658447265625,4.151067539805173,2.096479235036671,-0.19225531393252313
1761340654907725300,0.495725341796875,3.153812990245223,2.3480158091731367,0.7316041098751127
1761340654917793500,0.50579345703125,2.1739988203078506,2.527276836171746,1.5125477124586701
1761340654927860500,0.515860595703125,0.9135036686837673,2.5879256584018466,2.058599001714587
1761340654937927400,0.525927490234375,-0.7317021634221077,2.044135592076182,2.557432320460677
1761340654947994400,0.535994384765625,-3.4449802946329116,0.7371706579610705,2.6480381817981598
1761340654958061600,0.5460615234375,-7.311608377000689,-1.0690893671929835,2.5604373474955557
1761340654968128500,0.55612841796875,-11.982883447492123,-2.0555309924460947,1.699997745001316
1761340654978196500,0.566196533203125,-16.27999378143549,-1.7474800655357539,0.4735526008866727
1761340654988263400,0.576263427734375,-21.044644470238683,-0.9095601917549967,-0.4100144869558513
1761340654998330400,0.586330322265625,-25.014085861349105,0.2944098847717978,-1.6514866659410297
1761340655008397300,0.596397216796875,-26.52163795747757,1.6428642374157905,-4.042197122980654
1761340655018464500,0.606464599609375,-25.203550448584554,2.001564424458891,-6.504302983322739
1761340655028531500,0.616531494140625,-21.84368121726513,0.859509482037276,-7.530048298829794
1761340655038598700,0.6265986328125,-17.518476423215866,-0.49018707095384595,-7.305323597642779
1761340655048666400,0.636666259765625,-12.778508924770355,-1.2438346703328191,-6.547522531846165
1761340655058733600,0.646733642578125,-8.259520511242746,-2.096154386996478,-5.685923822444677
1761340655068800500,0.656800537109375,-4.370526283288002,-3.0792557619109746,-4.456837370041012
1761340655078867500,0.666867431640625,-1.2456950573772192,-4.047878383487463,-3.38061245187968
1761340655088934400,0.676934326171875,0.7559943086355925,-4.983940505459905,-3.1224627432137724
1761340655099001300,0.68700146484375,1.848450522890687,-4.432863789257407,-3.355181658025086
1761340655109069300,0.6970693359375,2.061668910679221,-2.3115470500841737,-1.759530714944005
1761340655119136300,0.70713623046875,0.8228758877754211,-1.4427747957915067,1.0511816623196004
1761340655129203500,0.717203369140625,-0.7153145077228545,-0.25167905134707685,3.1541233713686463
1761340655139270700,0.727270751953125,-1.449309165996313,0.7887994306504726,3.427485262213647
1761340655149337600,0.737337646484375,-2.2545324927031993,1.0172921060688793,2.9113725996255875
1761340655159404500,0.747404541015625,-2.1280869639605284,1.5128085553519426,2.1148951816931367
1761340655169472500,0.757472412109375,-1.064178214275837,1.8118591603353618,1.9144747545488177
1761340655179539500,0.76753955078125,0.984894834202528,1.7667348011039197,2.6723566304966804
1761340655189606400,0.7776064453125,3.675906188547611,2.041420049507171,3.6766049844667315
1761340655199673300,0.78767333984375,6.152609021779894,2.102519684244692,4.144383531996607
1761340655209740300,0.797740234375,8.16535228124857,1.921929600599408,4.259574384014308
1761340655219807500,0.807807373046875,9.633201312541962,1.8548536679312586,4.171014933812618
1761340655229875500,0.81787548828125,10.46828084833026,1.9219307696431873,4.092360499292612
1761340655239942700,0.827942626953125,10.900132634693383,1.6614342055901885,3.8202608834683893
1761340655250009600,0.838009521484375,11.224805318319797,1.2112717595759779,3.2440856741055843
1761340655260076500,0.84807666015625,11.580596778309344,0.7989020877961069,2.5627728047057983
1761340655270143500,0.8581435546875,11.947706920170784,0.36811625016406174,1.8918315455861388
1761340655280210400,0.86821044921875,11.576654762685298,0.19184366439171135,1.837582069004327
1761340655290278400,0.8782783203125,11.53347496165037,-1.0088571629397571,1.7588338187210262
1761340655300345300,0.888345458984375,12.089126146161556,-1.427238496224582,0.8419305707268416
1761340655310412300,0.898412353515625,12.786878109186887,-0.799052894443646,-0.3211116301439702
1761340655320479500,0.9084794921875,13.051111229419707,-0.5548647103086114,-1.0407488233715294
1761340655330546400,0.91854638671875,13.033773141127824,-0.8257618184752762,-1.2657178547084331
1761340655340613400,0.92861328125,12.625993135225771,-1.1934557515740394,-1.1787466235462576
1761340655350680300,0.938680419921875,11.670732391786574,-1.5945618326701223,-1.225314897975698
1761340655360748500,0.94874853515625,10.632303535795211,-1.6642337731808423,-1.2561946779511868
1761340655370815500,0.9588154296875,9.696405079951882,-1.5895879897803067,-1.0513866103071718
1761340655380882400,0.96888232421875,8.855632300958037,-1.7152262937933205,-0.7528360638003796
1761340655390949400,0.978949462890625,8.084983444026111,-1.7981629356771707,-0.5140432724354789
1761340655401016600,0.9890166015625,7.289855979397893,-1.7983320086337624,-0.40446565718967464
1761340655411083500,0.99908349609375,6.493527322286367,-1.843977761390805,-0.4541085532914847
1761340655421151500,1.0091513671875,5.886577327692509,-1.8657685913078486,-0.5128694063505157
1761340655431218400,1.019218505859375,5.604834854254126,-1.8567460575491188,-0.5383358560403808
1761340655441285400,1.029285400390625,5.592729990440607,-1.7378621962323784,-0.5970199175361544
1761340655451352300,1.039352294921875,5.475965897756814,-1.3441069162905215,-0.7047084310997277
1761340655461419300,1.049419189453125,4.5733834360599515,-0.7655323907010256,-0.3823672226281836
1761340655471486500,1.059486572265625,2.609866856575012,-0.16818525050450114,0.540649284081906
1761340655481554400,1.069554443359375,0.7773398790031671,0.6787514214139432,0.20519414435215294
1761340655491621400,1.079621337890625,-1.917127168753743,1.767481381687522,-0.24649437871817498
1761340655501688600,1.0896884765625,-5.763267758888006,2.609995451390743,-0.7512805779866873
1761340655511755500,1.099755615234375,-8.008042827686667,3.024239684870839,-1.6793325581133365
1761340655521822500,1.109822509765625,-9.123502316388487,1.4472208154149353,-0.623313831026107
1761340655531889400,1.119889404296875,-10.87197621526718,-1.739180731485039,1.659278342730552
1761340655541957400,1.129957275390625,-15.17218100809455,-2.5082804592788217,2.413172756477445
1761340655552024300,1.1400244140625,-21.71316449356079,-0.255145832408499,1.2324058060847223
1761340655562091300,1.15009130859375,-28.660620993983745,2.341880082897097,-0.06108584367418661
1761340655572158500,1.160158447265625,-36.01136486506462,4.749472116632759,-0.603821268114075
1761340655582225700,1.1702255859375,-41.61654634079933,6.952925287222862,-1.0151010257653892
1761340655592291300,1.180291259765625,-41.968222766685486,7.796728227692842,-2.724895503768325
1761340655602359300,1.190359375,-34.50538863995075,5.755972341182828,-4.155063623704016
1761340655612426500,1.200426513671875,-23.81487607629299,2.1485506369270384,-4.380687027296424
1761340655622493400,1.210493408203125,-14.68537598079443,-0.7369475167296826,-4.532742505852878
1761340655632560400,1.220560302734375,-8.40925689920187,-2.777874229761958,-5.077290404808521
1761340655642627600,1.230627685546875,-4.4692999612510205,-3.7609865644618865,-5.442416094854473
1761340655652694500,1.240694580078125,-1.976522191530466,-3.657105041965842,-4.858970894488692
1761340655662761500,1.250761474609375,-0.24724749864041803,-3.0307249552369115,-3.2829373828083277
1761340655672829400,1.260829345703125,0.7418950561344623,-2.1935507852569223,-1.4520619718357919
1761340655682896400,1.270896484375,1.3548527667105197,-1.1775726843960583,-0.08379519494194537
1761340655692963300,1.28096337890625,2.3303052343070507,-0.05934175821952521,0.9111633891679346
1761340655703030300,1.2910302734375,3.5041438467413184,0.6480121458876877,1.802488982182741
1761340655713097200,1.30109716796875,4.623122741740942,0.9589802754189819,2.713153043526411
1761340655723164400,1.311164306640625,5.406413638103008,1.1511723148569464,3.5690777989447113
1761340655733232400,1.321232421875,5.912129117578267,0.9622902036845683,3.787830732245743
1761340655743299600,1.331299560546875,6.412486284890771,0.36091943399515003,3.2752278313443064
1761340655753366500,1.341366455078125,7.166595510432123,-0.757209602709487,2.1495544071421024
1761340655763433500,1.35143359375,8.236932831859589,-2.0804409772969783,1.1909452300578356
1761340655773500400,1.36150048828125,9.096133832469581,-3.656459145277738,-0.5432256373759359
1761340655783567400,1.3715673828125,9.581802549216151,-3.3002719639688727,-1.2141336518131196
1761340655793635300,1.38163525390625,10.137252073675393,-1.5231040316559374,-0.33021256290115414
1761340655803702300,1.391702392578125,11.14982752648592,-0.4881555285936221,0.3009006898295134
1761340655813769200,1.401769287109375,12.336549585890769,-0.3368200714074075,1.0217921209018677
1761340655823836400,1.41183642578125,13.319971424931287,-0.22608305699340997,1.7086580213189124
1761340655833903400,1.4219033203125,13.998050719237327,-0.01814882015287876,1.7302314090929924
1761340655843970300,1.43197021484375,14.453152448284625,-0.07763057136498391,1.4056103095233439
1761340655854037500,1.44203759765625,14.66849498862028,-0.38645175199545917,0.9538729423426091
1761340655864105500,1.45210546875,14.64803672248125,-0.6339206383015961,0.6013816929422319
1761340655874172400,1.46217236328125,14.365100070822239,-0.7107344864562153,0.4314325745703652
1761340655884239400,1.4722392578125,13.853304394650458,-0.39446284368932244,0.22319811267424375
1761340655894306300,1.482306396484375,12.799495598697662,-0.1847434769976884,0.4097895921587944
1761340655904373500,1.49237353515625,11.535378164923191,-0.06094524789340794,0.9392330070935189
1761340655914440400,1.5024404296875,10.519225438147783,0.2424736353021115,1.7284695139870045
1761340655924508400,1.51250830078125,9.641944006446003,0.510237304281257,2.504283498597145
1761340655934575400,1.522575439453125,8.675515972304344,0.5675943184243515,2.9521453395187853
1761340655944642300,1.532642333984375,6.793387636217474,0.28985589299555864,3.3262481167465445
1761340655954709200,1.542709228515625,7.664310638803244,0.20992716422341762,2.2565356492191553
1761340655964776400,1.5527763671875,7.015175114908814,0.8259536147203296,1.1316164043851196
1761340655974843400,1.562843505859375,6.548360736235976,0.6378925376072525,0.9350096172448247
1761340655984911400,1.572911376953125,6.432080627676844,0.21835257233921437,0.6746306882221251
1761340655994978300,1.582978271484375,6.037336628958583,0.28724213030058887,0.7045460801448673
1761340656005045500,1.59304541015625,5.208314493513107,0.44911406947243954,0.4525350934296846
1761340656015112400,1.603112548828125,4.376469701862335,0.5679534705929458,0.1764419875225052
1761340656025179400,1.613179443359375,3.936964185875654,0.7909250445023178,0.19509619991425423
1761340656035246300,1.623246337890625,2.8173586834102866,1.0186992694530634,0.15837412365134804
1761340656045313300,1.633313232421875,0.6616244185894727,1.4809572269305586,-0.32996300858687605
1761340656055381200,1.64338134765625,-2.6284359479665755,2.3315268850564954,-0.8164872096516191
1761340656065448400,1.653448486328125,-6.135002053418755,3.340726723954081,-1.2025460168067366
1761340656075515400,1.663515380859375,-8.261334282666445,4.04299762570858,-0.8286924650996923
1761340656085582600,1.67358251953125,-8.735542278721928,3.526325283411145,0.45240635248348116
1761340656095649500,1.6836494140625,-9.270325447249412,0.9509833583809435,2.3911858194664117
1761340656105716500,1.693716552734375,-12.493687774538992,-2.6402035426497457,3.9898981959447264
1761340656115784400,1.703784423828125,-18.943396997886897,-3.6465035684525966,3.2640646322950717
1761340656125851400,1.713851318359375,-27.493160099887845,-0.7413025701340288,-1.0398784702777861
1761340656135918300,1.72391845703125,-37.071313478946685,3.684723701253533,-6.1435331503987305
1761340656145985300,1.7339853515625,-42.210687122702595,6.813084854856133,-7.996587367692589
1761340656156052200,1.74405224609375,-39.71765917761326,6.460649135035276,-7.141004557579755
1761340656166119400,1.754119384765625,-32.555669115149975,3.5837422841131685,-6.6626283359289165
1761340656176186400,1.764186279296875,-24.70289809771776,0.49107002780083564,-6.832528390994668
1761340656186254600,1.774254638671875,-17.929281914418933,-1.7239041057676077,-6.681349403011798
1761340656196321500,1.784321533203125,-12.40797582272291,-2.8568337847083805,-6.307182328376173
1761340656206388500,1.794388427734375,-7.344250417408347,-3.338601694624126,-5.563792649769782
1761340656216455400,1.804455322265625,-2.805955830386281,-3.633130292138457,-4.539240635700524
1761340656226522400,1.8145224609375,1.0385533591538667,-3.5872128828331826,-3.2619512934029102
1761340656236589300,1.82458935546875,3.976922102254629,-3.2549080968931317,-1.9090802020289002
1761340656246657300,1.8346572265625,6.023244390720128,-2.5309298057213425,-0.4577033263804391
1761340656256724500,1.844724365234375,7.2881257946044204,-1.936880647624284,0.7923471862599253
1761340656266791400,1.85479150390625,7.778123480466007,-1.624860086430609,1.6246128336712717
1761340656276858400,1.8648583984375,7.652877390640974,-1.3004850705765187,2.069875598010421
1761340656286925300,1.87492529296875,7.527975584208965,-0.7930747698821127,2.2369842687919737
1761340656296992300,1.8849921875,7.573619145008921,-0.3944481575768441,2.3887686753220856
1761340656307059500,1.8950595703125,7.730135986888408,-0.46338951879069207,2.5153891222402454
1761340656317127400,1.90512744140625,8.139900444605946,-0.7116118538126349,2.6300863455221055
1761340656327194400,1.9151943359375,8.944538080379367,-0.8736864759497344,2.6086162719920276
1761340656337261300,1.92526123046875,10.147059181940556,-0.9215206055965274,2.514472299656272
1761340656347328500,1.93532861328125,11.414571518850327,-0.9482306256067007,2.3582129396691918
1761340656357395500,1.9453955078125,12.480159599924086,-0.9550247427262365,2.2139507453374563
1761340656367462400,1.95546240234375,13.129371696186064,-1.0607247128210961,2.1657804425388574
1761340656377529300,1.965529296875,13.12527653582692,-1.3943614780172704,2.0447293201856316
1761340656387597300,1.975597412109375,13.301024732398986,-0.9819006208226084,1.2583040713205933
1761340656397664300,1.985664306640625,13.193708851540087,-0.8355854394838214,0.7778815846644341
1761340656407731200,1.995731201171875,12.658097415494918,-1.2195761351279915,0.43015608836114405
1761340656417798400,2.00579833984375,11.917583000063896,-1.6115277266487478,0.23072394160181284
1761340656427865600,2.015865478515625,11.142440338844061,-1.5387335624642668,0.23138649716377258
1761340656437932500,2.0259326171875,10.408004951065777,-1.2661851799592374,0.37328145090751347
1761340656448000500,2.03600048828125,9.57563292067051,-1.120072243194282,0.642322921270132
1761340656458067500,2.0460673828125,8.871445956161617,-1.0414756763413549,0.9991250196069479
1761340656468134400,2.056134521484375,8.35395879034996,-0.9188243522498756,1.2710263363800942
1761340656478201300,2.066201416015625,7.928838358068465,-0.6874307677581906,1.5650000764906407
1761340656488268300,2.076268310546875,7.654903928032517,-0.5879432789700105,1.9068213171862065
1761340656498335500,2.08633544921875,7.5547472712785,-0.5909387344589456,2.05989897839725
1761340656508402400,2.09640234375,7.438822552028298,-0.5613951349906623,1.9070282379351555
1761340656518470400,2.106470458984375,7.249625091296434,-0.46308425223380323,1.5235576206423342
1761340656528537600,2.11653759765625,7.043069668528437,-0.36697767458818853,1.1560330527611076
1761340656538604500,2.1266044921875,6.935225379881262,-0.34944903216026724,0.8640564047519117
1761340656548671500,2.13667138671875,6.760170426270365,-0.272691718232166,0.5372086421087384
1761340656558738400,2.146738525390625,6.111352882283926,-0.12927555540367028,0.09832439982555806
1761340656568805400,2.156805419921875,5.710431656235456,0.05951223768191412,-0.11584076729379594
1761340656578872300,2.166872314453125,5.473730686050653,0.2403431260794401,0.05577032947354019
1761340656588941300,2.17694140625,4.569787457394599,0.7078503823872655,0.4379356363214552
1761340656599008300,2.18700830078125,2.5577462087154386,1.3773948533862828,0.7616243504118174
1761340656609075200,2.1970751953125,0.11774316684901713,1.8059375152014194,1.2072964992694557
1761340656619142400,2.207142333984375,-2.480749478274584,1.860678574692458,1.698673510660231
1761340656629209300,2.217209228515625,-4.670383090087771,0.981646792192012,2.818369321757555
1761340656639276300,2.2272763671875,-8.605975403088332,-1.0896978554576635,5.749027052089572
1761340656649344300,2.23734423828125,-17.93958586629033,-1.2189785345610231,7.783745996522903
1761340656659411200,2.2474111328125,-31.580558008337018,3.7057343405783176,5.7279953699767585
1761340656669478100,2.25747802734375,-44.644201387071604,8.83177036385536,1.604071273162961
1761340656679545300,2.26754541015625,-51.97579398295879,10.71168043937087,-0.8718319341242313
1761340656689612300,2.2776123046875,-51.60681570913791,10.271169545733928,-2.2352868172243237
1761340656699679500,2.287679443359375,-44.05060304148197,7.943277217787504,-3.7336230489790436
1761340656709746400,2.297746337890625,-33.573955346822736,4.110967876867949,-4.851917176584899
1761340656719814400,2.307814453125,-24.023573771786687,0.8952582562886178,-5.464706252595782
1761340656729881300,2.31788134765625,-16.777066520249843,-1.4450935941278933,-5.762447090154886
1761340656739948300,2.3279482421875,-11.436240914344786,-2.5266490596622226,-5.899193063637614
1761340656750015200,2.33801513671875,-7.313180740883946,-2.871124468128383,-5.79694148043096
1761340656760082200,2.348082275390625,-3.9635003106236457,-2.963470451131463,-5.35141071280539
1761340656770149000,2.358149169921875,-0.9885212080061435,-2.6881089109018443,-4.51714804635793
1761340656780216300,2.36821630859375,1.558947352322936,-2.3501946145169437,-3.571630406036973
1761340656790284300,2.3782841796875,3.563175881424546,-1.8735522309213875,-2.856068645554781
1761340656800351500,2.3883515625,5.466429423126578,-1.1192593193762004,-2.3534236595660447
1761340656810418400,2.39841845703125,7.534706938290595,-0.31948724381253124,-1.4654063143163918
1761340656820485400,2.4084853515625,9.401859823563694,0.3683978435844183,-0.39949163163676854
1761340656830552300,2.41855224609375,10.78346323455572,0.7767626636371016,0.3003802461519837
1761340656840619300,2.428619384765625,11.589044288659094,0.8111343043163418,0.4641987893469631
1761340656850686200,2.438686279296875,12.103021400523184,0.8413181379169226,0.3110505471177399
1761340656860754200,2.448754150390625,12.628089230722189,0.8818601377941667,0.07566752766370773
1761340656870821000,2.458821044921875,12.91514676170349,0.7154226442724466,-0.3082894118413329
1761340656880888300,2.468888427734375,12.968850294840335,0.385862188604474,-0.8963504354394972
1761340656890955300,2.478955322265625,13.13036772148609,0.85658789550215,-1.6711453061349688
1761340656901022200,2.489022216796875,13.310968618786335,1.1350935789763927,-1.8478063797682522
1761340656911089200,2.499089111328125,13.348169929933547,0.7657998094655573,-1.6787375148296355
1761340656921156000,2.509156005859375,13.361546128857135,0.4192456950291991,-1.6569037225537002
1761340656931224300,2.519224365234375,13.29907827450633,0.6485569933541119,-1.8946943876713513
1761340656941291300,2.529291259765625,13.155460077166557,0.9988919415034353,-1.866641720880568
1761340656951358200,2.539358154296875,12.87870649805665,1.0516698842279613,-1.6183327304884791
1761340656961425400,2.54942529296875,12.4955746111989,0.8581243112891912,-1.2473323031902313
1761340656971492400,2.559492431640625,12.037284899765252,0.8742046546049416,-0.8554147600695491
1761340656981559300,2.569559326171875,11.544585553729533,0.9350411083616316,-0.5868693295955658
1761340656991626200,2.579626220703125,11.103229441440105,1.0500140798449515,-0.5271168716832995
1761340657001694200,2.589694091796875,10.765032090330124,1.2983407520242034,-0.5010135853946208
1761340657011761200,2.59976123046875,10.453905116975307,1.4597908125221728,-0.49068932138755916
1761340657021828000,2.609828125,10.067870494413375,1.5822794203326105,-0.43884836725220083
1761340657031895300,2.619895263671875,9.641882631647587,1.6445080591000616,-0.3279426452077925
1761340657041962500,2.62996240234375,9.228027105224132,1.5423593517459928,-0.2518022393353283
1761340657052029400,2.640029541015625,8.551732940769195,1.3901651953712104,-0.45894598338529463
1761340657062097400,2.650097412109375,7.8933999649405475,1.4444368837848305,-0.8294200487218797
1761340657072164400,2.660164306640625,7.610748559963703,1.3842846129000186,-1.038669532879442
1761340657082231300,2.670231201171875,7.459573079112172,1.1250446978446096,-1.0805506724059581
1761340657092298200,2.68029833984375,7.242037997168302,0.8733918769173323,-1.1407055736392735
1761340657102365200,2.690365234375,6.92504768473804,0.8137348422035574,-1.1963736117821187
1761340657112432000,2.70043212890625,6.577360036227106,0.7361603118747473,-1.1880012124951929
1761340657122499300,2.710499267578125,6.081745679527521,0.6689842798329889,-1.176427167622745
1761340657132567000,2.720567138671875,5.454519205102324,0.8378896247729659,-0.9687249129071831
1761340657142634500,2.730634521484375,4.081809879183769,1.0501831528015435,-0.6443295849174261
1761340657152701400,2.740701416015625,1.5336831472069024,1.7652943930372595,-0.6653457772001624
1761340657162768400,2.750768310546875,-2.030087192979455,2.651901871488988,-0.5041821324281395
1761340657172835300,2.76083544921875,-7.27266519062221,2.57354057469666,-0.057270724099129436
1761340657182902300,2.77090234375,-13.192352760756014,2.162133318208158,0.34981450447179374
1761340657192969200,2.78096923828125,-18.923107074052094,1.58202895270288,0.2368159018013626
1761340657203037200,2.791037109375,-23.399304393601415,0.7817153176084161,-0.8544703918915242
1761340657213104000,2.801104248046875,-25.98809339083433,-0.09413768872544169,-1.5650605745062232
1761340657223171300,2.81117138671875,-28.345128811156748,-0.9318060719631611,-1.8282928471334277
1761340657233238300,2.82123828125,-32.4560993183732,-1.087063049974665,-2.325305818584561
1761340657243305200,2.83130517578125,-37.58663265306949,-0.5724317850507795,-4.086850503699481
1761340657253372200,2.8413720703125,-39.28963951675892,0.4937889679033309,-6.079969902026653
1761340657263439000,2.851439208984375,-36.0920779856801,0.7407522427748888,-5.400972908353805
1761340657273507300,2.86150732421875,-29.7578457378149,-0.6130586867325007,-2.8504838311597704
1761340657283574300,2.87157421875,-22.493393664264676,-2.2320620099589226,-1.3758981850877403
1761340657293641200,2.88164111328125,-16.023227343821524,-3.4071856937676666,-1.571117244196683
1761340657303708400,2.89170849609375,-10.680603748583794,-4.20750838895142,-2.25185509018749
1761340657313775400,2.901775390625,-6.332360608774423,-4.550054875181615,-2.7685034670874473
1761340657323842300,2.91184228515625,-2.593285139608383,-4.196290829366445,-3.106350105063617
1761340657333909200,2.9219091796875,0.8617606219649314,-3.221771843227744,-2.9868992575138806
1761340657343977200,2.931977294921875,3.803299227273464,-2.872269254249334,-2.909465012438595
1761340657354044200,2.942044189453125,6.20698183248043,-3.5378207831546664,-3.4638556754946705
1761340657364111000,2.952111083984375,7.6686594816625115,-5.081027837771177,-4.3901980752244585
1761340657374178000,2.962177978515625,8.798496455284953,-4.9358828692555425,-4.399946439039707
1761340657384245500,2.97224560546875,9.665386256831884,-1.5532617079019546,-3.1846421360120174
1761340657394312400,2.9823125,10.002506918621062,0.8739755950894206,-1.2055739132605492
1761340657404379400,2.99237939453125,10.605707789814472,1.8242878492757677,1.4995182811461387
1761340657414447400,3.002447265625,11.925938155955075,1.9614917956590652,3.156617526271939
1761340657424514300,3.012514404296875,13.360914845216273,1.778974835604429,3.1561464016288516
1761340657434581200,3.022581298828125,14.365271920257806,1.7766672893144189,2.381292348092049
1761340657444648200,3.032648193359375,15.043458766591549,1.5298844855763016,1.7917627132460474
1761340657454715100,3.042715087890625,15.532991173028945,0.8853899193555116,1.414920574182272
1761340657464782300,3.0527822265625,15.683227327203749,0.6358683383032679,1.167874151071906
1761340657474849300,3.062849365234375,15.588553485774993,0.8201886945180594,1.1747413334276526
1761340657484917500,3.07291748046875,14.92092427381277,1.3273815530695021,1.4552005621224642
1761340657494984400,3.082984375,13.720416850161552,1.6213021016880869,1.8152650232560932
1761340657505051400,3.093051513671875,12.622158671629428,1.6899862002052366,2.1332246191099284
1761340657515118300,3.103118408203125,11.587854202091693,1.8425674562014638,2.4167269418276844
1761340657525185300,3.113185302734375,10.571397523933648,1.8897645300537347,2.6482439335033297
1761340657535252200,3.123252197265625,9.597522096395492,1.8105173903375862,2.8272008629888297
1761340657545320200,3.1333203125,8.590838624233006,1.8584081455424426,2.7976272702410814
1761340657555387100,3.14338720703125,7.436876094135641,1.7750877650380132,2.532433488282561
1761340657565454300,3.153454345703125,6.190520527023077,1.4856854244962334,2.3321587532192467
1761340657575521300,3.163521240234375,5.183701445782185,1.4368231939107179,2.1651590957701203
1761340657585588200,3.173588134765625,4.638823584219813,1.5694401047646998,1.9094705165207384
1761340657595654400,3.183654296875,4.567404361650348,1.443922066130489,1.5949880952581763
1761340657605721600,3.1937216796875,4.662494382664561,1.0659857751544564,1.279506872216612
1761340657615789600,3.20378955078125,4.889246205765009,0.7704691164508461,0.9328992740273475
1761340657625856500,3.2138564453125,5.324826072740555,0.5650806916356086,0.5396393763870001
1761340657635923700,3.223923828125,5.937067744001745,0.28825609311610456,0.18375061176912857
1761340657645990700,3.23399072265625,6.480328818017244,-0.048055151986330744,-0.04806605697283521
1761340657656057600,3.2440576171875,6.771499045014381,-0.4194057078965008,-0.2681451425774023
1761340657666124500,3.25412451171875,6.7209817406982175,-0.7990360163740813,-0.5050064544230699
1761340657676191500,3.26419140625,6.465439876443147,-1.1309309063389896,-0.6073778646171093
1761340657686259500,3.274259521484375,5.58268907341957,-1.2267923501171172,-0.6431568878762424
1761340657696326400,3.284326416015625,4.057359913060069,-1.0165580927059055,-0.40934097160845995
1761340657706393600,3.2943935546875,1.7625655525952577,-0.821298263195157,0.2322251764776185
1761340657716460500,3.30446044921875,-1.505169584906101,-1.1133085942782461,0.7238108987156301
1761340657726527500,3.314527587890625,-5.544374248072504,-1.0546091525502503,1.3942887050420045
1761340657736594400,3.324594482421875,-9.446213929075002,-0.3174611448124051,2.782298475944996
1761340657746661400,3.334661376953125,-13.410912509572505,-1.087367366683483,4.550806278070807
1761340657756729600,3.3447294921875,-17.75325080925226,-3.0626264064103363,5.714928383132815
1761340657766796500,3.354796630859375,-22.715764495801924,-3.886342252141237,5.9199833382099865
1761340657776863500,3.364863525390625,-29.510471397924423,-2.2725044949844477,4.404429429672658
1761340657786930700,3.3749306640625,-39.53552215678692,1.0017883935973049,1.5417328904107213
1761340657796997600,3.38499755859375,-47.81382043373584,5.751329483813047,-2.287873621290922
1761340657807064600,3.395064697265625,-47.73407294328212,7.683946482643485,-4.671692711381614
1761340657817131500,3.405131591796875,-39.942167021179195,4.627552248620987,-4.655029161350429
1761340657827199500,3.415199462890625,-29.55898437668085,1.115135371313989,-3.751951609613001
1761340657837266400,3.425266357421875,-20.627978562569616,-0.4355129392191767,-3.9404607958197593
1761340657847333400,3.43533349609375,-13.51392630932331,-1.203236556354165,-4.851917468845844
1761340657857400300,3.445400390625,-7.389276138570905,-1.5598953006975351,-5.525924983668327
1761340657867467500,3.455467529296875,-2.407677812322974,-1.2307833194494247,-5.027684370118379
1761340657877534700,3.46553466796875,1.431595230129361,-0.4042829575665295,-3.647126961047947
1761340657887601700,3.4756015625,4.395140500062704,-0.12162409993559122,-2.8315801009863613
1761340657897669600,3.485669677734375,7.211241876888275,-0.020483985102176666,-3.327179844638705
1761340657907736600,3.495736572265625,10.21950482494831,0.5663946968436241,-4.086943150418996
1761340657917803500,3.505803466796875,13.311225808417797,1.0962436238393187,-4.145117399229109
1761340657927870500,3.515870361328125,15.51787777504921,1.2407470795810223,-3.6478503068864345
1761340657937937400,3.5259375,16.891518244338034,1.6275000795453787,-2.556425189244747
1761340657948004600,3.536004638671875,17.380115415751934,2.4030106972947713,-1.073108028249815
1761340657958071600,3.546071533203125,16.719259643447398,3.13057093860656,0.24354157506087792
1761340657968139800,3.556139892578125,15.41175782597661,3.54688700992465,1.6363248987749217
1761340657978206700,3.566206787109375,14.153220238161087,3.6650291129633783,2.807825715911388
1761340657988273700,3.576273681640625,12.951611575269698,3.486751982435584,3.3409815754979846
1761340657998340600,3.586340576171875,11.812881101095675,3.315107714051008,3.4558863040506838
1761340658008407600,3.596407470703125,10.664260516548156,3.1182647070020435,3.318485081529617
1761340658018474500,3.606474609375,9.019128334200381,2.884876222366094,2.9187027963832017
1761340658028541400,3.61654150390625,7.835485536110401,2.878528314644098,2.3608486950002607
1761340658038609400,3.626609375,7.314509943661093,2.6323060673981904,1.9916541480802
1761340658048676600,3.636676513671875,7.061517763888835,2.1358570134401322,1.745772530965507
1761340658058743600,3.64674365234375,7.127219777855276,1.9167561434842646,1.5664831546552478
1761340658068810500,3.656810546875,7.408655961823463,1.90482356749773,1.4574289056964218
1761340658078877400,3.66687744140625,7.4197496027678245,1.6598403605274854,1.3046812070921063
1761340658088944400,3.6769443359375,6.985910441979765,1.3710070520453155,0.8008833247411996
1761340658099011300,3.68701123046875,6.749743140280247,1.364057525168359,0.3243936474893242
1761340658109079600,3.69707958984375,6.764055158749223,1.3233046590194106,0.11977419775258749
1761340658119146500,3.707146484375,6.843167273908853,1.0620280505046247,0.04809493600744754
1761340658129213700,3.717213623046875,6.980049440991878,0.8083828136511146,-0.12143727212660015
1761340658139280600,3.72728076171875,7.171048982709646,0.7296512222416699,-0.37652967558111994
1761340658149347600,3.73734765625,7.437710206872224,0.7442907190993427,-0.5235479271553456
1761340658159414500,3.74741455078125,7.723221677455306,0.7424450912326573,-0.47380270319022233
1761340658169481500,3.7574814453125,7.9872578138113015,0.6914601694047451,-0.42110644739978015
1761340658179548400,3.76754833984375,8.165039562037586,0.6221231599368154,-0.43154009006544947
1761340658189616400,3.777616455078125,8.08801126741469,0.5767692297331989,-0.5335581567771732
1761340658199683300,3.787683349609375,7.743385344561934,0.5061220144495368,-0.7903503133542835
1761340658209750500,3.79775048828125,7.560933850958943,0.2788907372690737,-0.9019548313178122
1761340658219817700,3.807817626953125,7.478404620832205,0.09754735103845595,-0.8517952543981373
1761340658229884700,3.817884765625,7.223021746531129,0.24347440984249114,-0.5860725531946868
1761340658239951600,3.82795166015625,6.620630438154936,0.4908186468556523,0.04200162410102785
1761340658250018600,3.8380185546875,5.517560475426912,0.22130174100100994,0.8069068228144198
1761340658260086500,3.84808642578125,3.6711195387929676,-0.5129857627391815,1.196402910941839
1761340658270153500,3.858153564453125,0.7486825243175029,-1.0662969599954784,1.271783146096766
1761340658280220400,3.868220458984375,-3.5891736615121363,-1.1630265649102627,1.328628922782093
1761340658290287600,3.87828759765625,-9.1768563054353,-1.1294460746087134,2.1017919544920325
1761340658300354600,3.8883544921875,-15.440760633099078,-1.6828849898979066,3.5639266997918484
1761340658310421500,3.89842138671875,-21.22423297562599,-2.0835693384505807,4.09954427331686
1761340658320489700,3.90848974609375,-25.303220783126353,-2.197575949119776,3.003504355356097
1761340658330556700,3.918556640625,-28.020422225260734,-3.252706787456572,1.7236295266099273
1761340658340623600,3.92862353515625,-31.237441321003434,-4.832181087240577,-0.18013970952928066
1761340658350690600,3.938690673828125,-35.78941021311283,-4.510971695810556,-3.85743852147907
1761340658360757500,3.948757568359375,-37.47029876849651,-2.7094927674531935,-7.93631030138433
1761340658370824400,3.958824462890625,-33.34544469735622,-2.6357149990588424,-10.109196192014217
1761340658380891600,3.9688916015625,-26.168030271267888,-4.295744306287169,-10.460879632163048
1761340658390959600,3.978959716796875,-19.903314042699336,-5.483569358497857,-10.092073207777737
1761340658401026600,3.989026611328125,-15.320693991738557,-5.738647112372517,-9.850281051933765
1761340658411093500,3.999093505859375,-10.997353822517395,-5.224633760151267,-9.378362628120183
1761340658421159400,4.009159423828125,-6.325404798287153,-4.138901885715127,-7.983066207340359
1761340658431226400,4.019226318359375,-2.0213655418634415,-3.0199270823687314,-5.711868995562195
1761340658441293600,4.02929345703125,1.4878782583653927,-2.0630054199799894,-3.359993149960041
1761340658451360500,4.039360595703125,4.504496362316608,-0.9993300406597554,-1.5752721719190477
1761340658461427500,4.049427490234375,7.130398992413282,0.29508623139709234,-0.33884839889723806
1761340658471494400,4.059494384765625,9.093886345803737,1.4474747901760041,0.5931221429126337
1761340658481562600,4.069562744140625,10.542685808712243,2.1690742233872413,1.3262246381193399
1761340658491629600,4.079629638671875,11.704417219245434,2.740805020561814,1.9115752337150274
1761340658501696500,4.089696533203125,12.50969432196617,3.048680298644304,2.3237916146293283
1761340658511763500,4.099763427734375,12.998113798725605,2.8969354934722182,2.2430101049527527
1761340658521830700,4.10983056640625,13.242782971310614,2.5883935681745407,2.0410972472935915
1761340658531897600,4.119897705078125,13.349046712768077,2.6595202375382185,1.6436556800544262
1761340658541964500,4.129964599609375,13.259060736894607,2.3780561426497995,1.6913082425892352
1761340658552032500,4.140032470703125,13.340363055574894,1.969962979145348,1.338069828083366
1761340658562099500,4.150099365234375,13.645786264330148,1.9815129855550824,0.8332442831851542
1761340658572166400,4.16016650390625,13.875053285121917,2.1317992624819277,0.5854307481598109
1761340658582233300,4.1702333984375,13.715093024790287,1.9168555122055113,0.7564019395884126
1761340658592301000,4.180301025390625,13.100372396194935,1.6420172651976346,1.258159840544313
1761340658602368000,4.190367919921875,11.641823108166456,1.630634285917878,2.1377393200553954
1761340658612435200,4.200435302734375,9.942095412278174,1.3685624353721737,3.145560710206628
1761340658622503200,4.210503173828125,9.340670903107524,1.615596145131439,3.132982383662462
1761340658632570000,4.220570068359375,8.109594153669477,2.0560189220935103,3.07393982758522
1761340658642637000,4.230636962890625,7.049214162632823,1.8097993051961063,2.6955019437626
1761340658652704000,4.2407041015625,5.9591486429065466,1.396927675243467,2.446569706905633
1761340658662771000,4.25077099609375,5.019333305880427,1.1548445736289024,1.941661598290503
1761340658672838000,4.260837890625,4.699294711795449,0.9446205453507601,1.4071489172674714
1761340658682904800,4.27090478515625,4.9473921052634715,0.6391695718057453,1.119906604303792
1761340658692973000,4.28097314453125,5.389477116349339,0.40888939191605894,0.9446572971645743
1761340658703040000,4.2910400390625,5.991503098544478,0.4657698380559683,0.913646365090087
1761340658713107200,4.301107177734375,6.697794341856241,0.5403894641019403,0.9153834180157631
1761340658723174100,4.311174072265625,7.393155025830865,0.5101330036565661,0.7901477765195071
1761340658733241000,4.321240966796875,7.948105953118205,0.4179123275335878,0.537268811330758
1761340658743308000,4.33130810546875,8.309883501780032,0.2888523785088211,0.30913916053846474
1761340658753375000,4.341375,8.48516291179657,-0.006761164698004722,0.057259389854362235
1761340658763442000,4.35144189453125,8.405480303272604,-0.3906893164999783,-0.20947596812350675
1761340658773510000,4.361510009765625,8.068692818960548,-0.48527891371138393,-0.3820398173047229
1761340658783577000,4.3715771484375,7.251182842132449,-0.17208806662932039,-0.6315747327625751
1761340658793644300,4.381644287109375,6.32811405724585,0.461902348972857,-0.73448594892174
1761340658803711200,4.391711181640625,5.364184854182601,1.1782319520223885,-0.6840314807087182
1761340658813778200,4.401778076171875,3.9346559089332818,1.7504384769499302,-0.6077178006285802
1761340658823845000,4.41184521484375,0.9666542441129684,2.0297608836345375,-0.89167338353917
1761340658833912000,4.421912109375,-2.8177818772584198,1.9204577744811773,-1.1750082407355307
1761340658843980000,4.43197998046875,-6.768018801683187,1.3729717762470244,-0.6821054080169647
1761340658854047000,4.442046875,-10.49817563585639,-0.21137151781283317,0.9285591989964246
1761340658864114000,4.452114013671875,-15.052019674187898,-2.063290082140267,2.861605529154837
1761340658874181000,4.46218115234375,-21.200276930499076,-2.515475631479919,3.7344969092041254
1761340658884249000,4.4722490234375,-27.861095586657523,-1.8181131061635911,3.9657758543401953
1761340658894316000,4.48231591796875,-34.79853338189125,-1.4108179611690341,3.5987832013785837
1761340658904383200,4.49238330078125,-41.72710047292709,-0.07229242520742118,1.5428575105264781
1761340658914450200,4.5024501953125,-46.008676553130144,2.179951298971474,-1.6457001914940774
1761340658924517000,4.51251708984375,-42.91072924249172,2.450610360598564,-3.523141100417077
1761340658934584000,4.522583984375,-33.864937357771396,0.24795440480075776,-3.0078888540506363
1761340658944651000,4.532651123046875,-24.245528423738477,-1.795207154611498,-2.0690385626643897
1761340658954719000,4.542718994140625,-16.19375459087491,-2.197268344475329,-2.084933904802054
1761340658964786200,4.5527861328125,-9.917849444293974,-2.331656648916006,-2.8658833526045084
1761340658974853000,4.56285302734375,-4.6803562025696035,-2.338118538406491,-3.212129277874529
1761340658984920000,4.572920166015625,-0.2763350614368915,-2.579015498976409,-2.7698183490782973
1761340658994987000,4.582987060546875,3.1777953388571736,-2.839429353182018,-2.285672604115307
1761340659005054000,4.593053955078125,5.994080255556106,-2.610153856822848,-2.183534564285725
1761340659015121000,4.603120849609375,8.045441707232595,-2.237799092306197,-2.487056469464302
1761340659025189000,4.613189208984375,9.560126723980902,-1.5894981195397675,-2.7498700782880183
1761340659035256000,4.623256103515625,10.572634372252224,-0.5103039763092995,-2.925833086654544
1761340659045323000,4.633322998046875,11.043419992643594,0.6877309197485446,-2.686692322102189
1761340659055390200,4.64339013671875,11.479040776151418,1.4074680662192403,-1.8875813407957553
1761340659065457200,4.65345703125,11.974852116727828,1.6346484899953007,-0.8635270471155643
1761340659075524000,4.663524169921875,12.426710918331146,1.6472659795060753,-0.07649853512775152
1761340659085591000,4.673591064453125,12.945987305647135,1.5904077817305922,0.3129914520524442
1761340659095659000,4.683658935546875,13.63408881227374,1.592217169240117,0.7119648319687694
1761340659105726000,4.693725830078125,14.400097734445332,1.627043421819061,1.2196497118208556
1761340659115793000,4.70379296875,14.947282703906296,1.6195995355539023,1.7131791520051658
1761340659125860000,4.713860107421875,15.122747991883754,1.4664464710190892,2.035507318332046
1761340659135927000,4.723927001953125,14.85768251248002,1.2994775009691715,2.267632797294855
1761340659145994200,4.733994140625,14.300710308498143,1.3478086934179068,2.117587489517033
1761340659156061200,4.744061279296875,13.213033145213126,1.1034883342705666,1.904830435629934
1761340659166128000,4.754128173828125,11.771754140937327,0.8393010990060865,1.8859383958943188
1761340659176196000,4.764196044921875,10.237842445671557,0.7109046553913504,1.806579904758185
1761340659186263000,4.774262939453125,8.378226970165967,0.5020052267804742,1.417181358721107
1761340659196330000,4.784330078125,6.253387609824538,0.3867714489364996,0.8367981762744486
1761340659206397200,4.794397216796875,4.796893500760198,0.4366007344558835,0.6269301218271255
1761340659216464100,4.804464111328125,4.149297023001313,0.41245939588993785,0.8531101363889873
1761340659226531000,4.814531005859375,4.158407965695858,0.21831249605715272,1.2076616062548011
1761340659236598000,4.824597900390625,4.459071412703395,0.025281028386671095,1.5927515683777629
1761340659246666200,4.834666259765625,4.719083115848899,-0.1668128479064442,1.7848365672446787
1761340659256733200,4.844733154296875,4.730279048123956,-0.4570085125166923,1.6353342803023754
1761340659266800000,4.854800048828125,4.818144378581643,-0.7094852170474827,1.2939701357245446
1761340659276867000,4.8648671875,5.243951624083519,-0.9525310262143611,0.9785791482497006
1761340659286934000,4.87493408203125,5.724717955741286,-1.441428788010031,0.7731751605391501
1761340659297001200,4.885001220703125,6.042686173292994,-1.9478502237975597,0.5053433582272381
1761340659307068200,4.895068115234375,6.289188406524062,-2.0557475578062236,0.209845148495771
1761340659317136100,4.90513623046875,6.425445719707012,-2.008683024292439,-0.03350747986426577
1761340659327203000,4.915203125,6.1521770601034165,-1.97812816542238,-0.18708382957875727
1761340659337270000,4.92527001953125,5.262769137278199,-1.7113287018328904,-0.4102021915476769
1761340659347337000,4.9353369140625,3.8360587565809485,-1.2970897290498018,-0.38259474777374414
1761340659357404000,4.94540380859375,0.5763578724533319,-1.0131636279620229,-0.09297167715337126
1761340659367471000,4.95547119140625,-4.755165652099252,0.06397189310505054,0.5322620525520294
1761340659377538000,4.9655380859375,-11.080863295853137,1.9673995583981274,1.3350574945248663
1761340659387606000,4.97560595703125,-16.205282531583308,3.0445594193220136,2.8124577596262097
1761340659397673200,4.985673095703125,-18.93042645715475,1.9804417030617594,4.585721816368401
1761340659407740200,4.995740234375,-20.973720922231674,-0.4674992191318422,5.95569119592905
1761340659417807000,5.00580712890625,-24.79885554921627,-1.2977842871852219,6.84796736766696
1761340659427874000,5.0158740234375,-30.047551152956483,0.4942204181231558,6.287731193453073
1761340659437941000,5.02594091796875,-34.401575214254855,2.980928366410732,4.972798933720588
1761340659448008000,5.036008056640625,-37.33341777045727,4.689477666658163,2.679579567487538
1761340659458075100,5.0460751953125,-37.30346686882972,4.997629423594475,-0.2822553183313459
1761340659468143000,5.05614306640625,-33.42015127103328,3.043933980900049,-2.4289842197239397
1761340659478210000,5.0662099609375,-26.76315304994583,-0.1167600010305643,-4.088234943795204
1761340659488277000,5.076277099609375,-19.757733020853994,-2.188524189266562,-5.09540181556046
1761340659498344200,5.08634423828125,-13.91117439981699,-3.253329303269088,-5.671570887443423
1761340659508411100,5.0964111328125,-9.004837358519435,-3.5994156540632245,-6.114438573339581
1761340659518478000,5.10647802734375,-4.4623330448478455,-2.988788140000403,-5.853197036138177
1761340659528546000,5.116546142578125,-0.39373160680532454,-1.876213705215603,-5.327488569948077
1761340659538613000,5.126613037109375,3.076760145702958,-0.7878701869763434,-5.089665902256965
1761340659548680200,5.13668017578125,6.040927931448817,0.36611323977857824,-4.961785956797003
1761340659558747100,5.1467470703125,8.407097675341367,1.6559164650820195,-4.5556344288796184
1761340659568814000,5.15681396484375,10.447900908124446,2.81640123655498,-3.4890932848647234
1761340659578881000,5.166881103515625,12.060525490099192,3.6202237565532323,-2.092163709925115
1761340659588948000,5.176947998046875,13.179327274966239,4.074531704874336,-0.8279111054636538
1761340659599015200,5.18701513671875,13.828686670744418,4.0281785345003005,-0.08095701237395406
1761340659609083100,5.197083251953125,14.193436513215303,3.681549747392535,0.23911826045960186
1761340659619150000,5.207150146484375,14.663727628087997,3.3569092124700544,0.3688575700506568
1761340659629217000,5.217217041015625,15.150668264466523,3.0506606588065623,0.5018135036006569
1761340659639284200,5.2272841796875,15.700437989723682,2.7079391082704065,0.6070245211347938
1761340659649351200,5.23735107421875,15.98170057069063,2.2227925157018005,0.9387029918700456
1761340659659418000,5.247418212890625,15.954599797797202,1.9299008717395365,0.7477383753351867
1761340659669485000,5.257485107421875,15.556802256727218,1.939996003165841,0.3329929143346846
1761340659679552000,5.267552001953125,14.762811102652549,1.5215923119187353,0.12538579055666924
1761340659689620200,5.2776201171875,13.6776181573987,0.9058562226705252,-0.25684198706820605
1761340659699687200,5.287687255859375,12.116148593121766,0.6316460444331169,-0.5855677454777062
1761340659709754000,5.297754150390625,10.341751732957363,0.3600274170588702,-0.7817568186625837
1761340659719821300,5.3078212890625,9.034016106730698,0.05503858113288879,-0.7785723434075713
1761340659729888300,5.31788818359375,8.00020438914597,0.019297113405168057,-0.7282118370883166
1761340659739955200,5.327955078125,7.057855734249949,0.07801452918127179,-0.7443523861587047
1761340659750022100,5.338022216796875,6.307803090623021,0.12665756405815481,-0.7508189518243074
1761340659760090000,5.348090087890625,6.057428399872779,0.3329754152106121,-0.7112729772470892
1761340659770157000,5.358156982421875,6.07908084423244,0.48211632149461653,-0.5701308146320283
1761340659780224000,5.36822412109375,5.904623856514692,0.3993175902441144,-0.41585101108960804
1761340659790291000,5.378291015625,6.101300274825096,0.2662691195724532,-0.2223728773638606
1761340659800358100,5.388358154296875,6.688685737249255,0.10645005780979991,0.04166398964449763
1761340659810425000,5.398425048828125,7.457028655326366,-0.026369536009430882,0.15483122688010334
1761340659820492300,5.4084921875,8.170335914880036,-0.07341565708369016,0.18258483765907585
1761340659830560300,5.418560302734375,8.72882436864376,-0.07767382598482071,0.1401793819975108
1761340659840627200,5.428627197265625,9.024775984698534,-0.24532624825425445,0.01084543833695352
1761340659850694100,5.438694091796875,9.014891719543934,-0.4549740110144019,-0.20272877715192733
1761340659860761000,5.448760986328125,8.885514813524484,-0.32067762264087796,-0.3168479082848877
1761340659870828000,5.458828125,8.608966401597858,-0.15102299370355904,-0.4174080312732607
1761340659880895200,5.468895263671875,7.989500624302029,-0.03641980538070202,-0.30533063510097563
1761340659890962200,5.478962158203125,6.609206542342901,0.1660348310049623,-0.16758147592507303
1761340659901029000,5.489029052734375,4.515733211123943,0.24369389781206846,0.042406843901053065
1761340659911097000,5.49909716796875,1.8474796320319176,0.0050032881800085305,0.8505912854358554
1761340659921164300,5.509164306640625,-1.4090595731943845,-0.045643560799956316,1.6521742098137735
1761340659931231200,5.519231201171875,-5.515031833732128,0.6929572760947048,2.7499802606642243
1761340659941298200,5.529298095703125,-9.501865089148282,1.644678008839488,2.9980127722024914
1761340659951365000,5.539365234375,-11.64358719522953,1.4172878878355026,2.3159549296543003
1761340659961432300,5.549432373046875,-11.905904252707957,-1.2428193558104335,1.9622899602994321
1761340659971499300,5.559499267578125,-12.605282355630397,-5.360774168956279,3.2068989760056135
1761340659981567200,5.569567138671875,-17.741636359304188,-7.507028657770157,5.026592483228445
1761340659991634200,5.57963427734375,-27.15756504023075,-4.633723630732297,5.671867240041494
1761340660001701000,5.589701171875,-38.686829106187815,0.06894253025762737,4.325968764159083
1761340660011768000,5.59976806640625,-48.452735592389104,4.423471107012033,1.2464102199092506
1761340660021835000,5.6098349609375,-49.88987851977348,5.66059064374566,-1.020318979609385
1761340660031902000,5.61990185546875,-42.27506402554512,2.738550519633293,-2.272988479109108
1761340660041969200,5.62996923828125,-30.45099517548084,-0.9812358733035623,-3.0921807099357244
1761340660052037000,5.640037109375,-19.855444038021563,-3.290054813598096,-3.270863498654961
1761340660062104300,5.650104248046875,-12.082561965340375,-4.505535057714582,-3.518662201437354
1761340660072171300,5.660171142578125,-6.606893589225411,-4.760062191969156,-3.860864404274523
1761340660082238200,5.67023828125,-2.694234408044815,-4.33439493945986,-4.277913173781335
1761340660092305200,5.68030517578125,0.22368542126715182,-3.566200782203674,-4.602067094230652
1761340660102372000,5.6903720703125,2.4883652139753103,-2.507317167204618,-4.708013148041069
1761340660112439000,5.70043896484375,4.302808837845921,-1.0797450551114975,-4.401308959564567
1761340660122506200,5.71050634765625,5.78192862021625,0.42357203379571434,-3.5652322294324637
1761340660132574200,5.72057421875,6.914069779127836,1.8217311505302787,-2.203174645909667
1761340660142641200,5.73064111328125,7.609256275579333,2.800198874294758,-0.8021491068933159
1761340660152708000,5.7407080078125,8.010462748309969,3.193537390129268,0.10449475902356206
1761340660162775300,5.750775390625,8.498372521981597,3.458806867672503,0.4438960060305893
1761340660172842200,5.76084228515625,9.279517053964733,3.622296471174061,0.44841801349967714
1761340660182909200,5.7709091796875,10.61042955763936,3.3740777894139287,0.40111433746777475
1761340660192976100,5.78097607421875,12.316212900304794,2.9106892935365436,0.49478243592008947
1761340660203043300,5.791043212890625,14.013413123542069,2.4486396450474857,0.3959591466616839
1761340660213111000,5.801111083984375,15.475402907413244,2.0058225202947852,0.04788249883316457
1761340660223178200,5.81117822265625,16.538156057322023,1.7000019827850161,-0.2412760960806161
1761340660233245200,5.8212451171875,17.057037307840584,1.4353035831280052,-0.3221235106002539
1761340660243312000,5.83131201171875,17.190127096903325,1.413813635853678,-0.3715657330308109
1761340660253379000,5.841379150390625,16.84646797325611,1.473236861811578,-0.46155547176394607
1761340660263446000,5.851446044921875,15.898772112113237,1.4714853419691323,-0.39262514340076593
1761340660273513000,5.861512939453125,14.304826511645317,1.3351914961680769,-0.18793021727502346
1761340660283581200,5.871581298828125,12.053816347849368,1.2486587294884026,0.07827540860716253
1761340660293648100,5.881648193359375,10.138170942085981,1.4862908430434763,0.23674181365184485
1761340660303715300,5.89171533203125,8.59122557772398,1.800547784987092,0.343279988136515
1761340660313782300,5.9017822265625,7.408253810763359,1.7656167568594217,0.4803898264955729
1761340660323849200,5.91184912109375,6.776322519648074,1.7422257982693612,0.7730092293877154
1761340660333916200,5.921916259765625,6.56124009155333,1.7442080581277608,1.0975857591632754
1761340660343983000,5.931983154296875,6.461419534885883,1.6409141262613236,1.2686943863011897
1761340660354050000,5.942050048828125,6.5249851213455194,1.6405034996338188,1.4002452753588557
1761340660364118000,5.952117919921875,6.864645530745387,1.4012152894347905,1.278077570065856
1761340660374185000,5.96218505859375,7.360708800256252,0.9277589154642075,1.002129169858992
1761340660384252200,5.972252197265625,7.798639614272117,0.43666758914701637,0.8330810554474591
1761340660394319000,5.982319091796875,8.049331115886568,0.05666925107464194,0.7505773981533944
1761340660404386000,5.992385986328125,8.036164175799488,-0.36843554524630306,0.6097769616480916
1761340660414453200,6.002453369140625,7.74895116199553,-0.653990562710166,0.38456345403082665
1761340660424520200,6.012520263671875,7.423259072193503,-0.6854013077571988,0.2942850162831135
1761340660434588200,6.022588134765625,7.117108133685589,-0.7816630028992891,0.20725091248517855
1761340660444655000,6.032655029296875,6.702444213488698,-0.9018304742857813,0.11784929410461335
1761340660454722000,6.04272216796875,6.09657499986887,-1.0004213430278002,0.11577780332649126
1761340660464789200,6.052789306640625,4.822746903941035,-1.2978691889896987,0.002892579636350274
1761340660474856200,6.062856201171875,3.1695892360478637,-1.386478908073902,-0.2750341166398488
1761340660484923100,6.072923095703125,1.1750503263115881,-1.0055575368724763,-0.6418161407917737
1761340660494990000,6.082989990234375,-1.5177859053730964,-0.4091775246750563,-0.7031085946876555
1761340660505057000,6.09305712890625,-4.4423289522171014,-0.09636069853715598,-0.5401461568653583
1761340660515125200,6.103125244140625,-6.864764188688993,-0.22404468303360045,0.1585964976977557
1761340660525192200,6.113192138671875,-10.447560716384649,-1.532327933205664,1.8047814770340918
1761340660535259100,6.123259033203125,-18.489587062215804,-3.3023338649347425,4.065062742522358
1761340660545326300,6.133326416015625,-31.88619281401634,-1.6469205270692706,4.273290774677694
1761340660555393300,6.143393310546875,-46.33803827135563,2.862685141085088,0.3259429958231747
1761340660565460200,6.153460205078125,-56.06306095850467,6.4456327676892275,-2.790425668299198
1761340660575527200,6.163527099609375,-56.33377408840656,7.066285708943009,-2.840975121319294
1761340660585595100,6.17359521484375,-47.41880054068565,4.996939687764645,-3.6561081398829818
1761340660595662300,6.183662353515625,-35.46545882949829,1.7139581735536455,-4.76467991489768
1761340660605729300,6.193729248046875,-24.905659388899803,-0.9038892334464937,-5.342568065658211
1761340660615796200,6.203796142578125,-16.550127065622807,-2.2251536918751893,-6.018502749150991
1761340660625863400,6.213863525390625,-9.664122520506382,-2.5686697537899015,-6.1324745807677505
1761340660635930400,6.223930419921875,-4.120155684190988,-2.665581729534268,-5.655784704768657
1761340660645997600,6.23399755859375,0.10032383001446724,-2.0753426312446592,-4.617410501573979
1761340660656064500,6.244064453125,3.276459126704931,-1.014124289687723,-3.0663638393729924
1761340660666132500,6.254132568359375,5.392784925723076,-0.16668123914971947,-1.4735371599324047
1761340660676199400,6.264199462890625,6.685695323261618,0.5723901378661393,-0.4981448250252753
1761340660686266400,6.274266357421875,7.446461668604612,1.4875507799766956,0.08948726910371332
1761340660696333300,6.284333251953125,7.9881503787368535,2.1171087660893795,0.6056255775896832
1761340660706400500,6.294400390625,8.533156250593066,2.5302280871927736,1.0646849947541952
1761340660716467500,6.304467529296875,9.16223273679912,2.6710414562448856,1.268812021331489
1761340660726534400,6.314534423828125,10.011877973556517,2.5075088903844356,1.1205752242803573
1761340660736602400,6.324602294921875,10.86321189405322,2.29957165786922,1.045857471622154
1761340660746669300,6.33466943359375,11.61846678249836,1.9063225738838314,0.9323294382501393
1761340660756736500,6.344736572265625,12.555221562910079,1.5466548569828271,0.6897814225375651
1761340660766803500,6.354803466796875,13.563622360384464,1.3551537954837083,0.32743199227191505
1761340660776870400,6.364870361328125,14.553727622711657,1.210269231469929,-0.1269611501146108
1761340660786937600,6.3749375,15.50936947442293,1.3133188331864774,-0.5279319143932313
1761340660797004500,6.385004638671875,16.20645742058158,1.2604575960926712,-0.7590178211752325
1761340660807071500,6.395071533203125,16.285228759479523,0.9589467384755611,-1.0017625285036862
1761340660817139500,6.405139404296875,15.986986986660956,0.8437722530707716,-1.4159600002326072
1761340660827206400,6.415206298828125,15.066836135047673,0.7054600531846285,-1.6743766892716287
1761340660837273300,6.4252734375,13.714464079236983,0.4392191002607345,-1.6917502872683108
1761340660847340300,6.43534033203125,12.129306180858611,0.2586084122188389,-1.4562885034896433
1761340660857407200,6.4454072265625,10.64442885787487,0.3738747406255454,-1.3067317098811269
1761340660867474400,6.455474365234375,9.295007468563318,0.7163028611730784,-1.1317374004162848
1761340660877541400,6.465541259765625,8.148800374898315,0.8401809505805373,-0.8628902835819869
1761340660887608600,6.475608642578125,7.37634125367403,0.7953123196758329,-0.5835226495161652
1761340660897676500,6.485676513671875,7.086586154171824,0.8562649471580982,-0.48300738858282566
1761340660907743500,6.495743408203125,7.286545831936597,0.8658178614664822,-0.48916357312500475
1761340660917810400,6.505810546875,7.79085845887661,0.7627358918502927,-0.4090354127906263
1761340660927877400,6.51587744140625,8.14891903284192,0.6020446868956089,-0.3301535627229139
1761340660937944300,6.5259443359375,8.0953557849586,0.35620968540161846,-0.5621691150378435
1761340660948011500,6.536011474609375,7.835347588944435,0.22186748512499033,-1.002270185764879
1761340660958078500,6.546078369140625,7.513314021649956,0.19655249966979024,-1.3509918534986673
1761340660968145400,6.5561455078125,7.333911394223571,0.23705862451605497,-1.6092656269356607
1761340660978213400,6.56621337890625,7.377946350783109,0.3476318266704678,-1.6959230429083108
1761340660988280300,6.5762802734375,7.482225640425086,0.5666046132672578,-1.605469741784036
1761340660998347500,6.586347412109375,7.622023987215757,0.8618775994081049,-1.153571119626984
1761340661008414500,6.59641455078125,7.576502006968855,1.0021085654623807,-0.5400053601551801
1761340661018481400,6.6064814453125,7.061634668266773,1.1577107767149806,0.031680666295904665
1761340661028548400,6.61654833984375,5.8609179857790465,1.692416788353026,0.530443422290124
1761340661038615600,6.626615478515625,4.2342894283711905,2.3760066627740857,1.2004233986295758
1761340661048683500,6.63668359375,1.8559090222030876,3.0750673703104257,1.4728772347189485
1761340661058750500,6.64675048828125,-0.781631438717246,3.668591189359128,0.6375191742502152
1761340661068817400,6.6568173828125,-2.9464713855355975,3.3736943430542943,-1.3677148786321283
1761340661078884400,6.66688427734375,-4.030346818450093,1.158912845981121,-3.2987019381731746
1761340661088951300,6.676951416015625,-5.464460168880224,-2.7372639869540927,-1.937782418769598
1761340661099018200,6.687018310546875,-10.954110893118381,-6.005140578752756,3.3840374578922985
1761340661109085400,6.69708544921875,-23.057228155231474,-4.470027983264625,8.098775238013268
1761340661119152400,6.70715234375,-39.65361428320408,0.8471657679665833,7.166904722511768
1761340661129220600,6.717220703125,-55.35475603728294,5.133322673153877,2.5732974135905504
1761340661139287600,6.72728759765625,-64.38722783718109,6.286178118792176,-0.7275951664946972
1761340661149354500,6.7373544921875,-61.16279934196472,6.002123861280083,-4.345037914027273
1761340661159421400,6.74742138671875,-47.94220949776172,3.167815212112665,-6.476984183764458
1761340661169488400,6.75748828125,-33.86147932627201,-0.8089981690704822,-6.228314543366432
1761340661179555300,6.767555419921875,-23.29864504802227,-2.9245702271118756,-5.788126890334486
1761340661189622500,6.77762255859375,-15.806276199245453,-3.706508832082152,-6.100459732347726
1761340661199690200,6.787690185546875,-10.513841991543769,-4.29969684330523,-6.234131120690703
1761340661209757400,6.79775732421875,-5.875258645820617,-3.728156600266695,-5.333495116886496
1761340661219824400,6.807824462890625,-1.3523989438176154,-2.579832660578191,-4.014096233133971
1761340661229891300,6.817891357421875,2.6575427999854084,-1.313193599371612,-2.6613307940915227
1761340661239958500,6.82795849609375,6.5794023557096715,0.1046900623999536,-1.2955249639511108
1761340661250025500,6.838025390625,10.172163228058814,1.0294063222326337,-0.03388926398977637
1761340661260092400,6.848092529296875,12.848826908099651,1.6255474841728805,0.7079474130209535
1761340661270159400,6.858159423828125,14.348214402472973,2.197260453429818,0.7029608567800373
1761340661280227300,6.868227294921875,15.078566320329903,2.8131688305050133,0.4379480574116111
1761340661290294500,6.87829443359375,15.665193657863139,3.2498245100185272,0.26447401631660755
1761340661300361500,6.888361572265625,16.239828944307565,3.3314404246926306,0.24402481026686726
1761340661310428400,6.898428466796875,16.675955923771856,3.049215720695257,0.0744960727315396
1761340661320495400,6.908495361328125,16.854111181485653,2.708682912375033,-0.5039333452988416
1761340661330562300,6.918562255859375,16.895584178602693,2.5095883270069956,-1.1270045266754924
1761340661340629200,6.928629150390625,16.661240000677108,2.1688477211549877,-1.5236317087918518
1761340661350696400,6.938696533203125,16.084561225706338,1.7351551292307674,-1.761138442401588
1761340661360764400,6.948764404296875,15.324849942374229,1.6674565346196293,-1.7921631107404827
1761340661370831600,6.95883154296875,14.499371763145923,1.777178892098367,-1.5250085501030086
1761340661380898600,6.968898681640625,13.617552688014506,1.9163462475091217,-1.0077612574618309
1761340661390965500,6.978965576171875,12.725983787763118,2.0663661285847423,-0.24639935737848281
1761340661401032400,6.989032470703125,11.798249349153041,2.1771948398701846,0.5222618328675628
1761340661411099400,6.999099365234375,10.722380697083473,2.3285374939821657,1.1725953343749045
1761340661421166300,7.009166259765625,9.45561830175817,2.4488632246702906,1.7244637854769824
1761340661431233300,7.0192333984375,8.133242740282416,2.395773731778562,2.0725579689621925
1761340661441301200,7.02930126953125,7.00783468901813,2.2728139993250367,2.103814107969403
1761340661451368400,7.039368408203125,6.019301206052303,1.9662650014102458,1.7475231740251183
1761340661461435400,7.049435302734375,5.251254056051373,1.580488153001666,1.306506522823125
1761340661471502300,7.05950244140625,4.85725824535191,1.4846215946570038,1.1142136533591895
1761340661481569500,7.069569580078125,4.599691597270965,1.561855494854599,0.9545753184583038
1761340661491636500,7.079636474609375,4.246262774759531,1.4856997452825307,0.5395337971206754
1761340661501703400,7.089703369140625,3.941389601102471,1.421015091665089,-0.1666950484793633
1761340661511771400,7.099771484375,4.197049538779258,1.4112170434892177,-0.8419915071338414
1761340661521838300,7.10983837890625,4.95974129922688,1.0096996051132678,-1.3259734398372471
1761340661531905500,7.119905517578125,5.84224251140356,0.39630854462124404,-1.5573117139451205
1761340661541972500,7.129972412109375,6.900528745031356,0.08108926045149564,-1.6620231113940476
1761340661552039400,7.140039306640625,7.854439242905378,-0.07527114875726401,-1.7142540877602994
1761340661562106400,7.1501064453125,8.511241355904936,-0.061329790231585496,-1.5659180681183933
1761340661572173300,7.16017333984375,8.70372149156928,0.20178959660567342,-1.2199134042583406
1761340661582240300,7.170240234375,7.977870392262935,0.971542162285,-0.7702128036022186
1761340661592307500,7.180307373046875,6.456940343645215,1.9333887138552963,-0.3984611926104873
1761340661602374700,7.190374755859375,4.460142256805301,2.640697463646531,-0.2801072734519839
1761340661612441900,7.20044189453125,1.3720628447085619,2.7823884923160076,-0.287802211868763
1761340661622508800,7.2105087890625,-2.819931748768687,2.9033585122570393,-0.5226165645893663
1761340661632575700,7.22057568359375,-6.823973328617215,2.557785079421103,-1.21408601327911
1761340661642642700,7.230642578125,-9.018128217247128,0.6447476641990244,-1.028552481882274
1761340661652709600,7.240709716796875,-9.880860899114609,-2.5504297482222316,0.9190874601654708
1761340661662776800,7.25077685546875,-11.806015306979416,-5.496791243642568,3.0825422362357378
1761340661672844500,7.260844482421875,-14.339350712537765,-5.70979102024436,4.671125432887673
1761340661682911700,7.270911865234375,-18.319606927651165,-5.1535927232444285,6.967205156987905
1761340661692978700,7.280978759765625,-26.61648715547323,-5.156918652796745,9.951922394287585
1761340661703045600,7.291045654296875,-41.15282408292293,-1.4541000535346567,8.233587613084913
1761340661713112600,7.301112548828125,-53.561971287512776,4.908232645785808,0.9275729644380509
1761340661723179500,7.311179443359375,-52.52045615594387,5.547980748131871,-4.60818703841567
1761340661733246500,7.32124658203125,-42.54565557489395,1.4660615633547305,-7.014701067656278
1761340661743314700,7.331314697265625,-29.81572509533167,-2.377000349986553,-7.868823157566785
1761340661753381600,7.341381591796875,-18.90319708944559,-5.098831205487251,-7.801868513190746
1761340661763448800,7.35144873046875,-10.23744730887413,-6.083866909465193,-7.9047151396811
1761340661773515800,7.361515869140625,-3.307712927624583,-6.81077774695754,-8.643515736931562
1761340661783582700,7.371582763671875,2.4075930566489694,-8.273343869411946,-9.618279053220153
1761340661793649700,7.381649658203125,7.99155054256916,-8.135233037316798,-10.450300955003499
1761340661803716600,7.391716552734375,12.235810745334625,-2.146605201947689,-7.708027030932903
1761340661813783600,7.401783447265625,12.921053939920663,2.786787311796844,-2.2627948557443918
1761340661823851500,7.4118515625,11.302766509878635,4.683681839860975,3.601272095584869
1761340661833918500,7.42191845703125,9.234757290261983,5.465598232999444,5.750199018478393
1761340661843985700,7.431985595703125,7.655679588580131,5.279744237476587,4.014102662874758
1761340661854052600,7.442052490234375,7.702052048176527,4.872138711358606,1.804185118576139
1761340661864119800,7.452119873046875,9.087492845374346,4.074577297581732,0.6503109974145889
1761340661874186800,7.462186767578125,11.224204429817199,3.2363924892544746,0.12145488084852694
1761340661884253700,7.472253662109375,13.580083665841817,2.763515449541807,-0.1472927941992879
1761340661894320600,7.482320556640625,15.800539701420067,2.4562381373524667,-0.23834369589053092
1761340661904388600,7.492388671875,17.287034980994463,2.1604709379538893,-0.2807647144474089
1761340661914455600,7.50245556640625,17.998038055258988,2.2831330026350916,0.08643672242667526
1761340661924522800,7.512522705078125,18.06529197484255,2.67602187500596,0.5624680614518002
1761340661934589700,7.522589599609375,16.974627904701233,2.6304227378696203,0.8533435798186808
1761340661944656600,7.53265673828125,14.130166694831848,2.0500654205165803,1.4473387427061795
1761340661954723600,7.5427236328125,11.121894394421577,0.9909211087547242,1.7568461520351468
1761340661964790500,7.55279052734375,8.744539824169873,0.3132472534444183,1.0606980440098792
1761340661974857500,7.562857421875,6.25334669329226,-0.27603498251177366,-0.15530874473135917
1761340661984925700,7.57292578125,4.7665264195472,-1.0996101776629685,-1.2959192239657045
1761340661994992600,7.58299267578125,3.913252470898628,-1.7506994659736752,-2.1964850851431486
1761340662005059800,7.593059814453125,3.4050703090488907,-1.8946698377519844,-2.4103278884403405
1761340662015126800,7.603126708984375,3.28237273466289,-1.7667118586197494,-2.21339398823753
1761340662025193700,7.61319384765625,3.6407109565258025,-1.4758067122995853,-1.6968829739816487
1761340662035260700,7.6232607421875,4.544045113372802,-1.116195109499991,-0.8530375095441937
1761340662045327600,7.63332763671875,5.444969286468624,-1.0462155643448232,-0.1517247213652823
1761340662055394600,7.64339453125,6.0107093187958,-0.9890518077515065,0.23093212272608651
1761340662065462500,7.653462646484375,6.41565673162043,-0.6691308486968278,0.4480808174345642
1761340662075529500,7.663529541015625,6.590135346648097,-0.25753267274610697,0.3564294656321406
1761340662085596700,7.6735966796875,6.685048842051625,0.2294067215234041,0.31374095524549483
1761340662095663600,7.68366357421875,6.594060411137342,0.8992867811523377,0.49070429976098234
1761340662105730800,7.693730712890625,6.515275628235936,1.732669011503458,0.8019744079135358
1761340662115797800,7.7037978515625,6.534583555296063,2.171195161063969,1.3048792138822376
1761340662125864700,7.71386474609375,6.242045547077059,1.9485319224514066,1.4030119635932146
1761340662135931600,7.723931640625,5.3851358722746365,1.39234838462919,1.3129931083634494
1761340662145999600,7.73399951171875,3.1000346383064983,1.0595017468973993,1.6458618117965758
1761340662156066600,7.744066650390625,-0.585684503725171,1.9881331343472002,2.0681724473543466
1761340662166133800,7.7541337890625,-3.8758150129079816,4.380803347152471,2.2636133325204253
1761340662176200700,7.76420068359375,-5.4621577371567485,4.783715454757213,2.166195891471952
1761340662186267600,7.774267578125,-5.871665589764714,2.3990929393291474,0.75539042445831
1761340662196334600,7.78433447265625,-5.337867925143241,-0.13212890814132988,-1.4172443409547208
1761340662206401500,7.794401611328125,-4.7225499151766295,-1.9433140416726469,-2.9079969857126473
1761340662216469800,7.8044697265625,-4.566147055065632,-3.1753789253652096,-2.9223823616787787
1761340662226536700,7.81453662109375,-4.192685498350858,-2.7336504726320503,-2.4451184851840138
1761340662236603600,7.824603759765625,-4.899921329036355,-0.3689935444552451,-2.334287435811013
1761340662246670800,7.8346708984375,-9.498217672556638,1.864366177164018,-1.9051069144837558
1761340662256737800,7.84473779296875,-16.305539726102353,2.9956071723654865,-2.0551115979902446
1761340662266804700,7.8548046875,-21.4041160800457,3.9665257959246634,-3.523703118214011
1761340662276871700,7.86487158203125,-23.176868095612523,3.81273428735584,-5.121413039651513
1761340662286938600,7.874938720703125,-21.185238351321217,1.8819355899937449,-5.5373827817499635
1761340662297006600,7.885006591796875,-16.759114683973788,-0.4446539847910404,-4.6452796284914015
1761340662307073500,7.895073486328125,-10.694776066321134,-1.4600665607236325,-2.888804793986678
1761340662317140500,7.905140380859375,-5.134933030959964,-3.99376100885272,-0.7823436786398291
1761340662327207700,7.915207763671875,-2.815508087107539,-7.93013541214168,0.9235558377511799
1761340662337274600,7.925274658203125,-4.209070231440663,-10.922416947215796,-1.4182222460761666
1761340662347341800,7.935341796875,-7.9184660171359775,-7.175588964226842,-6.799664232268929
1761340662357408800,7.94540869140625,-8.708376623898744,-0.05573123957216739,-5.6213943593889475
1761340662367475700,7.955475830078125,-4.15187476453483,0.4392574595097452,-1.821906360966712
1761340662377543700,7.965543701171875,-0.5677063639640808,0.03802227214127779,1.9989388982608913
1761340662387610600,7.975610595703125,2.5096996784269807,3.7974353036761284,5.776495489251613
1761340662397677600,7.985677490234375,5.450483081454038,4.070259434382617,6.739014240995049
1761340662407744800,7.995744873046875,6.474493535992503,2.613492353595793,7.1249185151755805
1761340662417811700,8.005811767578125,6.000865970173478,1.8212562264949081,6.23189883159399
1761340662427878700,8.015878662109374,4.447932179051637,1.0434901579689233,4.304007107719778
1761340662437945600,8.025945556640625,5.568278270751238,0.5394831263793632,3.194242615789175
1761340662448012500,8.036012451171874,5.06459166675508,0.5724382878568023,1.734224131990969
1761340662458079500,8.04607958984375,3.6695109345525503,0.2223122332178056,-0.8495677876070141
1761340662468146700,8.056146728515625,3.6400358337432146,-1.0077376573905348,-2.4480723665535447
1761340662478213600,8.066213623046876,4.923085347002744,-1.8285422918498515,-2.9429841279417275
1761340662488281600,8.076281494140625,7.1402709826081985,-1.8113368900269269,-3.2456516082480547
1761340662498348800,8.086348876953124,8.42156576115489,-1.8633597766004502,-2.353024284984916
1761340662508415700,8.096415771484375,8.240599537673592,-1.7149518607661127,-0.7744145661409944
1761340662518482700,8.106482666015625,6.920016120311617,-0.9635853580616414,0.4680301111381501
1761340662528549600,8.116549560546876,4.676592466121912,-0.23158667764468116,1.0612381422359496
1761340662538616600,8.126616455078125,1.890972736799717,0.4633512326069176,0.7709763353206217
1761340662548683500,8.13668359375,-1.0595698436975478,1.0406637754365802,0.12046382398456335
1761340662558750700,8.146750732421875,-2.6400895608812567,1.1387765783380717,-0.2318260576248169
1761340662568818700,8.156818603515624,-2.626853062689304,0.8389603227443992,-0.25848193629495797
1761340662578885600,8.1668857421875,-1.4589339034318922,0.3715944476686418,-0.3465460041951388
1761340662588952600,8.17695263671875,0.13499182329177856,0.2960587662236765,-0.30964667166918514
1761340662599020000,8.18702001953125,0.7845435267716646,0.27027218120135366,0.6368878175441175
1761340662609087000,8.1970869140625,0.8486275841474532,0.5799205333709716,1.0046895218662917
1761340662619154000,8.20715380859375,-0.6858785698801279,0.5993029139067977,0.40829686938300724
1761340662629220900,8.217220947265625,-3.4261358934313058,1.2963535237297414,-0.4157232199914753
1761340662639288000,8.2272880859375,-5.966550443595647,1.5267448723763226,-1.555513578481972
1761340662649356000,8.23735595703125,-6.952658160719275,1.5455343285202978,-2.5519725937500595
1761340662659423200,8.24742333984375,-6.422331387078762,1.2862410027772186,-2.6568007494464516
1761340662669490200,8.257490234375,-4.7833355155289174,1.2000528848167509,-1.845816959516704
1761340662679557000,8.26755712890625,-2.622381470233202,1.1740098773479462,-0.7787471154525876
1761340662689624000,8.2776240234375,-0.4168874414652586,0.9089907213039695,0.08146423124372959
1761340662699691000,8.28769091796875,1.3874983142495154,0.5364839810959995,0.46983080388456583
1761340662709758000,8.297758056640625,2.5193887132704256,0.3127781746279448,0.6467606114566326
1761340662719825200,8.3078251953125,2.3669857364505527,0.5260882592879236,0.9835163123909384
1761340662729892900,8.317892822265625,3.248454098448157,0.4009057727510109,0.450054820921272
1761340662739960000,8.3279599609375,3.080368983849883,-0.512863232338056,-0.33553149290159345
1761340662750027000,8.338027099609375,2.8468074807345864,-0.5444097691265866,-0.62851410308294
1761340662760094000,8.348093994140624,2.9953087739408013,-0.6103808823579921,-0.24821824336871504
1761340662770161200,8.3581611328125,2.580570034942031,-0.46210853906944394,0.09976963019780814
1761340662780228000,8.36822802734375,1.8748598063886164,-0.1485931362081319,0.371649611921981
1761340662790295000,8.378294921875,0.8833896854490041,-0.024748254950530825,0.5300257448673248
1761340662800362000,8.388362060546875,-0.14612170459330082,-0.00541380520965904,0.25203195643797516
1761340662810430000,8.398429931640624,-0.7930880677551031,-0.049797209880687296,-0.17769816159605978
1761340662820497200,8.4084970703125,-1.1667220584273337,-0.24321795086339115,-0.378107628954947
1761340662830564000,8.418564208984375,-1.5145336255788802,-0.5149173518562689,-0.39527021454945205
1761340662840631000,8.428631103515626,-1.8662877928763626,-0.5554061237089336,-0.45825069459751244
1761340662850698000,8.438697998046875,-1.9241314945578574,-0.43678898703698066,-0.42095469090417026
1761340662860766000,8.448765869140624,-1.7982710722267627,-0.33557277476005254,-0.2724586583949625
1761340662870833000,8.4588330078125,-1.6051117221266031,-0.27191147284097966,-0.19421178176254034
1761340662880900000,8.468900146484375,-1.469430747526884,-0.22716855067517608,-0.18007336629480122
1761340662890967000,8.478967041015625,-1.1946060906529425,-0.1398230793731287,-0.13069471061974763
1761340662901034200,8.4890341796875,-0.6600368571370839,-0.08241225268356502,-0.052476621690392494
1761340662911101200,8.49910107421875,-0.05262099859714508,-0.1365266681762412,0.14391893385201693
1761340662921168100,8.509168212890625,0.4810439795553684,-0.20393029842879623,0.3606508827194571
1761340662931235000,8.519235107421874,0.7477291691154241,-0.21716314335893838,0.34563860702663657
1761340662941303000,8.529302978515625,0.8151870868384837,-0.18653496352434157,0.4288349227599799
1761340662951370000,8.539369873046875,0.7288654786914587,-0.13143533638659863,0.6378240024156868
1761340662961437000,8.54943701171875,0.5781576153516769,-0.10228077276851981,0.35168577823638913
1761340662971503900,8.55950390625,0.42026422442197797,-0.17767225996982305,-0.12438888847380876
1761340662981571000,8.569571044921876,0.041864042261242865,-0.161981573558785,-0.36827903951033947
1761340662991638000,8.579637939453125,-0.38652094477415083,0.004577062124572694,-0.617649083262682
1761340663001705000,8.589705078125,-0.3213753956466913,-0.007628047193028033,-0.5492186672456563
1761340663011772000,8.59977197265625,0.01480827755331993,-0.01004073435794562,-0.21486045590713618
1761340663021840100,8.609840087890625,0.25766893941164015,0.1074220811797306,0.0416273108959198
1761340663031907000,8.619906982421876,0.2765671166270971,0.05765387819781899,0.03034004707559943
1761340663041974000,8.62997412109375,0.15230185453295708,-0.09062968060448766,-0.13032894604727624
1761340663052041000,8.640041015625,0.04790449146926403,-0.10414474000949411,-0.11878668455258011
1761340663062108200,8.650108154296875,0.020263035827875135,-0.13796716757444663,-0.0340156668484211
1761340663072175000,8.660175048828124,-0.12840426159501075,-0.259990221966058,-0.08345160566866397
1761340663082242000,8.670241943359375,-0.524885459369421,-0.3706513946648687,-0.35454569771215316
1761340663092309000,8.68030908203125,-0.7998287741869687,-0.2680413716756739,-0.5787623032465576
1761340663102377000,8.690376953125,-0.8581523683398962,-0.16094885124387218,-0.5889768232688307
1761340663112444000,8.70044384765625,-0.47686464804410933,-0.11780874289851635,-0.20051716551706195
1761340663122511000,8.710510986328124,-0.04909165542721748,-0.10351055202549322,0.2644888485595584
1761340663132578000,8.720578125,0.3470528577387333,0.2187609522107057,0.2814848454155028
1761340663142645200,8.730645263671875,0.5806190370291471,0.06568396685309708,0.10865122111588715
1761340663152712200,8.740712158203126,0.4751800559580326,-0.299391910968069,-0.2485636958055198
1761340663162779100,8.750779052734375,0.18111118490993974,-0.48530693422947074,-0.5598179488018155
1761340663172846000,8.76084619140625,-0.06571838057935238,-0.5686243555918336,-0.5755668682061136
