time,seconds_elapsed,z,y,x
1761340654494972200,0.08297216796875,-0.014271929860115051,0.284762442111969,0.18668946623802185
1761340654505039000,0.0930390625,-0.0025899740867316723,0.2526511251926422,0.05868382379412651
1761340654515106300,0.103106201171875,0.02539106085896492,0.255205899477005,-0.04104436933994293
1761340654525173200,0.11317333984375,0.05320112034678459,0.25835880637168884,-0.15113277733325958
1761340654535240200,0.123240234375,0.08818652480840683,0.23916921019554138,-0.2625172734260559
1761340654545308200,0.13330810546875,0.09925808012485504,0.27064937353134155,-0.29069405794143677
1761340654555375000,0.143375,0.0888199657201767,0.365622878074646,-0.24185074865818024
1761340654565442000,0.153442138671875,0.05419008433818817,0.5064221024513245,-0.16032128036022186
1761340654575509000,0.163509033203125,0.013898920267820358,0.6642569899559021,-0.10486789047718048
1761340654585576400,0.173576416015625,-0.0029839230701327324,0.7387730479240417,-0.1114480271935463
1761340654595643600,0.1836435546875,0.025626469403505325,0.7191688418388367,-0.18246395885944366
1761340654605710600,0.193710693359375,0.1018940806388855,0.5996125936508179,-0.2656283676624298
1761340654615778600,0.203778564453125,0.20138517022132874,0.42009541392326355,-0.35262519121170044
1761340654625845500,0.213845458984375,0.2836693823337555,0.2704651653766632,-0.4127982556819916
1761340654635912400,0.223912353515625,0.3381222188472748,0.16673643887043,-0.45602723956108093
1761340654645979400,0.2339794921875,0.37974581122398376,0.10735833644866943,-0.49884286522865295
1761340654656046300,0.24404638671875,0.40728190541267395,0.047211628407239914,-0.5439578890800476
1761340654666113300,0.25411328125,0.42864790558815,-0.03067358210682869,-0.5652176141738892
1761340654676181500,0.264181396484375,0.4429900646209717,-0.07079721987247467,-0.552249550819397
1761340654686248400,0.27424853515625,0.4336703419685364,-0.034722305834293365,-0.47584399580955505
1761340654696315600,0.284315673828125,0.37704211473464966,0.09459879994392395,-0.31909555196762085
1761340654706382600,0.294382568359375,0.2992764711380005,0.21811674535274506,-0.11968924105167389
1761340654716449500,0.304449462890625,0.22090862691402435,0.29384568333625793,0.04310299828648567
1761340654726516500,0.3145166015625,0.15317405760288239,0.3735913932323456,0.1387712061405182
1761340654736584400,0.32458447265625,0.12596586346626282,0.4230549931526184,0.14208140969276428
1761340654746651400,0.3346513671875,0.1767648607492447,0.43055951595306396,0.08139064162969589
1761340654756718300,0.34471826171875,0.28499317169189453,0.39308932423591614,0.005821033380925655
1761340654766785300,0.354785400390625,0.4162670373916626,0.35538429021835327,-0.05754329264163971
1761340654776852500,0.3648525390625,0.5566536784172058,0.3113759160041809,-0.1083880066871643
1761340654786919400,0.37491943359375,0.6415879726409912,0.3226727843284607,-0.11456814408302307
1761340654796987600,0.384987548828125,0.6746219992637634,0.37141114473342896,-0.06367843598127365
1761340654807054600,0.3950546875,0.6892576813697815,0.4335850477218628,0.01252604927867651
1761340654817121500,0.40512158203125,0.6952547430992126,0.4846037030220032,0.09589690715074539
1761340654827188500,0.4151884765625,0.6759169697761536,0.5484607219696045,0.18960608541965485
1761340654837255400,0.42525537109375,0.6113306879997253,0.6319265365600586,0.2872789204120636
1761340654847322400,0.435322265625,0.4744764566421509,0.7478203773498535,0.36523282527923584
1761340654857390300,0.445390380859375,0.24989362061023712,0.8904192447662354,0.3492978811264038
1761340654867457300,0.455457275390625,-0.016850989311933517,1.0999923944473267,0.2501036524772644
1761340654877524500,0.4655244140625,-0.18568837642669678,1.3405895233154297,0.12099478393793106
1761340654887591400,0.47559130859375,-0.15028804540634155,1.653766393661499,-0.03349306434392929
1761340654897658400,0.485658447265625,0.11625844985246658,2.087362289428711,-0.24448513984680176
1761340654907725300,0.495725341796875,0.39147961139678955,2.444333791732788,-0.5604153871536255
1761340654917793500,0.50579345703125,0.6175356507301331,2.5637784004211426,-0.8486553430557251
1761340654927860500,0.515860595703125,0.8187633156776428,2.2001850605010986,-1.0598762035369873
1761340654937927400,0.525927490234375,1.0086742639541626,1.0918742418289185,-1.1051504611968994
1761340654947994400,0.535994384765625,1.1967589855194092,-0.7153103947639465,-0.9263200163841248
1761340654958061600,0.5460615234375,1.1628609895706177,-2.5596492290496826,-0.4941140413284302
1761340654968128500,0.55612841796875,0.8978261351585388,-4.003413200378418,-0.006062623113393784
1761340654978196500,0.566196533203125,0.7269598245620728,-4.7016520500183105,0.3912774622440338
1761340654988263400,0.576263427734375,0.8188721537590027,-4.2348504066467285,0.6195932626724243
1761340654998330400,0.586330322265625,0.9456489682197571,-2.8391013145446777,0.7029635310173035
1761340655008397300,0.596397216796875,0.8541792035102844,-1.2031505107879639,0.6912312507629395
1761340655018464500,0.606464599609375,0.5364544987678528,0.06594218313694,0.6338006258010864
1761340655028531500,0.616531494140625,0.04180984944105148,0.7686030864715576,0.5978630781173706
1761340655038598700,0.6265986328125,-0.5372182130813599,1.0139137506484985,0.494587779045105
1761340655048666400,0.636666259765625,-1.1497793197631836,1.0156484842300415,0.23279453814029694
1761340655058733600,0.646733642578125,-1.6996766328811646,0.8675113320350647,-0.1804226040840149
1761340655068800500,0.656800537109375,-2.174064874649048,0.6372197866439819,-0.7502829432487488
1761340655078867500,0.666867431640625,-2.6436328887939453,0.6319760680198669,-1.530412197113037
1761340655088934400,0.676934326171875,-3.1853861808776855,0.6893647909164429,-2.2531790733337402
1761340655099001300,0.68700146484375,-3.46598219871521,0.5885365009307861,-2.9323487281799316
1761340655109069300,0.6970693359375,-3.2641708850860596,0.5582882761955261,-3.2555997371673584
1761340655119136300,0.70713623046875,-2.6899166107177734,0.5312265753746033,-3.141331434249878
1761340655129203500,0.717203369140625,-2.102489471435547,0.4138379395008087,-2.7414565086364746
1761340655139270700,0.727270751953125,-1.8208630084991455,0.48794034123420715,-2.074080228805542
1761340655149337600,0.737337646484375,-1.779848575592041,0.5370175838470459,-1.196671724319458
1761340655159404500,0.747404541015625,-1.7648165225982666,0.37633857131004333,-0.188838928937912
1761340655169472500,0.757472412109375,-1.6402612924575806,0.1494969129562378,0.6883203387260437
1761340655179539500,0.76753955078125,-1.405255913734436,-0.07697924226522446,1.2847692966461182
1761340655189606400,0.7776064453125,-1.1078492403030396,-0.2188117355108261,1.5917811393737793
1761340655199673300,0.78767333984375,-0.7738789319992065,-0.22544583678245544,1.6539313793182373
1761340655209740300,0.797740234375,-0.40331602096557617,-0.11603173613548279,1.544953465461731
1761340655219807500,0.807807373046875,0.012783363461494446,0.08371423184871674,1.3619086742401123
1761340655229875500,0.81787548828125,0.41412094235420227,0.3172985017299652,1.181931495666504
1761340655239942700,0.827942626953125,0.7715104222297668,0.45793411135673523,1.0467915534973145
1761340655250009600,0.838009521484375,1.0640748739242554,0.4943065047264099,0.9587287902832031
1761340655260076500,0.84807666015625,1.2875744104385376,0.35380855202674866,0.9229724407196045
1761340655270143500,0.8581435546875,1.4869407415390015,0.17253172397613525,0.9858238101005554
1761340655280210400,0.86821044921875,1.6402348279953003,-0.02424871176481247,1.0896791219711304
1761340655290278400,0.8782783203125,1.778194546699524,-0.2553498446941376,1.1256237030029297
1761340655300345300,0.888345458984375,1.7453151941299438,-0.6105769872665405,1.0006043910980225
1761340655310412300,0.898412353515625,1.5622143745422363,-0.8016178011894226,0.8034215569496155
1761340655320479500,0.9084794921875,1.3382829427719116,-0.8141260147094727,0.49865102767944336
1761340655330546400,0.91854638671875,1.1365114450454712,-0.7782354354858398,0.08880040049552917
1761340655340613400,0.92861328125,0.9374474883079529,-0.6543091535568237,-0.29925912618637085
1761340655350680300,0.938680419921875,0.7531948685646057,-0.4637799561023712,-0.6070004105567932
1761340655360748500,0.94874853515625,0.5969449281692505,-0.2739992141723633,-0.8163126707077026
1761340655370815500,0.9588154296875,0.4790060520172119,-0.11846766620874405,-0.9100263714790344
1761340655380882400,0.96888232421875,0.3985261917114258,-0.021574098616838455,-0.9117072820663452
1761340655390949400,0.978949462890625,0.33262574672698975,0.027351632714271545,-0.8141852617263794
1761340655401016600,0.9890166015625,0.2619766592979431,0.031943704932928085,-0.6030861139297485
1761340655411083500,0.99908349609375,0.18995893001556396,0.05611588433384895,-0.295074462890625
1761340655421151500,1.0091513671875,0.10519900172948837,0.08067057281732559,0.04086463153362274
1761340655431218400,1.019218505859375,0.010910054668784142,0.08376836031675339,0.34459203481674194
1761340655441285400,1.029285400390625,-0.08962703496217728,0.042897794395685196,0.5549604296684265
1761340655451352300,1.039352294921875,-0.14268092811107635,0.10264314711093903,0.6825367212295532
1761340655461419300,1.049419189453125,-0.0631524845957756,0.6109542846679688,0.8240059614181519
1761340655471486500,1.059486572265625,0.1342008113861084,1.0564159154891968,0.8995676040649414
1761340655481554400,1.069554443359375,0.3526119589805603,1.3455864191055298,0.9186872243881226
1761340655491621400,1.079621337890625,0.5170366168022156,1.671777606010437,1.1571950912475586
1761340655501688600,1.0896884765625,0.6277180910110474,1.5631366968154907,1.4176784753799438
1761340655511755500,1.099755615234375,0.6494305729866028,0.8109380602836609,1.338793158531189
1761340655521822500,1.109822509765625,0.5528097748756409,-0.5090650320053101,0.7160696983337402
1761340655531889400,1.119889404296875,0.4279796779155731,-1.7226412296295166,-0.2433793693780899
1761340655541957400,1.129957275390625,0.3186722695827484,-2.2032437324523926,-1.100372552871704
1761340655552024300,1.1400244140625,0.21761810779571533,-2.116117477416992,-1.615027904510498
1761340655562091300,1.15009130859375,0.27389881014823914,-1.7975832223892212,-1.4700390100479126
1761340655572158500,1.160158447265625,0.6128915548324585,-1.1565912961959839,-0.6009736657142639
1761340655582225700,1.1702255859375,0.9553666114807129,-0.14166536927223206,0.7874396443367004
1761340655592291300,1.180291259765625,1.095237374305725,0.48440465331077576,1.903079628944397
1761340655602359300,1.190359375,1.0093961954116821,0.5501038432121277,2.301697015762329
1761340655612426500,1.200426513671875,0.7508796453475952,0.24433594942092896,2.1170356273651123
1761340655622493400,1.210493408203125,0.31872180104255676,-0.17211569845676422,1.6225519180297852
1761340655632560400,1.220560302734375,-0.26675233244895935,-0.4207841157913208,0.9652372002601624
1761340655642627600,1.230627685546875,-0.9766740202903748,-0.42755788564682007,0.2783600986003876
1761340655652694500,1.240694580078125,-1.5941611528396606,-0.3500484526157379,-0.35436248779296875
1761340655662761500,1.250761474609375,-2.0018484592437744,-0.2860526442527771,-0.8475674390792847
1761340655672829400,1.260829345703125,-2.230923652648926,-0.0970052108168602,-1.188624620437622
1761340655682896400,1.270896484375,-2.330446720123291,0.2332753986120224,-1.4294582605361938
1761340655692963300,1.28096337890625,-2.322650194168091,0.6078181266784668,-1.6090291738510132
1761340655703030300,1.2910302734375,-2.1959636211395264,0.9326421618461609,-1.711328148841858
1761340655713097200,1.30109716796875,-1.962918758392334,1.1720433235168457,-1.6747467517852783
1761340655723164400,1.311164306640625,-1.6795399188995361,1.1682379245758057,-1.4153655767440796
1761340655733232400,1.321232421875,-1.4066901206970215,0.8139595985412598,-0.8997647762298584
1761340655743299600,1.331299560546875,-1.2147892713546753,0.07009555399417877,-0.17775659263134003
1761340655753366500,1.341366455078125,-1.0138593912124634,-0.8853797912597656,0.5959993004798889
1761340655763433500,1.35143359375,-0.8240979909896851,-1.85287344455719,1.3617304563522339
1761340655773500400,1.36150048828125,-0.7304173111915588,-2.5202534198760986,2.0134899616241455
1761340655783567400,1.3715673828125,-0.6400181651115417,-2.5815136432647705,2.4720239639282227
1761340655793635300,1.38163525390625,-0.5138357281684875,-2.0767223834991455,2.5846216678619385
1761340655803702300,1.391702392578125,-0.39675429463386536,-1.2652086019515991,2.3373091220855713
1761340655813769200,1.401769287109375,-0.22794929146766663,-0.3053119480609894,1.813326358795166
1761340655823836400,1.41183642578125,-0.010536394082009792,0.5467288494110107,1.1974321603775024
1761340655833903400,1.4219033203125,0.1270827203989029,1.1928035020828247,0.5902978181838989
1761340655843970300,1.43197021484375,0.08109743893146515,1.4983651638031006,0.11414606124162674
1761340655854037500,1.44203759765625,-0.07269824296236038,1.4290177822113037,-0.24924412369728088
1761340655864105500,1.45210546875,-0.3053553104400635,1.0830390453338623,-0.48022738099098206
1761340655874172400,1.46217236328125,-0.5308680534362793,0.5658145546913147,-0.6365634799003601
1761340655884239400,1.4722392578125,-0.7339745163917542,0.16125816106796265,-0.7899745106697083
1761340655894306300,1.482306396484375,-0.811397135257721,-0.03166121989488602,-0.9027910828590393
1761340655904373500,1.49237353515625,-0.7444688677787781,-0.08916755765676498,-0.9824627041816711
1761340655914440400,1.5024404296875,-0.5623544454574585,-0.06579005718231201,-1.0107096433639526
1761340655924508400,1.51250830078125,-0.29245007038116455,-0.006570590194314718,-0.9658547043800354
1761340655934575400,1.522575439453125,0.03521006926894188,0.15268191695213318,-0.6996163725852966
1761340655944642300,1.532642333984375,0.2803599238395691,0.0791645497083664,-0.46308639645576477
1761340655954709200,1.542709228515625,0.36570703983306885,-0.13062062859535217,-0.20746421813964844
1761340655964776400,1.5527763671875,0.389754980802536,-0.22657935321331024,0.07867064327001572
1761340655974843400,1.562843505859375,0.3988041281700134,-0.3036203384399414,0.31759852170944214
1761340655984911400,1.572911376953125,0.43045109510421753,-0.350678026676178,0.4989851415157318
1761340655994978300,1.582978271484375,0.43481147289276123,-0.2467886358499527,0.6656045317649841
1761340656005045500,1.59304541015625,0.4229726791381836,-0.01065527182072401,0.7805023789405823
1761340656015112400,1.603112548828125,0.4542160928249359,0.3038712441921234,0.7385900616645813
1761340656025179400,1.613179443359375,0.5350843667984009,0.8058493137359619,0.5257192254066467
1761340656035246300,1.623246337890625,0.6320785284042358,1.505189299583435,0.25813809037208557
1761340656045313300,1.633313232421875,0.6942015886306763,2.1699039936065674,0.051843494176864624
1761340656055381200,1.64338134765625,0.7615095376968384,2.7833619117736816,0.045401573181152344
1761340656065448400,1.653448486328125,0.9476146697998047,3.184605836868286,0.08737627416849136
1761340656075515400,1.663515380859375,1.2833876609802246,2.8418986797332764,-0.07151003926992416
1761340656085582600,1.67358251953125,1.6298907995224,1.413016676902771,-0.521999716758728
1761340656095649500,1.6836494140625,1.8536783456802368,-0.9901391267776489,-1.152679681777954
1761340656105716500,1.693716552734375,1.876912236213684,-3.5248782634735107,-1.7484912872314453
1761340656115784400,1.703784423828125,1.6832444667816162,-5.093374252319336,-2.0896527767181396
1761340656125851400,1.713851318359375,1.3812963962554932,-4.9614973068237305,-1.9791686534881592
1761340656135918300,1.72391845703125,1.2200247049331665,-3.1966185569763184,-1.62113356590271
1761340656145985300,1.7339853515625,1.2453471422195435,-0.7845203280448914,-1.238660216331482
1761340656156052200,1.74405224609375,1.1195154190063477,0.9877121448516846,-0.963451087474823
1761340656166119400,1.754119384765625,0.7476221919059753,1.7644822597503662,-0.78257155418396
1761340656176186400,1.764186279296875,0.20381344854831696,1.8869905471801758,-0.5675053596496582
1761340656186254600,1.774254638671875,-0.4131205976009369,1.7486846446990967,-0.2691362500190735
1761340656196321500,1.784321533203125,-1.0369038581848145,1.5311470031738281,0.022878821939229965
1761340656206388500,1.794388427734375,-1.636890172958374,1.2494443655014038,0.19535629451274872
1761340656216455400,1.804455322265625,-2.1417317390441895,0.9584256410598755,0.1865295171737671
1761340656226522400,1.8145224609375,-2.5019848346710205,0.7979509234428406,0.0033952677622437477
1761340656236589300,1.82458935546875,-2.653791666030884,0.7618416547775269,-0.26209181547164917
1761340656246657300,1.8346572265625,-2.6345696449279785,0.6852346658706665,-0.5298189520835876
1761340656256724500,1.844724365234375,-2.493018627166748,0.5307133197784424,-0.7333172559738159
1761340656266791400,1.85479150390625,-2.2572824954986572,0.44306680560112,-0.8165818452835083
1761340656276858400,1.8648583984375,-1.9702959060668945,0.4714025855064392,-0.7683160305023193
1761340656286925300,1.87492529296875,-1.6776626110076904,0.579293966293335,-0.5844851732254028
1761340656296992300,1.8849921875,-1.3925390243530273,0.6698483824729919,-0.26802313327789307
1761340656307059500,1.8950595703125,-1.1026732921600342,0.641469419002533,0.1441044956445694
1761340656317127400,1.90512744140625,-0.823635995388031,0.4676872789859772,0.5935677886009216
1761340656327194400,1.9151943359375,-0.5423316359519958,0.18361501395702362,0.9628807306289673
1761340656337261300,1.92526123046875,-0.281448096036911,-0.12249244749546051,1.190967082977295
1761340656347328500,1.93532861328125,-0.05330561473965645,-0.3818645477294922,1.2480393648147583
1761340656357395500,1.9453955078125,0.14234429597854614,-0.5152231454849243,1.1523513793945312
1761340656367462400,1.95546240234375,0.33133459091186523,-0.4803815484046936,0.9730677008628845
1761340656377529300,1.965529296875,0.44104936718940735,-0.4438552260398865,0.7109609842300415
1761340656387597300,1.975597412109375,0.4501589834690094,-0.31274762749671936,0.4179210364818573
1761340656397664300,1.985664306640625,0.41049253940582275,-0.14203710854053497,0.12993478775024414
1761340656407731200,1.995731201171875,0.34821954369544983,0.025527985766530037,-0.12397633492946625
1761340656417798400,2.00579833984375,0.2810862958431244,0.20773720741271973,-0.3141058087348938
1761340656427865600,2.015865478515625,0.23034566640853882,0.3662516176700592,-0.43120068311691284
1761340656437932500,2.0259326171875,0.20674286782741547,0.44680583477020264,-0.44861748814582825
1761340656448000500,2.03600048828125,0.2465163767337799,0.42249795794487,-0.369565486907959
1761340656458067500,2.0460673828125,0.3182273209095001,0.34050774574279785,-0.21423208713531494
1761340656468134400,2.056134521484375,0.4308793246746063,0.1683734804391861,-0.019129294902086258
1761340656478201300,2.066201416015625,0.5860816836357117,0.002920065075159073,0.1763528436422348
1761340656488268300,2.076268310546875,0.7601558566093445,-0.12255845963954926,0.316576212644577
1761340656498335500,2.08633544921875,0.9244715571403503,-0.17650583386421204,0.40932053327560425
1761340656508402400,2.09640234375,1.0573214292526245,-0.1380116492509842,0.491014689207077
1761340656518470400,2.106470458984375,1.1399645805358887,-0.06011711061000824,0.5845755934715271
1761340656528537600,2.11653759765625,1.1817454099655151,0.0598793588578701,0.6870794892311096
1761340656538604500,2.1266044921875,1.1744788885116577,0.2460191249847412,0.7540547847747803
1761340656548671500,2.13667138671875,1.1009857654571533,0.5323188900947571,0.829896867275238
1761340656558738400,2.146738525390625,1.0397571325302124,0.8092769980430603,0.9214769005775452
1761340656568805400,2.156805419921875,0.9984762072563171,1.0155415534973145,0.9721056222915649
1761340656578872300,2.166872314453125,1.0083799362182617,1.181814432144165,0.9574609398841858
1761340656588941300,2.17694140625,1.1130751371383667,1.3657665252685547,0.937510073184967
1761340656599008300,2.18700830078125,1.224601149559021,1.4210484027862549,0.8954068422317505
1761340656609075200,2.1970751953125,1.2667124271392822,1.2228376865386963,0.7819979786872864
1761340656619142400,2.207142333984375,1.1849181652069092,0.3815977871417999,0.29304182529449463
1761340656629209300,2.217209228515625,1.1011682748794556,-1.284040927886963,-0.9085900187492371
1761340656639276300,2.2272763671875,1.2151254415512085,-2.6911349296569824,-2.267472743988037
1761340656649344300,2.23734423828125,1.435735821723938,-3.223280191421509,-2.8480021953582764
1761340656659411200,2.2474111328125,1.5099085569381714,-3.074619770050049,-2.2712562084198
1761340656669478100,2.25747802734375,1.586902141571045,-2.4086852073669434,-0.9997631311416626
1761340656679545300,2.26754541015625,1.8080190420150757,-1.0683369636535645,0.43235254287719727
1761340656689612300,2.2776123046875,1.9235217571258545,0.1797674000263214,1.4558141231536865
1761340656699679500,2.287679443359375,1.7811517715454102,0.9147641658782959,1.8232054710388184
1761340656709746400,2.297746337890625,1.5002259016036987,1.251237392425537,1.70956289768219
1761340656719814400,2.307814453125,1.1206049919128418,1.359033465385437,1.4279967546463013
1761340656729881300,2.31788134765625,0.6688977479934692,1.3681440353393555,1.1978119611740112
1761340656739948300,2.3279482421875,0.17560334503650665,1.3337924480438232,1.0641441345214844
1761340656750015200,2.33801513671875,-0.3318505883216858,1.256482481956482,1.0100756883621216
1761340656760082200,2.348082275390625,-0.8175480365753174,1.1454662084579468,0.9626088738441467
1761340656770149000,2.358149169921875,-1.2307252883911133,1.0414233207702637,0.9094801545143127
1761340656780216300,2.36821630859375,-1.5552181005477905,0.9419265389442444,0.8795081377029419
1761340656790284300,2.3782841796875,-1.797565221786499,0.8138523697853088,0.8720002770423889
1761340656800351500,2.3883515625,-1.8863983154296875,0.7215469479560852,0.8258455395698547
1761340656810418400,2.39841845703125,-1.7660529613494873,0.7778279781341553,0.6759398579597473
1761340656820485400,2.4084853515625,-1.5156904458999634,0.8956944346427917,0.4722711443901062
1761340656830552300,2.41855224609375,-1.2267663478851318,0.9094532132148743,0.30042627453804016
1761340656840619300,2.428619384765625,-0.9312880635261536,0.8195768594741821,0.20354126393795013
1761340656850686200,2.438686279296875,-0.6559039950370789,0.6570059657096863,0.18825805187225342
1761340656860754200,2.448754150390625,-0.41184768080711365,0.42564916610717773,0.22441020607948303
1761340656870821000,2.458821044921875,-0.2520548403263092,0.16740716993808746,0.3213229179382324
1761340656880888300,2.468888427734375,-0.17080791294574738,-0.13615085184574127,0.4358691871166229
1761340656890955300,2.478955322265625,-0.17886503040790558,-0.3323836326599121,0.5176131725311279
1761340656901022200,2.489022216796875,-0.20210963487625122,-0.4284696578979492,0.4960934817790985
1761340656911089200,2.499089111328125,-0.24233287572860718,-0.409607470035553,0.3784182369709015
1761340656921156000,2.509156005859375,-0.2933707535266876,-0.2617189288139343,0.1929815411567688
1761340656931224300,2.519224365234375,-0.3509601056575775,-0.04991178214550018,-0.020803578197956085
1761340656941291300,2.529291259765625,-0.3864791989326477,0.11441271007061005,-0.21753767132759094
1761340656951358200,2.539358154296875,-0.38742974400520325,0.1745067536830902,-0.3334135413169861
1761340656961425400,2.54942529296875,-0.34442847967147827,0.10947822034358978,-0.38985657691955566
1761340656971492400,2.559492431640625,-0.2868197560310364,-0.03466038405895233,-0.3866804540157318
1761340656981559300,2.569559326171875,-0.2077941745519638,-0.2062651515007019,-0.3467719256877899
1761340656991626200,2.579626220703125,-0.10876163840293884,-0.3870263993740082,-0.30068767070770264
1761340657001694200,2.589694091796875,0.00020106928423047066,-0.5362896919250488,-0.262810617685318
1761340657011761200,2.59976123046875,0.1259005069732666,-0.6628550291061401,-0.23517078161239624
1761340657021828000,2.609828125,0.27037060260772705,-0.7441203594207764,-0.21751216053962708
1761340657031895300,2.619895263671875,0.4098348915576935,-0.729058563709259,-0.22508355975151062
1761340657041962500,2.62996240234375,0.5108403563499451,-0.5728516578674316,-0.2127363532781601
1761340657052029400,2.640029541015625,0.5782274007797241,-0.4189540445804596,-0.16740281879901886
1761340657062097400,2.650097412109375,0.6002683043479919,-0.2848212718963623,-0.0801486074924469
1761340657072164400,2.660164306640625,0.5859887599945068,-0.19451497495174408,0.013847030699253082
1761340657082231300,2.670231201171875,0.5394343137741089,-0.14921434223651886,0.09551206231117249
1761340657092298200,2.68029833984375,0.4628917872905731,-0.05897331237792969,0.17622382938861847
1761340657102365200,2.690365234375,0.35145047307014465,0.05382327362895012,0.20078882575035095
1761340657112432000,2.70043212890625,0.23421715199947357,0.2282983809709549,0.1491350382566452
1761340657122499300,2.710499267578125,0.16009977459907532,0.4010600447654724,0.010137733072042465
1761340657132567000,2.720567138671875,0.146280437707901,0.5007847547531128,-0.214621901512146
1761340657142634500,2.730634521484375,0.26311224699020386,0.49625763297080994,-0.4191817045211792
1761340657152701400,2.740701416015625,0.505279541015625,0.22621938586235046,-0.5571823120117188
1761340657162768400,2.750768310546875,0.7922202348709106,-0.4707581102848053,-0.4314470589160919
1761340657172835300,2.76083544921875,1.1309242248535156,-1.7127870321273804,-0.0032441499643027782
1761340657182902300,2.77090234375,1.436400055885315,-3.0913164615631104,0.5315529108047485
1761340657192969200,2.78096923828125,1.546449899673462,-3.8957364559173584,0.8020646572113037
1761340657203037200,2.791037109375,1.3867793083190918,-3.834313154220581,0.4321121573448181
1761340657213104000,2.801104248046875,1.047856330871582,-3.2875142097473145,-0.44918346405029297
1761340657223171300,2.81117138671875,0.7855781316757202,-2.611766815185547,-1.3147741556167603
1761340657233238300,2.82123828125,0.4995066523551941,-1.6553674936294556,-1.6311542987823486
1761340657243305200,2.83130517578125,-0.009444206953048706,-0.44553470611572266,-1.4047514200210571
1761340657253372200,2.8413720703125,-0.45243605971336365,0.6053474545478821,-0.9401737451553345
1761340657263439000,2.851439208984375,-0.5745012164115906,1.1614251136779785,-0.5149462819099426
1761340657273507300,2.86150732421875,-0.5169736742973328,1.2963820695877075,-0.2971525192260742
1761340657283574300,2.87157421875,-0.5513367056846619,1.1882638931274414,-0.2079877406358719
1761340657293641200,2.88164111328125,-0.7437998056411743,0.9995387196540833,-0.13135667145252228
1761340657303708400,2.89170849609375,-1.0702370405197144,0.8151124119758606,-0.04455919563770294
1761340657313775400,2.901775390625,-1.4530932903289795,0.7463716864585876,0.039423324167728424
1761340657323842300,2.91184228515625,-1.7852115631103516,0.7493203282356262,0.05240676552057266
1761340657333909200,2.9219091796875,-2.0738182067871094,0.7665519118309021,-0.010499090887606144
1761340657343977200,2.931977294921875,-2.3510351181030273,0.7952413558959961,-0.1143178939819336
1761340657354044200,2.942044189453125,-2.735059976577759,0.37959975004196167,0.05499403923749924
1761340657364111000,2.952111083984375,-2.921661615371704,-0.6736245155334473,0.38699328899383545
1761340657374178000,2.962177978515625,-2.8116812705993652,-0.9678321480751038,0.7170184254646301
1761340657384245500,2.97224560546875,-2.5262513160705566,-0.634489893913269,0.9651477932929993
1761340657394312400,2.9823125,-2.0359249114990234,-0.2532343566417694,1.1183533668518066
1761340657404379400,2.99237939453125,-1.4213098287582397,0.2158052921295166,1.1262784004211426
1761340657414447400,3.002447265625,-0.9741076827049255,0.6331756114959717,1.0128637552261353
1761340657424514300,3.012514404296875,-0.7195755243301392,0.8699156641960144,0.8431615233421326
1761340657434581200,3.022581298828125,-0.5982053875923157,0.8494977355003357,0.7134972810745239
1761340657444648200,3.032648193359375,-0.5847151279449463,0.5597255229949951,0.6376270055770874
1761340657454715100,3.042715087890625,-0.6310514807701111,0.10649394989013672,0.5681617259979248
1761340657464782300,3.0527822265625,-0.7265809178352356,-0.31459280848503113,0.4255031645298004
1761340657474849300,3.062849365234375,-0.7729580998420715,-0.5186913013458252,0.1781589239835739
1761340657484917500,3.07291748046875,-0.739450216293335,-0.46262672543525696,-0.13512416183948517
1761340657494984400,3.082984375,-0.6326777935028076,-0.2569334805011749,-0.4760702848434448
1761340657505051400,3.093051513671875,-0.48558393120765686,0.029540900141000748,-0.7997487783432007
1761340657515118300,3.103118408203125,-0.315247505903244,0.314841091632843,-1.0685447454452515
1761340657525185300,3.113185302734375,-0.1248549148440361,0.5228920578956604,-1.2380263805389404
1761340657535252200,3.123252197265625,0.09376934170722961,0.5965912342071533,-1.257922887802124
1761340657545320200,3.1333203125,0.310343474149704,0.44462326169013977,-1.117451786994934
1761340657555387100,3.14338720703125,0.49604561924934387,0.13752906024456024,-0.8113089799880981
1761340657565454300,3.153454345703125,0.6949526071548462,-0.22342140972614288,-0.4040951430797577
1761340657575521300,3.163521240234375,0.8782873153686523,-0.5263581871986389,0.03598627820611
1761340657585588200,3.173588134765625,1.0281184911727905,-0.7390214800834656,0.43652862310409546
1761340657595654400,3.183654296875,1.1421955823898315,-0.8296809196472168,0.7641654014587402
1761340657605721600,3.1937216796875,1.2180746793746948,-0.7930291891098022,0.9930339455604553
1761340657615789600,3.20378955078125,1.242824673652649,-0.6540250778198242,1.1175371408462524
1761340657625856500,3.2138564453125,1.2149443626403809,-0.41815316677093506,1.1355949640274048
1761340657635923700,3.223923828125,1.1594810485839844,-0.11376667022705078,1.0744379758834839
1761340657645990700,3.23399072265625,1.060953140258789,0.20321767032146454,0.9695203900337219
1761340657656057600,3.2440576171875,0.9171780347824097,0.5115025639533997,0.8585786819458008
1761340657666124500,3.25412451171875,0.7318774461746216,0.7411283254623413,0.7362986207008362
1761340657676191500,3.26419140625,0.5387226343154907,0.9126957654953003,0.5781804919242859
1761340657686259500,3.274259521484375,0.3982560932636261,1.1472704410552979,0.3902028799057007
1761340657696326400,3.284326416015625,0.38290104269981384,1.4686903953552246,0.1755807250738144
1761340657706393600,3.2943935546875,0.45260128378868103,1.741758942604065,-0.02892155386507511
1761340657716460500,3.30446044921875,0.541226327419281,1.9895704984664917,-0.1644904911518097
1761340657726527500,3.314527587890625,0.7711876034736633,1.737603783607483,-0.19656533002853394
1761340657736594400,3.324594482421875,1.1101112365722656,0.7294006943702698,-0.23900265991687775
1761340657746661400,3.334661376953125,1.290531873703003,-0.929561197757721,-0.4077394902706146
1761340657756729600,3.3447294921875,1.2436189651489258,-2.6864469051361084,-0.7841088771820068
1761340657766796500,3.354796630859375,1.1272268295288086,-4.181743144989014,-1.2349103689193726
1761340657776863500,3.364863525390625,0.9928909540176392,-4.593403339385986,-1.2865464687347412
1761340657786930700,3.3749306640625,0.9981887936592102,-3.2136728763580322,-0.753181517124176
1761340657796997600,3.38499755859375,1.0322320461273193,-0.8967739343643188,-0.013163925148546696
1761340657807064600,3.395064697265625,0.9710257649421692,0.8811771273612976,0.5585744380950928
1761340657817131500,3.405131591796875,0.9305775165557861,1.6825096607208252,0.8505811095237732
1761340657827199500,3.415199462890625,0.8950690627098083,1.8132396936416626,1.0570063591003418
1761340657837266400,3.425266357421875,0.7189450263977051,1.6088021993637085,1.2931536436080933
1761340657847333400,3.43533349609375,0.36128541827201843,1.1323904991149902,1.5733941793441772
1761340657857400300,3.445400390625,-0.027876148000359535,0.4651370346546173,1.8878381252288818
1761340657867467500,3.455467529296875,-0.253129243850708,-0.27027252316474915,2.2074992656707764
1761340657877534700,3.46553466796875,-0.41207990050315857,-0.8696759939193726,2.4740564823150635
1761340657887601700,3.4756015625,-0.6449642777442932,-1.2483407258987427,2.6039669513702393
1761340657897669600,3.485669677734375,-1.0280879735946655,-1.2418315410614014,2.4483044147491455
1761340657907736600,3.495736572265625,-1.5070202350616455,-0.8884036540985107,1.9554542303085327
1761340657917803500,3.505803466796875,-1.9457205533981323,-0.41774803400039673,1.2171156406402588
1761340657927870500,3.515870361328125,-2.2697110176086426,0.11375073343515396,0.3544400632381439
1761340657937937400,3.5259375,-2.404759645462036,0.5961142778396606,-0.46137407422065735
1761340657948004600,3.536004638671875,-2.3547866344451904,0.8949862122535706,-1.1018283367156982
1761340657958071600,3.546071533203125,-2.1201751232147217,1.0389986038208008,-1.511110782623291
1761340657968139800,3.556139892578125,-1.760377049446106,0.9703854918479919,-1.7187862396240234
1761340657978206700,3.566206787109375,-1.3516290187835693,0.7358571290969849,-1.747674584388733
1761340657988273700,3.576273681640625,-0.9321486949920654,0.3963184952735901,-1.6532032489776611
1761340657998340600,3.586340576171875,-0.5423207879066467,0.07933013141155243,-1.4882227182388306
1761340658008407600,3.596407470703125,-0.2368578463792801,-0.10547779500484467,-1.2296468019485474
1761340658018474500,3.606474609375,0.022895049303770065,-0.3051775097846985,-0.9063507914543152
1761340658028541400,3.61654150390625,0.21562188863754272,-0.4609391391277313,-0.5941787958145142
1761340658038609400,3.626609375,0.3465747535228729,-0.5651955008506775,-0.3411598205566406
1761340658048676600,3.636676513671875,0.4447391629219055,-0.5802873969078064,-0.17328080534934998
1761340658058743600,3.64674365234375,0.5209717154502869,-0.4910770356655121,-0.1098739430308342
1761340658068810500,3.656810546875,0.5883228182792664,-0.34519997239112854,-0.1337643563747406
1761340658078877400,3.66687744140625,0.6319400668144226,-0.15341588854789734,-0.14031226933002472
1761340658088944400,3.6769443359375,0.6427357196807861,0.007216665893793106,-0.11004891246557236
1761340658099011300,3.68701123046875,0.6469886302947998,0.10691753029823303,-0.04993845522403717
1761340658109079600,3.69707958984375,0.6460714340209961,0.12087009847164154,0.016346827149391174
1761340658119146500,3.707146484375,0.6329064965248108,0.1033782958984375,0.08739612996578217
1761340658129213700,3.717213623046875,0.5998127460479736,0.09478720277547836,0.1541770100593567
1761340658139280600,3.72728076171875,0.5653166174888611,0.08353597670793533,0.2069258689880371
1761340658149347600,3.73734765625,0.5417431592941284,0.10048247128725052,0.23122455179691315
1761340658159414500,3.74741455078125,0.5301426649093628,0.14585043489933014,0.22558048367500305
1761340658169481500,3.7574814453125,0.5202498435974121,0.19785557687282562,0.2099732905626297
1761340658179548400,3.76754833984375,0.48390138149261475,0.2622877061367035,0.21403726935386658
1761340658189616400,3.777616455078125,0.4147705137729645,0.29502514004707336,0.2836323380470276
1761340658199683300,3.787683349609375,0.3176763951778412,0.30964791774749756,0.376298725605011
1761340658209750500,3.79775048828125,0.19643573462963104,0.37818384170532227,0.4361303746700287
1761340658219817700,3.807817626953125,0.07358605414628983,0.5791246294975281,0.43808695673942566
1761340658229884700,3.817884765625,0.008220363408327103,0.8284873366355896,0.3427093029022217
1761340658239951600,3.82795166015625,0.02615605667233467,1.038282036781311,0.17607007920742035
1761340658250018600,3.8380185546875,0.12405572086572647,1.1622854471206665,-0.0979236513376236
1761340658260086500,3.84808642578125,0.2566693127155304,1.29350745677948,-0.4970773756504059
1761340658270153500,3.858153564453125,0.36427566409111023,1.425467610359192,-0.8619709610939026
1761340658280220400,3.868220458984375,0.5260460376739502,1.248354196548462,-1.0471539497375488
1761340658290287600,3.87828759765625,0.9026724100112915,0.5799537897109985,-0.9532188773155212
1761340658300354600,3.8883544921875,1.4613316059112549,-0.47369909286499023,-0.6769177317619324
1761340658310421500,3.89842138671875,1.9518728256225586,-1.6843713521957397,-0.3579203188419342
1761340658320489700,3.90848974609375,2.3268227577209473,-2.9784719944000244,-0.18728496134281158
1761340658330556700,3.918556640625,2.596043109893799,-4.253414630889893,-0.1540183424949646
1761340658340623600,3.92862353515625,2.5895578861236572,-4.742300987243652,0.003376360982656479
1761340658350690600,3.938690673828125,2.3482935428619385,-4.0761494636535645,0.25010091066360474
1761340658360757500,3.948757568359375,1.96094810962677,-2.7028534412384033,0.25320008397102356
1761340658370824400,3.958824462890625,1.4477356672286987,-1.3718539476394653,-0.06326600909233093
1761340658380891600,3.9688916015625,0.8622713088989258,-0.37047523260116577,-0.41894006729125977
1761340658390959600,3.978959716796875,0.18251992762088776,0.38471630215644836,-0.5966879725456238
1761340658401026600,3.989026611328125,-0.5827553272247314,0.9627893567085266,-0.588176965713501
1761340658411093500,3.999093505859375,-1.311403512954712,1.3167306184768677,-0.4983479976654053
1761340658421159400,4.009159423828125,-1.8871594667434692,1.4505983591079712,-0.3801931142807007
1761340658431226400,4.019226318359375,-2.275045156478882,1.371799111366272,-0.2272825837135315
1761340658441293600,4.02929345703125,-2.5038232803344727,1.1875102519989014,-0.08005616813898087
1761340658451360500,4.039360595703125,-2.5969860553741455,0.928705096244812,0.004674963653087616
1761340658461427500,4.049427490234375,-2.5927436351776123,0.7180936932563782,-0.01327764242887497
1761340658471494400,4.059494384765625,-2.4957048892974854,0.654079794883728,-0.1197018176317215
1761340658481562600,4.069562744140625,-2.3160603046417236,0.7204933166503906,-0.2907392382621765
1761340658491629600,4.079629638671875,-2.066293239593506,0.8000022768974304,-0.47495248913764954
1761340658501696500,4.089696533203125,-1.8101186752319336,0.7978981137275696,-0.6126593947410583
1761340658511763500,4.099763427734375,-1.5538851022720337,0.7065908908843994,-0.6695922017097473
1761340658521830700,4.10983056640625,-1.319117784500122,0.5760860443115234,-0.6502524018287659
1761340658531897600,4.119897705078125,-1.0948721170425415,0.5102976560592651,-0.5606700778007507
1761340658541964500,4.129964599609375,-0.9059434533119202,0.3950037658214569,-0.4753836691379547
1761340658552032500,4.140032470703125,-0.802991509437561,0.20878863334655762,-0.46371957659721375
1761340658562099500,4.150099365234375,-0.7810925245285034,-0.0015821270644664764,-0.5539788603782654
1761340658572166400,4.16016650390625,-0.7716917991638184,-0.18577566742897034,-0.7294009923934937
1761340658582233300,4.1702333984375,-0.7221440672874451,-0.27424120903015137,-0.973861038684845
1761340658592301000,4.180301025390625,-0.5794327259063721,-0.22039636969566345,-1.1880172491073608
1761340658602368000,4.190367919921875,-0.33049893379211426,-0.14995644986629486,-1.294052243232727
1761340658612435200,4.200435302734375,-0.008016766980290413,-0.13217905163764954,-1.3456621170043945
1761340658622503200,4.210503173828125,0.27944445610046387,-0.04522448033094406,-1.3112421035766602
1761340658632570000,4.220570068359375,0.5176919102668762,0.007933546788990498,-1.2114280462265015
1761340658642637000,4.230636962890625,0.7308390140533447,0.012220606207847595,-0.9893463850021362
1761340658652704000,4.2407041015625,0.8785437941551208,-0.06942978501319885,-0.6406254172325134
1761340658662771000,4.25077099609375,0.9570292830467224,-0.18797601759433746,-0.21930031478405
1761340658672838000,4.260837890625,0.9908213019371033,-0.35349440574645996,0.2024242877960205
1761340658682904800,4.27090478515625,1.001389503479004,-0.4964277744293213,0.5619887709617615
1761340658692973000,4.28097314453125,1.0256797075271606,-0.5611511468887329,0.8106065988540649
1761340658703040000,4.2910400390625,1.0746632814407349,-0.5232126116752625,0.9329884052276611
1761340658713107200,4.301107177734375,1.1296666860580444,-0.3965705335140228,0.9277185201644897
1761340658723174100,4.311174072265625,1.157942533493042,-0.22840633988380432,0.8210319876670837
1761340658733241000,4.321240966796875,1.172088623046875,-0.06845396757125854,0.689433217048645
1761340658743308000,4.33130810546875,1.1436954736709595,0.027496453374624252,0.569914698600769
1761340658753375000,4.341375,1.0532454252243042,0.04017549753189087,0.4890480637550354
1761340658763442000,4.35144189453125,0.9406775832176208,0.05256126821041107,0.43932047486305237
1761340658773510000,4.361510009765625,0.7983377575874329,0.1472472995519638,0.4346538186073303
1761340658783577000,4.3715771484375,0.6836413741111755,0.2505989372730255,0.4330962002277374
1761340658793644300,4.381644287109375,0.6382880210876465,0.4242152273654938,0.3671534061431885
1761340658803711200,4.391711181640625,0.6788475513458252,0.6495835781097412,0.1857280284166336
1761340658813778200,4.401778076171875,0.7351635694503784,0.9081892967224121,0.025812672451138496
1761340658823845000,4.41184521484375,0.7568536996841431,1.089304804801941,-0.07574841380119324
1761340658833912000,4.421912109375,0.7828413844108582,1.0309810638427734,-0.1919325441122055
1761340658843980000,4.43197998046875,0.7754404544830322,0.562220573425293,-0.4456135332584381
1761340658854047000,4.442046875,0.7587022185325623,-0.3710184097290039,-0.8217043280601501
1761340658864114000,4.452114013671875,0.7214470505714417,-1.3150765895843506,-1.150993824005127
1761340658874181000,4.46218115234375,0.7137787342071533,-2.147573471069336,-1.4026103019714355
1761340658884249000,4.4722490234375,0.8361545205116272,-2.966296911239624,-1.4739336967468262
1761340658894316000,4.48231591796875,1.0841773748397827,-3.251976728439331,-1.144450306892395
1761340658904383200,4.49238330078125,1.2470459938049316,-2.452730178833008,-0.35032030940055847
1761340658914450200,4.5024501953125,1.292304277420044,-1.061719536781311,0.4307595491409302
1761340658924517000,4.51251708984375,1.3421810865402222,-0.015707585960626602,0.798481822013855
1761340658934584000,4.522583984375,1.4370192289352417,0.5062528252601624,0.8658206462860107
1761340658944651000,4.532651123046875,1.5219309329986572,0.5285202860832214,0.9182716012001038
1761340658954719000,4.542718994140625,1.4497880935668945,0.20158879458904266,1.0855822563171387
1761340658964786200,4.5527861328125,1.2157031297683716,-0.20308618247509003,1.2971372604370117
1761340658974853000,4.56285302734375,0.8925826549530029,-0.5212122201919556,1.4109351634979248
1761340658984920000,4.572920166015625,0.5872244834899902,-0.6371780037879944,1.3356890678405762
1761340658994987000,4.582987060546875,0.32709863781929016,-0.5394991040229797,1.080822467803955
1761340659005054000,4.593053955078125,0.04076956957578659,-0.20936188101768494,0.6961104273796082
1761340659015121000,4.603120849609375,-0.3209172487258911,0.3269819915294647,0.25197774171829224
1761340659025189000,4.613189208984375,-0.7281602025032043,0.942579984664917,-0.1638200879096985
1761340659035256000,4.623256103515625,-1.0745501518249512,1.5442394018173218,-0.4569813907146454
1761340659045323000,4.633322998046875,-1.3353075981140137,2.014939785003662,-0.6278274059295654
1761340659055390200,4.64339013671875,-1.4483369588851929,2.2027344703674316,-0.6361636519432068
1761340659065457200,4.65345703125,-1.455180287361145,2.0553882122039795,-0.4939945638179779
1761340659075524000,4.663524169921875,-1.4220740795135498,1.607202410697937,-0.24269869923591614
1761340659085591000,4.673591064453125,-1.3513344526290894,1.0026499032974243,0.0004482278600335121
1761340659095659000,4.683658935546875,-1.2095106840133667,0.410143107175827,0.13957390189170837
1761340659105726000,4.693725830078125,-1.0299497842788696,-0.08465223014354706,0.09746329486370087
1761340659115793000,4.70379296875,-0.820622980594635,-0.4127715229988098,-0.12275934964418411
1761340659125860000,4.713860107421875,-0.5932570099830627,-0.5281935930252075,-0.49364104866981506
1761340659135927000,4.723927001953125,-0.42071136832237244,-0.5009233951568604,-0.9486655592918396
1761340659145994200,4.733994140625,-0.3113928437232971,-0.35612401366233826,-1.3924890756607056
1761340659156061200,4.744061279296875,-0.22556234896183014,-0.16233642399311066,-1.741442322731018
1761340659166128000,4.754128173828125,-0.1499539315700531,-0.006375841796398163,-1.9576624631881714
1761340659176196000,4.764196044921875,-0.13513877987861633,0.06646427512168884,-1.9658995866775513
1761340659186263000,4.774262939453125,-0.16192558407783508,-0.0017633913084864616,-1.7417550086975098
1761340659196330000,4.784330078125,-0.18265002965927124,-0.13453422486782074,-1.3446531295776367
1761340659206397200,4.794397216796875,-0.16249088943004608,-0.2430640310049057,-0.8828427195549011
1761340659216464100,4.804464111328125,-0.10007251799106598,-0.35614585876464844,-0.4857025146484375
1761340659226531000,4.814531005859375,0.011756543070077896,-0.4193652868270874,-0.18850865960121155
1761340659236598000,4.824597900390625,0.15852786600589752,-0.42084789276123047,0.015908386558294296
1761340659246666200,4.834666259765625,0.2895548641681671,-0.36240774393081665,0.17139039933681488
1761340659256733200,4.844733154296875,0.38588806986808777,-0.19887606799602509,0.2964484393596649
1761340659266800000,4.854800048828125,0.43826672434806824,0.0022003352642059326,0.3779255747795105
1761340659276867000,4.8648671875,0.4293144941329956,0.15348279476165771,0.45946356654167175
1761340659286934000,4.87493408203125,0.35365530848503113,0.22047831118106842,0.5527666211128235
1761340659297001200,4.885001220703125,0.24378208816051483,0.2424139678478241,0.6551569104194641
1761340659307068200,4.895068115234375,0.11054696887731552,0.27047306299209595,0.70263671875
1761340659317136100,4.90513623046875,-0.055991947650909424,0.3653644323348999,0.6259816288948059
1761340659327203000,4.915203125,-0.22250309586524963,0.6117413640022278,0.4196699261665344
1761340659337270000,4.92527001953125,-0.36625438928604126,1.0594525337219238,0.058726899325847626
1761340659347337000,4.9353369140625,-0.5028595924377441,1.7413421869277954,-0.3744477927684784
1761340659357404000,4.94540380859375,-0.4958874583244324,2.6381754875183105,-0.6702077984809875
1761340659367471000,4.95547119140625,-0.3090032637119293,3.4582862854003906,-0.6045396327972412
1761340659377538000,4.9655380859375,-0.0134557681158185,3.8286550045013428,-0.22044122219085693
1761340659387606000,4.97560595703125,0.32297465205192566,3.1594078540802,0.1897180825471878
1761340659397673200,4.985673095703125,0.5664125680923462,1.4677700996398926,0.3627932071685791
1761340659407740200,4.995740234375,0.6869894862174988,-0.40857890248298645,0.3427155911922455
1761340659417807000,5.00580712890625,0.7620863914489746,-1.759769320487976,0.3629681169986725
1761340659427874000,5.0158740234375,0.9676967859268188,-2.459468126296997,0.5145017504692078
1761340659437941000,5.02594091796875,1.2754747867584229,-2.4122893810272217,0.8816115856170654
1761340659448008000,5.036008056640625,1.4611111879348755,-1.7598810195922852,1.3386504650115967
1761340659458075100,5.0460751953125,1.4502383470535278,-0.9949944615364075,1.6966111660003662
1761340659468143000,5.05614306640625,1.1917568445205688,-0.471620112657547,1.7848671674728394
1761340659478210000,5.0662099609375,0.7587223649024963,-0.15534710884094238,1.6047629117965698
1761340659488277000,5.076277099609375,0.30125319957733154,0.045409321784973145,1.3733701705932617
1761340659498344200,5.08634423828125,-0.21275898814201355,0.12706422805786133,1.238998532295227
1761340659508411100,5.0964111328125,-0.7340260744094849,0.13074277341365814,1.1741175651550293
1761340659518478000,5.10647802734375,-1.1658473014831543,0.11836414039134979,1.1091973781585693
1761340659528546000,5.116546142578125,-1.5611566305160522,0.18401354551315308,0.9813116788864136
1761340659538613000,5.126613037109375,-1.9450246095657349,0.3122929632663727,0.7877256870269775
1761340659548680200,5.13668017578125,-2.298790216445923,0.5705079436302185,0.5639891028404236
1761340659558747100,5.1467470703125,-2.5427119731903076,0.9309356212615967,0.32010719180107117
1761340659568814000,5.15681396484375,-2.609257698059082,1.3062880039215088,0.11278807371854782
1761340659578881000,5.166881103515625,-2.5035924911499023,1.5574712753295898,-0.04781439155340195
1761340659588948000,5.176947998046875,-2.28377103805542,1.6033655405044556,-0.09444381296634674
1761340659599015200,5.18701513671875,-2.012439489364624,1.4213573932647705,-0.026284728199243546
1761340659609083100,5.197083251953125,-1.7075861692428589,1.0477725267410278,0.10354822129011154
1761340659619150000,5.207150146484375,-1.360160231590271,0.5955219864845276,0.21172237396240234
1761340659629217000,5.217217041015625,-1.0221682786941528,0.1377483308315277,0.22162970900535583
1761340659639284200,5.2272841796875,-0.6806777715682983,-0.27692341804504395,0.11065179109573364
1761340659649351200,5.23735107421875,-0.3451409637928009,-0.650530993938446,-0.11029791086912155
1761340659659418000,5.247418212890625,-0.07668955624103546,-0.8529549241065979,-0.39523085951805115
1761340659669485000,5.257485107421875,0.12352481484413147,-0.8759741187095642,-0.7285811305046082
1761340659679552000,5.267552001953125,0.27920520305633545,-0.8095011115074158,-1.0509752035140991
1761340659689620200,5.2776201171875,0.3518446981906891,-0.6905389428138733,-1.2612230777740479
1761340659699687200,5.287687255859375,0.36487793922424316,-0.62935870885849,-1.311843752861023
1761340659709754000,5.297754150390625,0.35848376154899597,-0.6558926105499268,-1.2188526391983032
1761340659719821300,5.3078212890625,0.3382309377193451,-0.6889430284500122,-1.0560437440872192
1761340659729888300,5.31788818359375,0.3057447373867035,-0.691347062587738,-0.8792822360992432
1761340659739955200,5.327955078125,0.27789419889450073,-0.6094452738761902,-0.6814349293708801
1761340659750022100,5.338022216796875,0.27465710043907166,-0.46641162037849426,-0.4883705675601959
1761340659760090000,5.348090087890625,0.29034367203712463,-0.2825872004032135,-0.3279108703136444
1761340659770157000,5.358156982421875,0.3007242679595947,-0.09741286933422089,-0.13993166387081146
1761340659780224000,5.36822412109375,0.3267987370491028,-0.05472319573163986,0.08435603976249695
1761340659790291000,5.378291015625,0.3869020640850067,-0.1267772614955902,0.29811280965805054
1761340659800358100,5.388358154296875,0.440268874168396,-0.26205411553382874,0.4692344665527344
1761340659810425000,5.398425048828125,0.4789457619190216,-0.40528354048728943,0.5874976515769958
1761340659820492300,5.4084921875,0.504059910774231,-0.5507398247718811,0.6492049098014832
1761340659830560300,5.418560302734375,0.485343873500824,-0.6861253380775452,0.651582658290863
1761340659840627200,5.428627197265625,0.4073808789253235,-0.7462365627288818,0.5773193836212158
1761340659850694100,5.438694091796875,0.31307852268218994,-0.6455942988395691,0.4465661346912384
1761340659860761000,5.448760986328125,0.20593687891960144,-0.4359630346298218,0.2501436173915863
1761340659870828000,5.458828125,0.10232125222682953,-0.12947747111320496,-0.00841145496815443
1761340659880895200,5.468895263671875,-0.011754718609154224,0.256175696849823,-0.2520422339439392
1761340659890962200,5.478962158203125,-0.07838233560323715,0.5913810133934021,-0.3941284120082855
1761340659901029000,5.489029052734375,-0.045616135001182556,0.8512194752693176,-0.3912404775619507
1761340659911097000,5.49909716796875,0.05846446007490158,0.9907842874526978,-0.2653515040874481
1761340659921164300,5.509164306640625,0.3151673376560211,1.1682944297790527,0.03550924360752106
1761340659931231200,5.519231201171875,0.7035199999809265,1.3934924602508545,0.5964756011962891
1761340659941298200,5.529298095703125,1.010849118232727,1.2356349229812622,1.207945704460144
1761340659951365000,5.539365234375,1.0699390172958374,0.43766963481903076,1.391797661781311
1761340659961432300,5.549432373046875,0.9343037605285645,-0.993776261806488,0.7662532925605774
1761340659971499300,5.559499267578125,0.6824172735214233,-2.335505962371826,-0.37446191906929016
1761340659981567200,5.569567138671875,0.6291186213493347,-3.0338611602783203,-1.4559574127197266
1761340659991634200,5.57963427734375,0.8813270330429077,-2.959645986557007,-1.8557209968566895
1761340660001701000,5.589701171875,1.1738308668136597,-2.123790979385376,-1.2522404193878174
1761340660011768000,5.59976806640625,1.416545033454895,-0.8660103678703308,0.00864696316421032
1761340660021835000,5.6098349609375,1.477142572402954,0.06293617188930511,1.206486701965332
1761340660031902000,5.61990185546875,1.2784385681152344,0.3405918776988983,1.737023115158081
1761340660041969200,5.62996923828125,1.0217756032943726,0.262048602104187,1.694808840751648
1761340660052037000,5.640037109375,0.7114559412002563,0.05892901122570038,1.3732117414474487
1761340660062104300,5.650104248046875,0.35049694776535034,-0.053797803819179535,0.9873422980308533
1761340660072171300,5.660171142578125,-0.050175536423921585,-0.06987680494785309,0.6149901747703552
1761340660082238200,5.67023828125,-0.5078714489936829,0.009466223418712616,0.2950532138347626
1761340660092305200,5.68030517578125,-0.9754136204719543,0.10914222151041031,0.0026256050914525986
1761340660102372000,5.6903720703125,-1.3856006860733032,0.2852250933647156,-0.20523038506507874
1761340660112439000,5.70043896484375,-1.7095428705215454,0.5119268298149109,-0.34870272874832153
1761340660122506200,5.71050634765625,-1.8314008712768555,0.7704033851623535,-0.4379812180995941
1761340660132574200,5.72057421875,-1.7139424085617065,1.0340725183486938,-0.44714534282684326
1761340660142641200,5.73064111328125,-1.4468601942062378,1.1908080577850342,-0.3057700991630554
1761340660152708000,5.7407080078125,-1.0948246717453003,1.1962169408798218,-0.006328438874334097
1761340660162775300,5.750775390625,-0.7147644758224487,1.0648853778839111,0.39720866084098816
1761340660172842200,5.76084228515625,-0.3612450957298279,0.7533983588218689,0.8137916326522827
1761340660182909200,5.7709091796875,-0.05070425942540169,0.2856370210647583,1.160685658454895
1761340660192976100,5.78097607421875,0.21250255405902863,-0.21556666493415833,1.3644367456436157
1761340660203043300,5.791043212890625,0.3722544312477112,-0.6378363966941833,1.3651866912841797
1761340660213111000,5.801111083984375,0.43175163865089417,-0.8795056343078613,1.154175043106079
1761340660223178200,5.81117822265625,0.4405946731567383,-0.955294668674469,0.7519177794456482
1761340660233245200,5.8212451171875,0.4086053967475891,-0.8418879508972168,0.1935967057943344
1761340660243312000,5.83131201171875,0.34420108795166016,-0.547936737537384,-0.4684904217720032
1761340660253379000,5.841379150390625,0.2532426416873932,-0.19983406364917755,-1.1260508298873901
1761340660263446000,5.851446044921875,0.15468890964984894,0.13625232875347137,-1.657454252243042
1761340660273513000,5.861512939453125,0.07107377797365189,0.4508639872074127,-1.9623059034347534
1761340660283581200,5.871581298828125,0.042308446019887924,0.6379438042640686,-2.055668592453003
1761340660293648100,5.881648193359375,0.03607010468840599,0.6858806610107422,-1.9186116456985474
1761340660303715300,5.89171533203125,0.048744622617959976,0.5327933430671692,-1.6156291961669922
1761340660313782300,5.9017822265625,0.10624448210000992,0.23026344180107117,-1.1957330703735352
1761340660323849200,5.91184912109375,0.21636353433132172,-0.1282971054315567,-0.7716494202613831
1761340660333916200,5.921916259765625,0.36339694261550903,-0.41878315806388855,-0.4066343307495117
1761340660343983000,5.931983154296875,0.5349314212799072,-0.5566304922103882,-0.12298613041639328
1761340660354050000,5.942050048828125,0.6865430474281311,-0.5695367455482483,0.045362405478954315
1761340660364118000,5.952117919921875,0.785770833492279,-0.5257232189178467,0.10662176460027695
1761340660374185000,5.96218505859375,0.8391246795654297,-0.4601399302482605,0.08949682861566544
1761340660384252200,5.972252197265625,0.8518886566162109,-0.3963276743888855,0.03393077105283737
1761340660394319000,5.982319091796875,0.8161715865135193,-0.3703126311302185,-0.014526713639497757
1761340660404386000,5.992385986328125,0.7495051622390747,-0.36718499660491943,-0.03633454069495201
1761340660414453200,6.002453369140625,0.6796433329582214,-0.3385716676712036,-0.04614806920289993
1761340660424520200,6.012520263671875,0.594279944896698,-0.28130173683166504,-0.052843257784843445
1761340660434588200,6.022588134765625,0.511181652545929,-0.20252108573913574,-0.06231182813644409
1761340660444655000,6.032655029296875,0.45945003628730774,-0.08474944531917572,-0.10743696242570877
1761340660454722000,6.04272216796875,0.389568567276001,0.054282963275909424,-0.15962322056293488
1761340660464789200,6.052789306640625,0.3095429539680481,0.3403967320919037,-0.21155193448066711
1761340660474856200,6.062856201171875,0.2286967784166336,0.7308679223060608,-0.23182669281959534
1761340660484923100,6.072923095703125,0.19291427731513977,1.0513527393341064,-0.1932111233472824
1761340660494990000,6.082989990234375,0.22933325171470642,1.1867753267288208,-0.13010935485363007
1761340660505057000,6.09305712890625,0.31256023049354553,0.9448636770248413,-0.308560848236084
1761340660515125200,6.103125244140625,0.33661359548568726,0.0348171703517437,-0.9818930625915527
1761340660525192200,6.113192138671875,0.45692962408065796,-1.455351710319519,-1.950862169265747
1761340660535259100,6.123259033203125,0.8186308741569519,-2.472804069519043,-2.4555437564849854
1761340660545326300,6.133326416015625,0.9645164608955383,-2.7965896129608154,-1.9135267734527588
1761340660555393300,6.143393310546875,0.9759445190429688,-2.5132477283477783,-0.5016570091247559
1761340660565460200,6.153460205078125,1.2586371898651123,-1.583902359008789,1.0551012754440308
1761340660575527200,6.163527099609375,1.4096823930740356,-0.5496767163276672,2.066099166870117
1761340660585595100,6.17359521484375,1.3028843402862549,0.12219272553920746,2.357647180557251
1761340660595662300,6.183662353515625,1.0851713418960571,0.482825368642807,2.219912528991699
1761340660605729300,6.193729248046875,0.7074836492538452,0.6761040091514587,1.9290666580200195
1761340660615796200,6.203796142578125,0.1919911801815033,0.7453640699386597,1.6054741144180298
1761340660625863400,6.213863525390625,-0.3440198004245758,0.7458527088165283,1.2636631727218628
1761340660635930400,6.223930419921875,-0.8356120586395264,0.7744514346122742,0.8775941133499146
1761340660645997600,6.23399755859375,-1.1842893362045288,0.7899640798568726,0.4604327976703644
1761340660656064500,6.244064453125,-1.3137668371200562,0.8156781792640686,0.07968419790267944
1761340660666132500,6.254132568359375,-1.305935263633728,0.8389731645584106,-0.20006196200847626
1761340660676199400,6.264199462890625,-1.22901451587677,0.9201084971427917,-0.35844287276268005
1761340660686266400,6.274266357421875,-1.1129270792007446,1.0095134973526,-0.3837261199951172
1761340660696333300,6.284333251953125,-0.93095463514328,1.0579270124435425,-0.31022876501083374
1761340660706400500,6.294400390625,-0.6949711441993713,1.1267056465148926,-0.184430330991745
1761340660716467500,6.304467529296875,-0.44617223739624023,1.1874208450317383,-0.049722976982593536
1761340660726534400,6.314534423828125,-0.17230954766273499,1.2267094850540161,0.0849570706486702
1761340660736602400,6.324602294921875,0.10259870439767838,1.1868035793304443,0.26353228092193604
1761340660746669300,6.33466943359375,0.32649704813957214,0.9360707402229309,0.47080981731414795
1761340660756736500,6.344736572265625,0.5189200043678284,0.5011146068572998,0.6589075326919556
1761340660766803500,6.354803466796875,0.6785666346549988,-0.017240654677152634,0.7857019305229187
1761340660776870400,6.364870361328125,0.8044423460960388,-0.43917953968048096,0.7665493488311768
1761340660786937600,6.3749375,0.8885558843612671,-0.6786932945251465,0.5671086311340332
1761340660797004500,6.385004638671875,0.9235981702804565,-0.7457615733146667,0.23723196983337402
1761340660807071500,6.395071533203125,0.8781524300575256,-0.6460892558097839,-0.20416992902755737
1761340660817139500,6.405139404296875,0.7642805576324463,-0.41557490825653076,-0.6553987860679626
1761340660827206400,6.415206298828125,0.6278886198997498,-0.18228545784950256,-1.0214436054229736
1761340660837273300,6.4252734375,0.5057879686355591,0.027186792343854904,-1.2467502355575562
1761340660847340300,6.43534033203125,0.40925106406211853,0.21694529056549072,-1.3407129049301147
1761340660857407200,6.4454072265625,0.3401794135570526,0.357471227645874,-1.2993085384368896
1761340660867474400,6.455474365234375,0.30096063017845154,0.3552400469779968,-1.1129591464996338
1761340660877541400,6.465541259765625,0.306667298078537,0.20693813264369965,-0.8225672841072083
1761340660887608600,6.475608642578125,0.3252548277378082,-0.020939234644174576,-0.48784229159355164
1761340660897676500,6.485676513671875,0.3414858281612396,-0.26131150126457214,-0.19429457187652588
1761340660907743500,6.495743408203125,0.36449766159057617,-0.4613519012928009,-0.003250589594244957
1761340660917810400,6.505810546875,0.40094906091690063,-0.6066095232963562,0.08563428372144699
1761340660927877400,6.51587744140625,0.418850839138031,-0.6944277882575989,0.13129258155822754
1761340660937944300,6.5259443359375,0.38054364919662476,-0.7224559783935547,0.15947678685188293
1761340660948011500,6.536011474609375,0.2741250693798065,-0.7020394206047058,0.2071382999420166
1761340660958078500,6.546078369140625,0.11606090515851974,-0.6557959318161011,0.25541162490844727
1761340660968145400,6.5561455078125,-0.0836639255285263,-0.5940126776695251,0.27717286348342896
1761340660978213400,6.56621337890625,-0.2938939034938812,-0.4873522222042084,0.23895806074142456
1761340660988280300,6.5762802734375,-0.4803828001022339,-0.31080248951911926,0.12314917147159576
1761340660998347500,6.586347412109375,-0.6313309669494629,-0.09628430008888245,-0.05265045166015625
1761340661008414500,6.59641455078125,-0.7254012823104858,0.12044134736061096,-0.22110632061958313
1761340661018481400,6.6064814453125,-0.7652095556259155,0.35446223616600037,-0.299319863319397
1761340661028548400,6.61654833984375,-0.694268524646759,0.547002911567688,-0.3016083240509033
1761340661038615600,6.626615478515625,-0.47308310866355896,0.6745870113372803,-0.20455420017242432
1761340661048683500,6.63668359375,-0.1628996878862381,0.814549446105957,0.012758667580783367
1761340661058750500,6.64675048828125,-0.05026547238230705,0.9333419799804688,0.23277077078819275
1761340661068817400,6.6568173828125,-0.3580499291419983,0.7588668465614319,0.2096683830022812
1761340661078884400,6.66688427734375,-0.95835942029953,-0.15466651320457458,-0.45190930366516113
1761340661088951300,6.676951416015625,-1.1781831979751587,-1.7359987497329712,-1.756035327911377
1761340661099018200,6.687018310546875,-0.6421665549278259,-2.928095579147339,-2.9886205196380615
1761340661109085400,6.69708544921875,0.1435682326555252,-3.448258638381958,-3.32275652885437
1761340661119152400,6.70715234375,0.6133891940116882,-3.5480363368988037,-2.3759374618530273
1761340661129220600,6.717220703125,0.9959426522254944,-2.9610557556152344,-0.48513859510421753
1761340661139287600,6.72728759765625,1.19538414478302,-1.4134163856506348,1.3712369203567505
1761340661149354500,6.7373544921875,0.9883293509483337,0.21384048461914062,2.219419479370117
1761340661159421400,6.74742138671875,0.7190341949462891,1.247296929359436,2.181370735168457
1761340661169488400,6.75748828125,0.4703671336174011,1.937666654586792,1.8018687963485718
1761340661179555300,6.767555419921875,0.04791221767663956,2.258270025253296,1.4841948747634888
1761340661189622500,6.77762255859375,-0.522828221321106,2.2531657218933105,1.4174221754074097
1761340661199690200,6.787690185546875,-1.0561500787734985,2.0414106845855713,1.5204788446426392
1761340661209757400,6.79775732421875,-1.4610453844070435,1.7701634168624878,1.6120634078979492
1761340661219824400,6.807824462890625,-1.686249017715454,1.5770834684371948,1.6147171258926392
1761340661229891300,6.817891357421875,-1.7159876823425293,1.3676871061325073,1.539884090423584
1761340661239958500,6.82795849609375,-1.5720462799072266,1.1129432916641235,1.398364543914795
1761340661250025500,6.838025390625,-1.3423105478286743,0.8087716698646545,1.2363556623458862
1761340661260092400,6.848092529296875,-1.1252983808517456,0.45742267370224,1.1197096109390259
1761340661270159400,6.858159423828125,-0.9314303994178772,0.10724735260009766,1.0560272932052612
1761340661280227300,6.868227294921875,-0.7278163433074951,-0.1912776529788971,1.017608880996704
1761340661290294500,6.87829443359375,-0.5121133327484131,-0.40644028782844543,0.939025342464447
1761340661300361500,6.888361572265625,-0.3098791837692261,-0.5493398308753967,0.8084372282028198
1761340661310428400,6.898428466796875,-0.19104252755641937,-0.5698416233062744,0.6219826936721802
1761340661320495400,6.908495361328125,-0.1739446222782135,-0.45142868161201477,0.365258127450943
1761340661330562300,6.918562255859375,-0.2639373540878296,-0.2998269200325012,0.08396093547344208
1761340661340629200,6.928629150390625,-0.4271499812602997,-0.14287298917770386,-0.19039951264858246
1761340661350696400,6.938696533203125,-0.6282554268836975,0.012878531590104103,-0.46846601366996765
1761340661360764400,6.948764404296875,-0.8067193031311035,0.20891737937927246,-0.7632549405097961
1761340661370831600,6.95883154296875,-0.9340298771858215,0.3911380469799042,-1.0367103815078735
1761340661380898600,6.968898681640625,-0.982658863067627,0.5145928859710693,-1.272926926612854
1761340661390965500,6.978965576171875,-0.9393396377563477,0.5510848164558411,-1.4575756788253784
1761340661401032400,6.989032470703125,-0.8226804137229919,0.5255903005599976,-1.5837035179138184
1761340661411099400,6.999099365234375,-0.6382136344909668,0.40881627798080444,-1.623049259185791
1761340661421166300,7.009166259765625,-0.403335303068161,0.19480834901332855,-1.5573056936264038
1761340661431233300,7.0192333984375,-0.15976789593696594,-0.1003817543387413,-1.3869677782058716
1761340661441301200,7.02930126953125,0.05185845494270325,-0.4469183385372162,-1.1269258260726929
1761340661451368400,7.039368408203125,0.1970023363828659,-0.8301531076431274,-0.8019086122512817
1761340661461435400,7.049435302734375,0.33469071984291077,-1.1326134204864502,-0.4682348668575287
1761340661471502300,7.05950244140625,0.4913053512573242,-1.277506947517395,-0.1958688646554947
1761340661481569500,7.069569580078125,0.6376788020133972,-1.216861605644226,0.011409853585064411
1761340661491636500,7.079636474609375,0.7418882846832275,-0.9179686903953552,0.19315753877162933
1761340661501703400,7.089703369140625,0.7612727880477905,-0.46593964099884033,0.33102181553840637
1761340661511771400,7.099771484375,0.7125385403633118,-0.030043281614780426,0.42275065183639526
1761340661521838300,7.10983837890625,0.6130779385566711,0.28947708010673523,0.49071118235588074
1761340661531905500,7.119905517578125,0.4868648648262024,0.43793153762817383,0.5556329488754272
1761340661541972500,7.129972412109375,0.32828864455223083,0.4426957368850708,0.6224886775016785
1761340661552039400,7.140039306640625,0.17416299879550934,0.31626296043395996,0.6744672060012817
1761340661562106400,7.1501064453125,0.05327676236629486,0.2208380550146103,0.6772468686103821
1761340661572173300,7.16017333984375,0.01524868793785572,0.2969842255115509,0.5760384798049927
1761340661582240300,7.170240234375,0.08718359470367432,0.5499448776245117,0.4213649332523346
1761340661592307500,7.180307373046875,0.25789007544517517,0.8560246229171753,0.21548740565776825
1761340661602374700,7.190374755859375,0.46370312571525574,1.2121661901474,0.06091000884771347
1761340661612441900,7.20044189453125,0.6640961766242981,1.5805107355117798,0.10916036367416382
1761340661622508800,7.2105087890625,0.7789888381958008,1.8509658575057983,0.39976435899734497
1761340661632575700,7.22057568359375,0.741826057434082,1.7925145626068115,0.706697940826416
1761340661642642700,7.230642578125,0.6595624685287476,1.078160047531128,0.7410730719566345
1761340661652709600,7.240709716796875,0.5842008590698242,0.002750554122030735,0.5201127529144287
1761340661662776800,7.25077685546875,0.5919284820556641,-1.2252699136734009,0.0577285960316658
1761340661672844500,7.260844482421875,0.7142347097396851,-2.702826499938965,-0.7165452837944031
1761340661682911700,7.270911865234375,1.2015448808670044,-4.364296913146973,-1.644368052482605
1761340661692978700,7.280978759765625,1.9856860637664795,-4.8921098709106445,-1.8577005863189697
1761340661703045600,7.291045654296875,2.4028420448303223,-3.8596765995025635,-0.9117267727851868
1761340661713112600,7.301112548828125,2.2759671211242676,-1.7541182041168213,0.36926698684692383
1761340661723179500,7.311179443359375,1.905883550643921,0.5196084380149841,1.2541779279708862
1761340661733246500,7.32124658203125,1.274916172027588,1.7941951751708984,1.4972566366195679
1761340661743314700,7.331314697265625,0.5230247378349304,2.242248058319092,1.420080304145813
1761340661753381600,7.341381591796875,-0.3038124740123749,2.1680421829223633,1.3289631605148315
1761340661763448800,7.35144873046875,-1.2302950620651245,1.6207925081253052,1.322608470916748
1761340661773515800,7.361515869140625,-2.155914783477783,0.7785376906394958,1.3348579406738281
1761340661783582700,7.371582763671875,-3.168642520904541,0.04997945576906204,1.0548940896987915
1761340661793649700,7.381649658203125,-3.894484043121338,-0.25036439299583435,0.30692213773727417
1761340661803716600,7.391716552734375,-3.969538927078247,0.11910636723041534,-0.5934529900550842
1761340661813783600,7.401783447265625,-3.2558536529541016,0.6405202746391296,-1.2891334295272827
1761340661823851500,7.4118515625,-2.1969759464263916,0.8635844588279724,-1.443159580230713
1761340661833918500,7.42191845703125,-1.38152277469635,0.6770076751708984,-1.0059581995010376
1761340661843985700,7.431985595703125,-0.9286020398139954,0.20728687942028046,-0.21365788578987122
1761340661854052600,7.442052490234375,-0.7019553184509277,-0.25988298654556274,0.622744083404541
1761340661864119800,7.452119873046875,-0.6412712335586548,-0.6860058307647705,1.2549412250518799
1761340661874186800,7.462186767578125,-0.6756566166877747,-0.965549886226654,1.5454596281051636
1761340661884253700,7.472253662109375,-0.7222834229469299,-1.0453933477401733,1.4582231044769287
1761340661894320600,7.482320556640625,-0.7720227837562561,-0.9988293647766113,1.064820408821106
1761340661904388600,7.492388671875,-0.7935051918029785,-0.7824269533157349,0.3790195882320404
1761340661914455600,7.50245556640625,-0.7685577273368835,-0.5128492712974548,-0.5206223130226135
1761340661924522800,7.512522705078125,-0.7087599039077759,-0.2464611977338791,-1.4232341051101685
1761340661934589700,7.522589599609375,-0.591590404510498,0.04592538997530937,-2.093130350112915
1761340661944656600,7.53265673828125,-0.35532093048095703,0.09001997113227844,-2.4660696983337402
1761340661954723600,7.5427236328125,-0.16033494472503662,-0.01727399416267872,-2.5005438327789307
1761340661964790500,7.55279052734375,-0.10871271789073944,-0.3361499607563019,-2.243098735809326
1761340661974857500,7.562857421875,-0.1472875475883484,-0.7752194404602051,-1.7925472259521484
1761340661984925700,7.57292578125,-0.20869775116443634,-1.1191576719284058,-1.261818766593933
1761340661994992600,7.58299267578125,-0.27531617879867554,-1.183915615081787,-0.7887079119682312
1761340662005059800,7.593059814453125,-0.3595238924026489,-1.0140080451965332,-0.417560875415802
1761340662015126800,7.603126708984375,-0.43778860569000244,-0.7383900880813599,-0.14635227620601654
1761340662025193700,7.61319384765625,-0.44712358713150024,-0.4473218023777008,0.005356616340577602
1761340662035260700,7.6232607421875,-0.41822484135627747,-0.19714656472206116,0.0532812662422657
1761340662045327600,7.63332763671875,-0.4105435907840729,0.0008566929027438164,0.07096236944198608
1761340662055394600,7.64339453125,-0.40752410888671875,0.12047922611236572,0.06954742968082428
1761340662065462500,7.653462646484375,-0.4152294397354126,0.10476440191268921,0.10331051051616669
1761340662075529500,7.663529541015625,-0.42274436354637146,-0.0403754785656929,0.181104376912117
1761340662085596700,7.6735966796875,-0.3997979760169983,-0.1694246381521225,0.29242968559265137
1761340662095663600,7.68366357421875,-0.3141035735607147,-0.2464754730463028,0.34178364276885986
1761340662105730800,7.693730712890625,-0.17859536409378052,-0.28367161750793457,0.2773700952529907
1761340662115797800,7.7037978515625,-0.04597872868180275,-0.34322497248649597,0.17150411009788513
1761340662125864700,7.71386474609375,-0.00048132287338376045,-0.39465615153312683,0.02718084305524826
1761340662135931600,7.723931640625,-0.03001125156879425,-0.3124278485774994,-0.20433945953845978
1761340662145999600,7.73399951171875,0.010195232927799225,0.2409159541130066,-0.31888070702552795
1761340662156066600,7.744066650390625,0.3060181140899658,0.9640853404998779,-0.183505579829216
1761340662166133800,7.7541337890625,0.7021981477737427,1.3514152765274048,0.13307233154773712
1761340662176200700,7.76420068359375,0.8974227905273438,0.9207680821418762,0.5746595859527588
1761340662186267600,7.774267578125,0.6814303994178772,-0.23017874360084534,0.9713216423988342
1761340662196334600,7.78433447265625,0.14042705297470093,-1.5671931505203247,1.0999094247817993
1761340662206401500,7.794401611328125,-0.4263235926628113,-2.5657095909118652,0.8289402723312378
1761340662216469800,7.8044697265625,-0.6999738216400146,-3.220309019088745,0.10957575589418411
1761340662226536700,7.81453662109375,-0.6918633580207825,-3.6270930767059326,-1.1875693798065186
1761340662236603600,7.824603759765625,-0.5151588916778564,-3.63284969329834,-2.477479934692383
1761340662246670800,7.8346708984375,-0.11870817840099335,-3.0064494609832764,-3.1269643306732178
1761340662256737800,7.84473779296875,0.23226423561573029,-1.9782079458236694,-2.9964733123779297
1761340662266804700,7.8548046875,0.33003291487693787,-0.7438042759895325,-2.269338846206665
1761340662276871700,7.86487158203125,0.1579868495464325,0.18586313724517822,-1.2745361328125
1761340662286938600,7.874938720703125,-0.1317324936389923,0.7373260855674744,-0.46269047260284424
1761340662297006600,7.885006591796875,-0.2581207752227783,0.855930745601654,-0.16331014037132263
1761340662307073500,7.895073486328125,-0.15377148985862732,0.5113434195518494,-0.4939645826816559
1761340662317140500,7.905140380859375,0.44757080078125,0.17210598289966583,-1.3394076824188232
1761340662327207700,7.915207763671875,0.8374762535095215,-0.5597192645072937,-1.4821163415908813
1761340662337274600,7.925274658203125,0.20332801342010498,-0.8527671098709106,-0.7598089575767517
1761340662347341800,7.935341796875,-0.495723694562912,0.15034247934818268,0.022428639233112335
1761340662357408800,7.94540869140625,-1.0553419589996338,0.37753090262413025,0.5401426553726196
1761340662367475700,7.955475830078125,-1.2187827825546265,1.0796457529067993,0.7383673191070557
1761340662377543700,7.965543701171875,-0.7144473791122437,1.8519768714904785,0.5222821235656738
1761340662387610600,7.975610595703125,-0.41934266686439514,1.909729242324829,0.28498905897140503
1761340662397677600,7.985677490234375,-0.08431887626647949,1.7211380004882812,-0.02232510596513748
1761340662407744800,7.995744873046875,0.2012355625629425,1.218140721321106,-0.1035832017660141
1761340662417811700,8.005811767578125,0.28703463077545166,0.46038806438446045,0.14920112490653992
1761340662427878700,8.015878662109374,0.3709090054035187,-0.34420081973075867,0.3555094301700592
1761340662437945600,8.025945556640625,0.5149229168891907,-0.5908838510513306,0.557452917098999
1761340662448012500,8.036012451171874,0.5749549865722656,-0.5094329714775085,0.7879617810249329
1761340662458079500,8.04607958984375,0.5477287173271179,-0.2828724980354309,0.9667549729347229
1761340662468146700,8.056146728515625,0.46119463443756104,0.010436631739139557,1.0041368007659912
1761340662478213600,8.066213623046876,0.3547725975513458,0.20349743962287903,0.7995468378067017
1761340662488281600,8.076281494140625,0.3031294345855713,0.2822670340538025,0.40801766514778137
1761340662498348800,8.086348876953124,0.3364357054233551,0.3290760815143585,-0.09196284413337708
1761340662508415700,8.096415771484375,0.4349190294742584,0.360804945230484,-0.5745003819465637
1761340662518482700,8.106482666015625,0.5065484642982483,0.35603123903274536,-0.8515093326568604
1761340662528549600,8.116549560546876,0.5350204110145569,0.34733566641807556,-0.8350692987442017
1761340662538616600,8.126616455078125,0.4799550473690033,0.33710965514183044,-0.5184116959571838
1761340662548683500,8.13668359375,0.3433835208415985,0.18746121227741241,-0.042684685438871384
1761340662558750700,8.146750732421875,0.22271834313869476,0.009234495460987091,0.40198466181755066
1761340662568818700,8.156818603515624,0.11093279719352722,-0.16615059971809387,0.5981999635696411
1761340662578885600,8.1668857421875,0.03261721879243851,-0.3462972044944763,0.48602089285850525
1761340662588952600,8.17695263671875,0.04617314040660858,-0.557395339012146,0.1290038526058197
1761340662599020000,8.18702001953125,0.16191625595092773,-0.7613801956176758,-0.33492493629455566
1761340662609087000,8.1970869140625,0.20411215722560883,-0.8517171144485474,-0.7354966998100281
1761340662619154000,8.20715380859375,0.24745909869670868,-0.7039904594421387,-0.9341549277305603
1761340662629220900,8.217220947265625,0.1917174905538559,-0.40099796652793884,-0.8175743818283081
1761340662639288000,8.2272880859375,0.04767562448978424,-0.0841132253408432,-0.47212833166122437
1761340662649356000,8.23735595703125,-0.11794447898864746,0.12828676402568817,-0.058924395591020584
1761340662659423200,8.24742333984375,-0.18459302186965942,0.22754864394664764,0.2822374701499939
1761340662669490200,8.257490234375,-0.1437699794769287,0.19213040173053741,0.5082074999809265
1761340662679557000,8.26755712890625,-0.03953065350651741,0.06714797765016556,0.5888839960098267
1761340662689624000,8.2776240234375,0.0773753672838211,-0.04795733839273453,0.5337273478507996
1761340662699691000,8.28769091796875,0.1759706437587738,-0.11685624718666077,0.4055592119693756
1761340662709758000,8.297758056640625,0.3072359561920166,-0.10712070763111115,0.32516929507255554
1761340662719825200,8.3078251953125,0.37119629979133606,-0.16318875551223755,0.2437223345041275
1761340662729892900,8.317892822265625,0.335653156042099,-0.13512396812438965,0.1683664470911026
1761340662739960000,8.3279599609375,0.26859715580940247,-0.11727067083120346,0.08743911236524582
1761340662750027000,8.338027099609375,0.190924733877182,-0.13211193680763245,-0.009346556849777699
1761340662760094000,8.348093994140624,0.1599162220954895,-0.12057778239250183,-0.11608152091503143
1761340662770161200,8.3581611328125,0.15025439858436584,-0.10814186930656433,-0.2055545449256897
1761340662780228000,8.36822802734375,0.15146853029727936,-0.11455369740724564,-0.2375393807888031
1761340662790295000,8.378294921875,0.14777761697769165,-0.13473591208457947,-0.2194673717021942
1761340662800362000,8.388362060546875,0.12352900952100754,-0.1505524218082428,-0.18143820762634277
1761340662810430000,8.398429931640624,0.10432235151529312,-0.1525212824344635,-0.17651018500328064
1761340662820497200,8.4084970703125,0.09315571933984756,-0.14036740362644196,-0.1961107701063156
1761340662830564000,8.418564208984375,0.08781470358371735,-0.09689707309007645,-0.19687514007091522
1761340662840631000,8.428631103515626,0.07693116366863251,-0.035562340170145035,-0.17142410576343536
1761340662850698000,8.438697998046875,0.07140210270881653,0.03975134715437889,-0.11876115947961807
1761340662860766000,8.448765869140624,0.07421014457941055,0.09132798761129379,-0.04268369823694229
1761340662870833000,8.4588330078125,0.059015724807977676,0.10825200378894806,0.06279975920915604
1761340662880900000,8.468900146484375,0.06102348491549492,0.12547625601291656,0.16201768815517426
1761340662890967000,8.478967041015625,0.06941546499729156,0.11010639369487762,0.23990017175674438
1761340662901034200,8.4890341796875,0.07238675653934479,0.06277216970920563,0.27179527282714844
1761340662911101200,8.49910107421875,0.09292696416378021,0.03319096937775612,0.24143005907535553
1761340662921168100,8.509168212890625,0.09915316849946976,0.0023361174389719963,0.18305516242980957
1761340662931235000,8.519235107421874,0.09765037894248962,-0.04460740089416504,0.12255780398845673
1761340662941303000,8.529302978515625,0.11599289625883102,-0.08563899248838425,0.0655701532959938
1761340662951370000,8.539369873046875,0.12323051691055298,-0.1109393760561943,0.041400350630283356
1761340662961437000,8.54943701171875,0.07681827992200851,-0.1396506428718567,0.019922222942113876
1761340662971503900,8.55950390625,0.020613431930541992,-0.1027672067284584,0.013770653866231441
1761340662981571000,8.569571044921876,-0.04016975685954094,-0.05543750524520874,0.06689325720071793
1761340662991638000,8.579637939453125,-0.09781279414892197,-0.045070551335811615,0.1256534606218338
1761340663001705000,8.589705078125,-0.11820408701896667,-0.039066191762685776,0.13646402955055237
1761340663011772000,8.59977197265625,-0.08949952572584152,-0.007693171501159668,0.10283361375331879
1761340663021840100,8.609840087890625,-0.05234549567103386,0.03093598037958145,0.06838828325271606
1761340663031907000,8.619906982421876,-0.02861766330897808,0.03107953630387783,0.05896136537194252
1761340663041974000,8.62997412109375,-0.0014896411448717117,0.02247645892202854,0.06815486401319504
1761340663052041000,8.640041015625,0.022541437298059464,-0.011169478297233582,0.07323302328586578
1761340663062108200,8.650108154296875,0.038024526089429855,-0.06281190365552902,0.0879451259970665
1761340663072175000,8.660175048828124,0.024736903607845306,-0.0759289339184761,0.10633740574121475
1761340663082242000,8.670241943359375,-0.005284112878143787,-0.00018224678933620453,0.11425258219242096
1761340663092309000,8.68030908203125,-0.045399196445941925,0.07291798293590546,0.12717841565608978
1761340663102377000,8.690376953125,-0.05794055759906769,0.05431607738137245,0.13661985099315643
1761340663112444000,8.70044384765625,-0.03910622373223305,-0.09715566039085388,0.21818703413009644
1761340663122511000,8.710510986328124,-0.002784703392535448,-0.16930362582206726,0.18818572163581848
1761340663132578000,8.720578125,0.007502632215619087,-0.12068503350019455,0.09814489632844925
1761340663142645200,8.730645263671875,-0.018430965021252632,-0.03533737733960152,-0.03586456924676895
1761340663152712200,8.740712158203126,-0.0657801702618599,0.08822022378444672,-0.13965021073818207
1761340663162779100,8.750779052734375,-0.12281336635351181,0.15084552764892578,-0.1754516214132309
1761340663172846000,8.76084619140625,-0.14408086240291595,0.1369142383337021,-0.15100014209747314
