time,seconds_elapsed,z,y,x
1761340664667773400,0.0787734375,1.5424632505118847,-0.040760830259695645,0.551479305654019
1761340664677840400,0.08884033203125,1.744324962505698,-0.16447145414575934,0.5087070625066757
1761340664687907600,0.098907470703125,2.304645892393589,-0.1398628633942455,0.5150473714441061
1761340664697974500,0.108974609375,3.150131671383977,0.04801777911800891,0.6876654532968998
1761340664708041500,0.11904150390625,3.909474121403694,0.23531262109894305,1.0564803532496094
1761340664718108400,0.1291083984375,4.6211990802019836,0.2968326549393125,1.4471600251384078
1761340664728175600,0.139175537109375,5.058341374188661,0.23032237506359815,1.5359601522281765
1761340664738242600,0.14924267578125,4.991257550475001,0.2098203063154593,1.1470113957852124
1761340664748310500,0.159310546875,4.807712416416407,0.4134052984379232,0.8395055355370045
1761340664758377500,0.16937744140625,4.463330239191651,0.8773570542212575,0.5890655975308269
1761340664768444400,0.1794443359375,3.8934658204108477,1.5307085153102873,0.16643617834746838
1761340664778511600,0.18951171875,2.7814129252821207,2.32451525272876,-0.37196927233040333
1761340664788578600,0.19957861328125,1.4845213491529226,3.026205431985855,-0.7067350415565073
1761340664798645500,0.2096455078125,0.030707272952795028,3.226215378633141,-0.5393316986773162
1761340664808712400,0.21971240234375,-1.5327432360082864,2.7290438556194303,0.10373135516932233
1761340664818779400,0.229779296875,-3.196577196216583,1.9339536542616784,0.9111583476666361
1761340664828846300,0.239846435546875,-5.517008686763048,1.1154395418923349,1.5107147979430853
1761340664838914600,0.24991455078125,-9.020674979120493,0.6009830855460837,1.4530331549555062
1761340664848981500,0.2599814453125,-13.331468970501422,0.8819968428511172,0.7246884122025221
1761340664859048700,0.270048583984375,-18.018181848621367,1.8490084490343928,-1.0728487197265029
1761340664869115600,0.28011572265625,-22.159507746613023,2.945010665333271,-3.52314548433125
1761340664879182600,0.2901826171875,-24.490948122429845,3.409695630761981,-5.549682291352749
1761340664889249500,0.30024951171875,-24.285376450002193,2.8834155021637677,-6.668425039508938
1761340664899316500,0.31031640625,-21.38149274482727,1.5706962423056363,-6.3907777264297
1761340664909383400,0.320383544921875,-16.84784861395955,-0.06469290998913348,-5.09551404376328
1761340664919451400,0.330451416015625,-12.154513102829455,-1.5267213453702628,-3.880189574730396
1761340664929518300,0.340518310546875,-8.054553818970918,-2.5346201846718786,-2.7201477247193453
1761340664939585500,0.35058544921875,-4.687312013056874,-3.1818498749449846,-1.492882204132527
1761340664949652500,0.360652587890625,-2.363772035101056,-3.5500726542234418,-0.7278454879939555
1761340664959719400,0.370719482421875,-1.9035767823070286,-4.17603743814975,-1.5941088282056153
1761340664969786600,0.38078662109375,-2.445517421373725,-3.969250836974382,-4.194167261341214
1761340664979853600,0.390853515625,-2.239402143588662,-2.085181595952809,-6.436876045259833
1761340664989920500,0.40092041015625,-0.7895978875517845,-0.2271802045803517,-6.838872207063436
1761340664999987700,0.41098779296875,1.2152666013658047,0.06131459266245365,-5.353496286907792
1761340665010055400,0.421055419921875,3.0211113237172365,-0.2932746153978631,-2.855594598302245
1761340665020122600,0.43112255859375,4.853278235805035,0.056269620765186844,-0.2491166535131633
1761340665030189600,0.441189453125,6.676145989149808,1.0124767416764051,2.1581496553994715
1761340665040256500,0.451256591796875,8.182671080318093,1.893234544251859,4.767051320204138
1761340665050323500,0.461323486328125,9.196768043607474,2.088556625343859,7.322838211545347
1761340665060390400,0.471390380859375,9.61461000931859,0.9929799409806728,9.307202933269739
1761340665070457300,0.481457275390625,8.753960563465952,-0.4195332067336887,9.901916546624898
1761340665080524500,0.491524658203125,7.39309014390111,-0.44103718253336843,8.251203349274396
1761340665090591500,0.501591552734375,6.522972027957439,-0.14906378592718392,5.742055459511279
1761340665100658400,0.511658447265625,6.411744526612758,0.11187244818471372,3.964851432971656
1761340665110726700,0.5217265625,7.116684355315566,0.2615940769661218,2.920220507469773
1761340665120793600,0.531793701171875,8.209342229622601,0.2566977197593078,2.3778549209892748
1761340665130860500,0.541860595703125,9.419813997927308,0.16584108026484026,2.1032672877416014
1761340665140927500,0.551927490234375,10.498838483679293,-0.20900807661712167,2.189000282345712
1761340665150994400,0.561994384765625,11.503998691797255,-0.4510666283123195,2.5365210498571393
1761340665161061600,0.5720615234375,12.246686359614133,-0.34328166863694787,3.1089749006092546
1761340665171128600,0.582128662109375,12.286968101119994,-0.3040115153264254,3.6993127830982204
1761340665181195500,0.592195556640625,11.498749685227871,-0.39248138754852113,4.084346996445953
1761340665191263500,0.602263427734375,10.138590628802776,-0.3806436867712065,3.9547178692311045
1761340665201330400,0.612330322265625,8.72233617566824,-0.2518699160103686,3.467956096550822
1761340665211397400,0.6223974609375,7.38536802521646,-0.41797768438737837,2.947079872822761
1761340665221464600,0.632464599609375,6.109036422035098,-0.7102692070320248,2.5682442218542096
1761340665231531500,0.642531494140625,5.118506212294101,-0.9949507295969873,2.3312070054523644
1761340665241598700,0.6525986328125,4.0639088963121175,-1.2588427082419396,1.8888348479881882
1761340665251665700,0.662665771484375,3.038462271490693,-1.3070426755264402,1.4001760095149278
1761340665261732600,0.672732666015625,2.7030209410905837,-1.1020028449531645,1.1489479168057442
1761340665271799600,0.682799560546875,3.073822923207283,-1.0771863836046307,1.087160445934534
1761340665281867500,0.692867431640625,3.8787580806225535,-1.336995769111067,1.0331485775008797
1761340665291934500,0.7029345703125,5.06388147265911,-1.3043037520818412,1.0232096595495939
1761340665302001400,0.71300146484375,6.339269657510519,-1.3753897971741855,0.8795370286088436
1761340665312068400,0.723068359375,7.281697222861647,-1.7125953607678412,0.6735140322171151
1761340665322135600,0.733135498046875,7.785715835291147,-2.0095316039457916,0.2380863601285964
1761340665332202500,0.743202392578125,7.632353073528408,-2.269177104127407,-0.4036700132999569
1761340665342269400,0.75326953125,6.625745004689693,-2.4482278493762015,-1.0491471608173102
1761340665352336600,0.763336669921875,4.645743154349923,-2.2045818823590873,-1.539242388769239
1761340665362403600,0.773403564453125,1.82556123021245,-1.42819360499233,-1.9851716541931033
1761340665372471600,0.783471435546875,-1.3773100977122783,-0.45217999638170003,-2.480804423332214
1761340665382538500,0.79353857421875,-4.173136163750291,-0.24899193115495144,-2.4371494060009717
1761340665392605400,0.80360546875,-6.311710619455575,-1.0988332019411027,-2.1114159612752497
1761340665402672600,0.813672607421875,-7.697541877275705,-1.8901317559309303,-1.862892889741063
1761340665412739600,0.823739501953125,-9.588362638384103,-2.8771865446463227,-1.704650831504166
1761340665422806500,0.833806640625,-13.69611827520728,-4.172495527759194,-1.3360685712635516
1761340665432873500,0.84387353515625,-21.18211934251785,-4.1548721927851435,-1.5684214292414485
1761340665442940400,0.8539404296875,-30.7730807652235,-1.7427125588729977,-3.733195178955793
1761340665453007400,0.86400732421875,-40.99149136519432,2.068513369746506,-8.172702644011379
1761340665463075600,0.87407568359375,-46.1816482707262,5.101309578299522,-12.022192544573544
1761340665473142500,0.884142578125,-43.20373837535381,4.844778118485212,-13.398157072895765
1761340665483209700,0.894209716796875,-34.53039214830398,2.4212281987696884,-12.750512664341926
1761340665493276700,0.904276611328125,-24.67457216694355,0.03274666982591152,-10.551225673520564
1761340665503343600,0.914343505859375,-16.202470981293917,-1.2027427814878522,-8.08032188195586
1761340665513410600,0.92441064453125,-9.626497430989145,-1.7191618796765804,-5.9599395010232925
1761340665523477500,0.9344775390625,-4.683371166476607,-1.29311118080765,-4.006625751122832
1761340665533544400,0.94454443359375,-0.8403431554049253,-0.3564630025755614,-2.1711314481779933
1761340665543611600,0.954611572265625,2.400416881409287,0.5864131102606653,-0.3083887805625796
1761340665553679400,0.964679443359375,5.272565724149346,1.3105404545143247,1.3239783204972744
1761340665563746600,0.97474658203125,7.748532644322514,2.1252368352264166,2.456583297528326
1761340665573813500,0.9848134765625,9.560512508428097,3.012079291477799,3.356214215943217
1761340665583880400,0.99488037109375,10.638822123908996,3.569637770915031,4.069779541911185
1761340665593947400,1.004947509765625,10.988583656084536,3.879598330838978,4.422364899335801
1761340665604013800,1.015013916015625,10.86886071359515,3.90426924623698,4.490222922292351
1761340665614081000,1.0250810546875,10.682489416199921,3.628652562202513,4.054554500250518
1761340665624148000,1.03514794921875,10.597723220801353,3.4098081512257457,3.2917741847366093
1761340665634215000,1.04521484375,10.684391450428961,3.0095380825623868,2.6567209622085093
1761340665644283100,1.055283203125,10.989238320600986,2.3480542414873837,2.05228061234802
1761340665654350000,1.06535009765625,11.468471451342106,1.857621232948452,1.4184044707752763
1761340665664417000,1.0754169921875,12.171258485925197,1.5109601510062813,0.8356536093492061
1761340665674484000,1.08548388671875,12.790276519453524,0.9412715271838009,0.4388589617114514
1761340665684551000,1.095551025390625,13.304792560499905,0.45872108858823774,0.28265472944509235
1761340665694618000,1.1056181640625,13.854937548810243,0.49095863984823224,0.20015867093559353
1761340665704685000,1.11568505859375,14.122945511406659,0.5863864414494484,0.1827309681314975
1761340665714752000,1.125751953125,13.91982532378435,0.6410188529342412,0.2930960439605638
1761340665724819000,1.13581884765625,13.517080389440059,0.6430117072518915,0.4149836902031675
1761340665734887000,1.145886962890625,12.912320013844965,0.6153980894654989,0.5622224161276593
1761340665744953900,1.155953857421875,11.922717440342902,0.474255196198076,0.746061089772731
1761340665755020800,1.166020751953125,10.614873093044757,0.45484600072056053,0.9157575850903987
1761340665765087700,1.176087646484375,9.057752371627092,0.538031283603236,0.9909279038216918
1761340665775155000,1.186155029296875,7.491265271449088,0.6295052330121398,0.9452313707254827
1761340665785222100,1.19622216796875,6.247976106169819,0.5748156845126301,0.8478613490153104
1761340665795289000,1.2062890625,5.579696905866265,0.4340982501156628,0.7172340776085853
1761340665805356000,1.21635595703125,5.562407917413116,0.33906485465951264,0.5829159523272887
1761340665815423000,1.226423095703125,5.9025692620724435,0.260797391896788,0.5253114662291481
1761340665825491000,1.236490966796875,6.197720667660236,0.11317019637767226,0.455974602891691
1761340665835558000,1.246557861328125,6.487226176315546,-0.11105831879023462,0.24894350716965272
1761340665845624800,1.256624755859375,6.927362975943088,-0.23130411610994486,0.07462245732387528
1761340665855692000,1.266692138671875,7.390089793041348,-0.36027561966627836,-0.15737698410646989
1761340665865759000,1.276759033203125,7.6773291103303425,-0.6125515409279614,-0.5017316705361008
1761340665875826000,1.286825927734375,7.273812607091664,-0.7383553377009928,-1.0073132214333862
1761340665885892900,1.296892822265625,5.815117773112655,-0.45307058854587373,-1.480991275330633
1761340665895959800,1.306959716796875,3.7280619077205657,-0.0977048796877265,-1.5089900199770927
1761340665906026800,1.31702685546875,1.3225216919481753,0.43926242794580755,-1.5472047459505498
1761340665916094000,1.327093994140625,-1.5650871702522038,1.0585092287287114,-2.0674889951348305
1761340665926162000,1.337161865234375,-4.55242365013957,1.5463836388260126,-2.9092411405548453
1761340665936228900,1.347228759765625,-7.091202123534679,1.7515405929729342,-3.176729755452275
1761340665946296000,1.357296142578125,-9.655444124010204,0.8792882414795458,-1.8480156386047601
1761340665956363000,1.367363037109375,-13.176551965034006,-1.4475564771100877,-0.023064356984198092
1761340665966430000,1.377429931640625,-16.841616441571713,-3.882854410025477,0.5816688383430242
1761340665976497000,1.387496826171875,-19.80901195719242,-5.3117000491857524,0.1804201339058578
1761340665986563800,1.397563720703125,-22.887606917107103,-5.085031228193641,-0.33292591351307926
1761340665996630800,1.407630859375,-28.26683794925213,-3.7341082021474836,-1.3362538647025823
1761340666006698000,1.417697998046875,-37.3705723198533,0.007214370091911405,-3.39950536839813
1761340666016765000,1.427764892578125,-44.10345317265987,4.546612918034196,-4.9898237182796
1761340666026833200,1.437833251953125,-43.01769674830437,5.712852745902538,-4.594661786410212
1761340666036900000,1.447900146484375,-35.850399227082725,3.7591961739137765,-2.679353065255284
1761340666046967000,1.457967041015625,-26.840249149107933,1.5612147127330303,-1.0088925995793192
1761340666057034000,1.468033935546875,-18.83442925816774,0.1604591862970963,-0.593329830846563
1761340666067101000,1.478100830078125,-12.059695469015836,-0.555463114593178,-0.8475211572755128
1761340666077167900,1.48816796875,-6.2213113866060965,-0.9421808240484446,-0.8941019258603453
1761340666087235000,1.498235107421875,-1.1355278787404297,-0.9946613181963563,-0.7027757825367152
1761340666097302000,1.508302001953125,3.3027702105253933,-0.6710666390649974,-0.5037760358452796
1761340666107369000,1.518368896484375,6.813271317338943,-0.201713901020959,-0.04630816218852996
1761340666117437000,1.52843701171875,9.334956032592057,0.18155987852551042,0.6949100175976752
1761340666127504000,1.53850390625,11.09573937794566,0.5879086095154286,1.6022418657787143
1761340666137570800,1.54857080078125,12.136572956991195,0.7840490943182259,2.1618021865576504
1761340666147637800,1.5586376953125,12.428888846892118,0.9774257404308766,1.8115880883090196
1761340666157704700,1.56870458984375,12.291742475914955,1.4624519945554435,1.052929236639291
1761340666167772200,1.578772216796875,12.083171037149429,1.9067161032460629,0.5357832854807376
1761340666177839000,1.588839111328125,12.001987960934638,1.8958767293237149,0.3295649857126176
1761340666187906000,1.598906005859375,12.177708100455998,1.521015827205032,0.10355404410734773
1761340666197973000,1.608972900390625,12.577532763439416,1.11120555758439,-0.21344708197787401
1761340666208040000,1.6190400390625,12.994276997041702,0.7716937628749757,-0.623413638138771
1761340666218108000,1.62910791015625,13.407000889086722,0.5494138244915753,-0.9723287826180458
1761340666228174800,1.6391748046875,13.875451929050683,0.5244292400345206,-0.9763934017084538
1761340666238241800,1.64924169921875,14.259981992268562,0.4374269561469555,-0.7637015220120549
1761340666248309000,1.65930908203125,14.376998598408699,0.47054991193935275,-0.43735199121460316
1761340666258376000,1.6693759765625,14.208586151552199,0.6498481291431933,-0.3810990658558905
1761340666268443000,1.67944287109375,13.60458331632614,1.0166142798725515,0.10904781921803951
1761340666278509800,1.689509765625,12.55519935107827,1.015337318739295,0.8416459085665643
1761340666288576800,1.69957666015625,11.277594659221172,0.47454091780427843,0.9860893046841025
1761340666298643700,1.709643798828125,10.054891770374775,0.3053503261821344,0.26272885314971206
1761340666308712000,1.7197119140625,8.85378053561151,0.7396289378333837,-0.49671442689597606
1761340666318779000,1.72977880859375,8.036452929612993,0.8516148563299327,-0.9324304874718189
1761340666328846000,1.73984619140625,7.551099854686856,0.4572769176619127,-0.913498700247705
1761340666338913000,1.7499130859375,7.3452324141830205,-0.034343839356862006,-0.7738564208015799
1761340666348980000,1.75997998046875,7.138523262158036,-0.23120606256294995,-0.8557716106832027
1761340666359047000,1.770046875,6.91318598203063,-0.251036552192457,-1.0262387981124221
1761340666369113900,1.78011376953125,6.844446207803488,-0.2967801940997131,-1.0490689079493283
1761340666379180800,1.790180908203125,6.717426678565144,-0.5214477400057017,-1.1916710601143539
1761340666389248000,1.800248046875,6.442239618119597,-0.6699814741767942,-1.4849924737960098
1761340666399315000,1.81031494140625,6.208890296450257,-0.74175703590326,-1.6871704121321438
1761340666409382000,1.8203818359375,6.070269176745414,-0.9930291138846427,-1.9117950139455495
1761340666419450000,1.8304501953125,5.762207436180114,-1.3765481734290719,-2.2001672807872295
1761340666429517000,1.84051708984375,5.0031198377043005,-1.4738409651845692,-2.642510650548339
1761340666439584000,1.850583984375,3.9976159307152033,-1.1245451508246362,-2.8244275988832115
1761340666449651000,1.86065087890625,3.0240690044790504,-0.7771250672087073,-2.6233438855245708
1761340666459718000,1.8707177734375,2.1078250971764323,-0.6931803442608565,-2.4100234986662863
1761340666469785000,1.88078515625,0.7434615747988224,-0.5424746728781611,-2.572041276049614
1761340666479852000,1.89085205078125,-0.8076040843635797,-0.3133073130685836,-3.494875667658448
1761340666489919000,1.9009189453125,-2.5478864934802052,-0.007774835252575576,-4.399650378702581
1761340666499986000,1.91098583984375,-4.429606248766183,0.14641696121282874,-4.505516060753166
1761340666510052900,1.921052978515625,-5.878108774554729,-0.4251324515128508,-3.121492144615948
1761340666520120800,1.931120849609375,-8.017143248987198,-2.1913658424332736,-0.5091498378381133
1761340666530187800,1.941187744140625,-12.751444392234086,-4.075052806138992,2.579438985085487
1761340666540254700,1.951254638671875,-22.030555203485488,-2.8572523023813963,5.073790872254968
1761340666550322200,1.961322265625,-36.495966244840616,3.060944736933708,4.842192778167128
1761340666560389000,1.97138916015625,-50.49932909901142,11.157985113978386,2.537118431228399
1761340666570456000,1.9814560546875,-55.88320123496055,14.839576362425088,1.8941329543963075
1761340666580523000,1.99152294921875,-49.81752406218052,11.42172606678009,2.077001796628535
1761340666590590000,2.00158984375,-35.66228839254379,5.082513692414761,1.2193284439772367
1761340666600657200,2.0116572265625,-22.343241681241988,0.2406486300983466,0.5375796673782169
1761340666610725000,2.02172509765625,-13.93879072101712,-3.382744203211367,0.9394307216227054
1761340666620792300,2.031792236328125,-9.43403716906905,-4.867696929518878,1.1823254318810998
1761340666630859300,2.041859375,-6.8898518681943415,-4.192169365522266,1.0489395824812353
1761340666640926500,2.051926513671875,-4.88340566304326,-2.8725629764989016,1.1163464276041835
1761340666650993400,2.061993408203125,-2.9139930112570522,-2.142953693702817,0.7980714821908622
1761340666661060400,2.072060302734375,-0.8396919980198144,-1.5788123287439346,-0.05590213915966451
1761340666671127300,2.082127197265625,1.5774842950105665,-0.5242185198932886,-0.6921649566732346
1761340666681194200,2.0921943359375,3.962404916602373,0.5665990237766877,-0.8388372808866202
1761340666691261200,2.10226123046875,6.001209669044614,1.1003449947435409,-0.6120240829877555
1761340666701328400,2.112328369140625,7.629694667974114,0.7383753575757146,0.01953808255419135
1761340666711395300,2.122395263671875,8.567158473438024,-0.3081561043178663,0.007722118684649467
1761340666721463300,2.13246337890625,9.40363969271779,-0.728296519697085,-0.8431006374195218
1761340666731530200,2.1425302734375,10.75356844702959,0.1917624158490449,-1.4756287253841758
1761340666741597200,2.15259716796875,12.50947454173565,1.1977660159885883,-1.2683182464651763
1761340666751664000,2.1626640625,14.172299032640456,1.2376640188738703,-0.79019592651017
1761340666761731300,2.1727314453125,15.364092403960226,1.104608278211206,-0.4027470532361418
1761340666771798300,2.18279833984375,15.946685371410846,0.9933699632115661,-0.3830853443022817
1761340666781865500,2.192865478515625,16.338728878998754,1.1347010725274682,-1.2455655857786536
1761340666791932400,2.202932373046875,16.482088717663288,1.1801686922386287,-1.8500322391241788
1761340666801999400,2.212999267578125,16.438932297503946,1.0962852710239588,-2.1006407386302945
1761340666812067300,2.2230673828125,16.19257736378908,0.9729274791635573,-1.9946451465897261
1761340666822134300,2.23313427734375,15.609603288066387,0.9950399422504007,-1.5882980961002409
1761340666832201200,2.243201171875,14.770952323532104,1.1912307690009474,-0.9157138920791447
1761340666842268200,2.25326806640625,13.75065299847126,1.4499289053298532,-0.20087328547835348
1761340666852335000,2.263335205078125,11.441819591259955,1.8150984345175325,0.9689151747822761
1761340666862402300,2.27340234375,9.524890575426816,1.8065160457417369,1.9908859401866792
1761340666872469200,2.28346923828125,8.766434260591865,2.3467732617661357,1.5264245543807744
1761340666882536200,2.2935361328125,7.001561015576124,2.913535038356483,1.7236052689515053
1761340666892603100,2.30360302734375,5.8156859283894295,2.8465649041503664,1.2062993049256503
1761340666902670300,2.31367041015625,5.189202381286025,2.6633579160049554,0.7756899198390543
1761340666912737300,2.3237373046875,5.112872590321302,2.3877704580649732,0.5343025454036892
1761340666922805200,2.33380517578125,5.423182986596227,1.8715961284175513,0.3671092650786042
1761340666932872200,2.3438720703125,6.019851825672387,1.40102035138458,0.4112972202427685
1761340666942939400,2.353939453125,6.82698536991477,1.048092171871662,0.39912104475870724
1761340666953006300,2.36400634765625,7.619981083211302,0.6532217702947557,0.23786774894185364
1761340666963073300,2.3740732421875,8.227265424326061,0.28236835025176404,-0.01978745420537889
1761340666973140200,2.38414013671875,8.667005918112396,0.01911824970692396,-0.262643220692873
1761340666983207200,2.394207275390625,8.848352080821991,-0.24733240044489502,-0.5223257649492472
1761340666993274000,2.404274169921875,8.662482303208112,-0.44221740529388187,-0.8958441664177924
1761340667003341300,2.41434130859375,8.201185226652026,-0.6930291722871362,-1.2288663799121975
1761340667013408300,2.424408203125,6.998872799405455,-1.2745331754572689,-1.2785890267193316
1761340667023475200,2.43447509765625,4.636737425595522,-1.7286624062106013,-1.2599379561327397
1761340667033543400,2.44454345703125,0.9183201290547848,-1.444231570471078,-0.8378856061849743
1761340667043610400,2.4546103515625,-4.1746956681519745,-0.2974723958812654,-0.6519836798671632
1761340667053677300,2.46467724609375,-9.616980830103158,0.9597069091930985,-0.1614165235545486
1761340667063744300,2.474744140625,-14.037148219394682,1.024765510689467,1.1869042110387236
1761340667073811200,2.484811279296875,-16.444192994511127,0.18583587534427642,2.511413204346597
1761340667083878400,2.49487841796875,-16.65025332723856,-2.457382631212473,3.957483242291212
1761340667093945300,2.5049453125,-18.077587977313993,-6.094629126498103,5.918340831699967
1761340667104012300,2.51501220703125,-23.18084752063751,-6.582122136062384,6.375238211992382
1761340667114079200,2.525079345703125,-31.687464723873138,-3.621136487483978,3.3100708889275787
1761340667124147200,2.535147216796875,-40.388283479738234,-0.2618419873125851,-2.0877479393094776
1761340667134214100,2.545214111328125,-43.858575910282134,2.3610430485285816,-5.8412932478547095
1761340667144281300,2.55528125,-39.817345878767966,2.1581746437102556,-5.389973375433683
1761340667154348300,2.565348388671875,-32.390169925391675,0.017175737337023017,-3.76034592847079
1761340667164415200,2.575415283203125,-24.854810660672186,-1.7337079991623758,-3.3578429861888286
1761340667174482400,2.585482421875,-17.964270225691795,-2.7922207350224255,-3.88708284137547
1761340667184549400,2.59554931640625,-11.64263559359312,-3.741078917942941,-4.600129111905396
1761340667194616300,2.6056162109375,-5.855522848737239,-4.30938617040962,-4.747659806513786
1761340667204683300,2.615683349609375,-0.7998053933113813,-3.5778748533844946,-3.97272348152101
1761340667214750200,2.625750244140625,3.2101123850941655,-2.343858397232741,-2.576671858459711
1761340667224817200,2.635817138671875,6.235214239752292,-1.8213249078169464,-1.9995694512493907
1761340667234885000,2.645885009765625,8.590314892619848,-1.5694129244968293,-2.70176860294193
1761340667244952300,2.655952392578125,10.44882445271015,-1.2051306995376945,-3.6126632581710814
1761340667255019300,2.666019287109375,11.660440130352974,-0.8155696564152837,-4.118278199881315
1761340667265086200,2.676086181640625,12.352637966382503,-0.05742123848572373,-3.8218703644916414
1761340667275153200,2.686153076171875,12.488522939121722,1.0761338788770138,-2.611583889625966
1761340667285220400,2.696220458984375,12.270101137471197,1.9834017219111322,-0.9216501502603291
1761340667295287300,2.706287353515625,12.279472192406654,2.497610012182593,0.11610891671068965
1761340667305354200,2.716354248046875,12.015544192600249,3.121818015569448,1.1414876639276743
1761340667315421400,2.72642138671875,11.52374150314331,3.3463954172402617,3.2021620106115933
1761340667325488400,2.73648828125,11.03962176940441,3.2075130162507293,4.526503026941419
1761340667335555300,2.746555419921875,10.50985087608099,2.87340527254194,4.706826568605005
1761340667345623300,2.756623291015625,10.119853195106982,2.5078794772624966,4.006840270656347
1761340667355690200,2.766690185546875,9.856755216383933,2.039998784532398,2.795750078192353
1761340667365757200,2.776757080078125,10.000643462836742,1.5349259868748486,1.9014358247555792
1761340667375824100,2.78682421875,10.19552306085825,1.298795948445797,1.419090261082351
1761340667385891000,2.79689111328125,10.242766458070278,1.2495742368981242,1.0789147417671978
1761340667395958300,2.806958251953125,10.413025994098186,1.1380068360745905,0.8487013800360262
1761340667406025200,2.817025146484375,10.697000756633281,0.9579773089215159,0.6855050603926182
1761340667416092400,2.827092529296875,10.913322955656051,1.034631363404542,0.6679754681166261
1761340667426159400,2.837159423828125,11.021667595040798,1.3208498132131994,0.8672454100515693
1761340667436226300,2.847226318359375,11.02651211246252,1.4967217822954058,1.173266438569501
1761340667446294300,2.857294189453125,10.973811618888378,1.4054963277548551,1.3996649912528694
1761340667456361200,2.867361328125,10.773790566325188,1.228981969115883,1.509662512411177
1761340667466428200,2.87742822265625,10.421960995703936,1.1805806340403855,1.5240646933816373
1761340667476495400,2.887495361328125,9.86306454566121,1.1689552243068813,1.4654880012504756
1761340667486562300,2.897562255859375,9.085148912596702,1.1711692470945416,1.173664936367795
1761340667496629200,2.907629150390625,8.386310907900333,1.0455889568790793,0.7560710271336137
1761340667506696200,2.9176962890625,7.786745178338885,0.8246985731579363,0.45409196748286484
1761340667516763100,2.92776318359375,7.51002491697669,0.6583417436569928,0.15392461516289038
1761340667526830000,2.937830078125,7.557989614200592,0.4180941869065165,0.12552609407650306
1761340667536897300,2.947897216796875,7.870894118621945,0.11419453445672988,0.04784816273872275
1761340667546965200,2.95796533203125,8.024291951698064,-0.11407836073115467,-0.09149290983770042
1761340667557032400,2.968032470703125,8.060348768985271,-0.21349355146810411,-0.28770804904559627
1761340667567099400,2.978099365234375,8.010983557313681,0.03523863277211785,-0.3243050193578005
1761340667577166300,2.988166259765625,7.4526102543622255,0.3874576411023736,-0.048824401059467344
1761340667587233300,2.9982333984375,5.862987777790427,0.5182280473068356,0.5678955663932487
1761340667597300200,3.00830029296875,2.903205075260997,0.6761199769318104,1.0727899752765893
1761340667607367000,3.018366943359375,-1.7880916235178708,1.4107505950212478,0.865157570926845
1761340667617433900,3.028433837890625,-7.414151052108407,2.3364430064097044,0.5931162976937369
1761340667627500800,3.038500732421875,-12.056063249993324,2.058323691904545,0.7238646747294813
1761340667637567700,3.048567626953125,-15.052723438543081,-0.11868307804763316,2.2879919869735836
1761340667647634700,3.058634765625,-19.355622877281903,-2.8403301014140245,3.9848692618668076
1761340667657702700,3.06870263671875,-26.251892795825004,-2.613164729076624,3.527992632101476
1761340667667769600,3.07876953125,-33.77969068537951,-0.6066684742387384,2.0872019958645103
1761340667677836800,3.0888369140625,-40.61018669376373,1.1254928069382906,1.0483237886704504
1761340667687904000,3.098904052734375,-45.58715209951401,2.539667823450267,-0.9009213966168462
1761340667697971000,3.108970947265625,-45.40655354030132,3.097526747138798,-3.7812516461163757
1761340667708038000,3.119037841796875,-39.02262056519985,1.1918826570384204,-5.36036208102405
1761340667718104800,3.129104736328125,-30.437502072179317,-1.615503644542396,-5.326751487845182
1761340667728171800,3.139171875,-22.93681664595604,-3.0080355690449476,-4.826967151984572
1761340667738238700,3.14923876953125,-17.111380307924748,-3.265577082684636,-4.56159947476387
1761340667748306000,3.159305908203125,-11.939790155696869,-2.716501184910536,-4.001116632312536
1761340667758373600,3.16937353515625,-7.111456391534209,-2.1228870572298764,-3.113428080625832
1761340667768440800,3.17944091796875,-2.6197137123286725,-1.2918858767963945,-2.244473747764528
1761340667778507800,3.1895078125,1.1377204203486442,-0.4057764109946787,-1.4080430896282194
1761340667788574700,3.19957470703125,4.176100858774781,0.14220759988948703,-0.8753569664452224
1761340667798641700,3.2096416015625,6.519861786982417,0.6603876433361321,-0.8272089485436678
1761340667808708600,3.21970849609375,8.51679256029129,1.2636126991227268,-1.3071926053911447
1761340667818775800,3.22977587890625,10.273806908500195,1.6352468942798672,-1.767130376292765
1761340667828842800,3.2398427734375,11.780175932323932,2.107940394119173,-2.009856013594568
1761340667838910000,3.249909912109375,12.912418213522434,2.559071319839358,-2.1220383314460514
1761340667848977000,3.259976806640625,13.6006693577528,2.7813968509301543,-2.0141826446220277
1761340667859043800,3.2700439453125,13.900370097208022,2.5833123193874954,-1.6564122857749461
1761340667869111800,3.28011181640625,14.305817860770224,2.1914410996265707,-1.2705134184218942
1761340667879178800,3.2901787109375,14.781511126947402,1.7464298258304596,-0.7421329565435647
1761340667889245700,3.30024560546875,15.351680666154623,1.4079782076984644,-0.29436273942813274
1761340667899312600,3.310312744140625,15.95218104621768,1.2345651760756968,0.14038531636577098
1761340667909379800,3.3203798828125,16.347426564717292,0.9965513697266578,0.4433578075006604
1761340667919446800,3.33044677734375,16.163638854074478,0.7720049477159977,0.6098111927112564
1761340667929513700,3.340513671875,15.332731635534762,0.7390541336201131,0.7271227266773581
1761340667939580700,3.35058056640625,14.075513898146152,0.8537963650874792,0.8001363788314163
1761340667949647600,3.360647705078125,12.566049246394634,0.7044941307619214,0.9070966511856764
1761340667959714800,3.37071484375,10.039946714699267,0.3715830494917929,1.0220051060654223
1761340667969781800,3.38078173828125,7.709741433635354,0.1447135182958096,1.5527259935900568
1761340667979849700,3.390849609375,6.741569186174869,0.2773421195875853,1.7174012997448442
1761340667989917000,3.4009169921875,5.357261776921153,0.37740806585084646,1.6983094996534287
1761340667999983900,3.41098388671875,4.552469242846965,0.2844494308421388,1.7957823241509496
1761340668010050800,3.42105078125,4.334083097031712,0.07402052764166146,2.0682383521974086
1761340668020117800,3.43111767578125,4.467750393721461,-0.16703016218524425,2.2223745825506747
1761340668030184700,3.441184814453125,4.86852373573184,-0.37471349300462753,2.2700229073017835
1761340668040251600,3.451251708984375,5.343007041597366,-0.47515141438543795,2.1228853036642072
1761340668050318600,3.461318603515625,5.672710120606422,-0.6173080147400498,1.8184931915223597
1761340668060385800,3.4713857421875,5.9905234398573635,-0.8247900508336722,1.2885194691032171
1761340668070452700,3.48145263671875,6.318239728963375,-1.0010060841131956,0.7485898775979876
1761340668080519700,3.491519775390625,6.728805566191673,-1.1269040619757025,0.42633810097556557
1761340668090588000,3.501587890625,7.079428683632612,-1.3285621411561965,0.2880095344765112
1761340668100654800,3.51165478515625,7.319517542690038,-1.4823672398589551,0.1904452323032543
1761340668110721800,3.5217216796875,7.580787136942147,-1.368329649529606,0.19749690438043324
1761340668120788700,3.531788818359375,7.583200627824664,-0.9798932265229523,0.3360240256588906
1761340668130855700,3.541855712890625,7.014317621296644,-0.5062808582730591,0.6602773148294537
1761340668140923000,3.5519228515625,6.066759707319736,-0.026321020692586898,1.2441640484176575
1761340668150989800,3.56198974609375,4.4004508814305066,0.20357538404390216,1.6736045358553528
1761340668161056800,3.572056884765625,1.2618027270913124,0.39651100839078424,1.7394596945568919
1761340668171123700,3.582123779296875,-3.1715164047181603,1.2058283264130354,1.0332820676874368
1761340668181190700,3.592190673828125,-7.41444389757514,2.0132221290268,0.1160552137620747
1761340668191257600,3.602257568359375,-9.831316823744773,1.261982467572391,-0.024302009020373223
1761340668201325800,3.612325927734375,-10.311499218034744,-2.166077379658818,2.0021850405752657
1761340668211392800,3.622392822265625,-13.094672138726711,-6.202821790191531,5.628685685440898
1761340668221460000,3.6324599609375,-21.61293301800489,-5.4066223124176265,6.193602126425504
1761340668231527000,3.64252685546875,-34.405091697943206,0.5267570984601975,0.7676224948480724
1761340668241593900,3.65259375,-47.45924945545196,7.115504205620288,-6.63212856824696
1761340668251660800,3.662660888671875,-52.42066190276146,9.35837373305857,-10.31588897742629
1761340668261727700,3.672727783203125,-46.90886364412307,5.918290562817454,-9.97892029132843
1761340668271794700,3.682794677734375,-34.525638816297054,1.580481577130407,-8.65864433248043
1761340668281862000,3.69286181640625,-22.270120330929753,-1.1362017594140021,-7.0657537940233945
1761340668291928800,3.7029287109375,-13.685154982644319,-2.727992885261774,-5.108190569984912
1761340668301996800,3.712996826171875,-8.049130040356516,-3.1504782928645607,-3.3604876554787158
1761340668312063700,3.723063720703125,-4.100823791733384,-2.7143103968679902,-2.1521907469950614
1761340668322130700,3.733130615234375,-1.2087088502854109,-2.035671422852576,-1.1271413778629154
1761340668332197600,3.74319775390625,0.9962485873878002,-1.522062852039933,-0.014337728298967704
1761340668342264800,3.753264892578125,2.961448005393147,-1.1632236218523233,0.5276355983277783
1761340668352331800,3.763331787109375,4.919325702208281,-0.4461502877634018,0.3815873608294874
1761340668362399000,3.77339892578125,6.695970049038529,0.409484471732378,0.06250299872942268
1761340668372466000,3.7834658203125,8.159329367697238,1.0062116899322717,-0.1461329292402137
1761340668382532900,3.793532958984375,9.172904937461018,1.4265472990900276,-0.17960951164271682
1761340668392599800,3.803599853515625,9.92593338202834,1.710082939555496,-0.031022099639184307
1761340668402666800,3.813666748046875,10.678992806255817,1.7107691682539878,0.22954744516834616
1761340668412733700,3.823733642578125,11.55992340811491,1.4905714429721235,0.5504841571368276
1761340668422801700,3.8338017578125,12.4386211363554,1.1266014257673174,0.8059706379428505
1761340668432868600,3.84386865234375,13.247136490345001,0.8728963484853506,0.988526541768387
1761340668442935800,3.853935791015625,14.032217192733286,0.7901094903357326,1.0186180209103972
1761340668453002800,3.864002685546875,14.543752172142266,0.5918007946483791,0.9558014261871576
1761340668463069700,3.874069580078125,14.868046085584163,0.41802360588833687,0.7452970465976745
1761340668473136600,3.88413671875,14.90967573456764,0.49954044410213827,0.5525895319182426
1761340668483203800,3.894203857421875,14.59617092616558,0.707560824856162,0.2010724613122642
1761340668493270800,3.904270751953125,13.895170190477371,0.8374582476183772,-0.011161536815110593
1761340668503338000,3.914337890625,13.084756309390068,0.7721258706819265,0.1034504102029372
1761340668513405000,3.924405029296875,12.261677007997035,0.5681413943804801,0.5159166285593062
1761340668523472000,3.934471923828125,11.190641182911396,0.434653545910865,0.8469191727943718
1761340668533539800,3.944539794921875,10.102983893370627,0.5733435661334544,1.0956698425393552
1761340668543606800,3.954606689453125,9.395240113162993,0.6959362188402562,1.4428200962379574
1761340668553673700,3.964673828125,8.68096605440378,0.5474305417198687,1.6520688497431575
1761340668563740700,3.97474072265625,7.729583613702655,0.5089427709586918,1.740100184417516
1761340668573807600,3.9848076171875,7.024129405736923,0.7347707572124899,1.777865413057804
1761340668583874800,3.994874755859375,6.802082983848452,0.6045557198684662,1.8118565299868583
1761340668593941800,4.004941650390625,6.802278214159608,0.6156164083912968,1.860255819235742
1761340668604008400,4.015008544921875,6.921077027541399,0.1644617730019614,1.727693999569863
1761340668614075400,4.025075439453125,7.179198971417546,-0.13211111675631254,1.4314875319711864
1761340668624142300,4.035142333984375,7.372951611235737,-0.32850407848283647,1.0538228244781493
1761340668634209500,4.04520947265625,7.431420166817307,-0.75360697510764,0.690344901639223
1761340668644276700,4.05527685546875,7.366603703513741,-1.3076783430814742,0.37530258147157725
1761340668654343700,4.06534375,7.276705990445613,-1.6626516185559332,0.03938610784038901
1761340668664410600,4.07541064453125,7.094778812977671,-1.8718015878617762,-0.328802659570612
1761340668674477600,4.0854775390625,6.589260317379236,-1.8945333518907426,-0.6933407224543392
1761340668684545500,4.095545654296875,5.677130859658122,-1.7640926160320638,-1.1915521829750388
1761340668694612500,4.105612548828125,4.623223279505968,-1.5247354322500526,-1.4828167371921241
1761340668704679400,4.115679443359375,3.6644226715028285,-1.3115364798143505,-1.4995605128526688
1761340668714746400,4.125746337890625,2.4912702877670525,-1.6009883585862814,-1.732370320817828
1761340668724813600,4.1358134765625,0.8229314173549414,-1.4473872580230236,-2.1537644260525703
1761340668734880500,4.145880615234375,-0.9252338539659977,-0.7974173291310668,-2.3680161024115978
1761340668744947500,4.155947509765625,-2.409279402300715,-0.8770699809081852,-2.1011802523344754
1761340668755014400,4.166014404296875,-3.9203520737707613,-1.6039258733429014,-0.8595038560140877
1761340668765081600,4.17608154296875,-7.740230679923296,-3.8007960122808813,2.7671760178759692
1761340668775148500,4.1861484375,-17.951861995017527,-5.217675611576437,6.692295744439959
1761340668785215700,4.1962158203125,-34.02373091241121,-0.7131845830220729,5.703395766249299
1761340668795283500,4.206283447265625,-49.86438401303291,7.4119777997225516,-1.086368930230662
1761340668805350700,4.2163505859375,-57.46230348656177,11.113106692332028,-5.888340245711803
1761340668815417600,4.22641748046875,-54.46728346643447,8.392448387742043,-6.3323348898112775
1761340668825484500,4.236484619140625,-42.84044633047581,5.173647669279575,-7.8010753169864415
1761340668835551500,4.246551513671875,-29.530232913970945,2.307849072349071,-8.828114763957261
1761340668845618400,4.256618408203125,-19.074340422570703,-1.3357926769316195,-7.770733370214701
1761340668855685400,4.266685302734375,-12.124456987261771,-3.9087779558330773,-6.398844128507375
1761340668865752600,4.276752685546875,-8.123092517668008,-4.417223444794118,-5.841126074594259
1761340668875819500,4.286819580078125,-5.853386421230435,-3.8111332818999886,-5.908834167686105
1761340668885886500,4.296886474609375,-4.032419533070922,-2.932046554341912,-5.8417567737132305
1761340668895953400,4.306953369140625,-2.026498813098669,-2.0843981904901563,-5.332842790457606
1761340668906020600,4.3170205078125,0.2446785249352455,-1.1655308028161524,-4.491630451002717
1761340668916088600,4.327088623046875,2.796249844408035,0.1337910691998899,-3.6759988352671265
1761340668926155500,4.337155517578125,5.2660909751772875,1.5405439728870987,-2.6751144047722217
1761340668936222500,4.347222412109375,7.367752289026975,2.5627713434010744,-1.3875257867783308
1761340668946289700,4.35728955078125,9.193485368674994,3.3237118762671947,-0.05746768970964476
1761340668956356600,4.367356689453125,11.074728154098986,3.8063586148440836,1.0255665979392825
1761340668966423600,4.377423583984375,12.882757234752177,4.016655854488909,1.804128566083312
1761340668976490500,4.387490478515625,14.266161557686328,3.8822120204687116,2.152826268419623
1761340668986557400,4.397557373046875,15.256585968965291,3.453332527914643,2.03671260246858
1761340668996624400,4.407624267578125,16.03828696578741,3.004663170002401,1.8001026715680957
1761340669006691300,4.41769140625,16.556636301386355,2.769159008386731,1.3833530311383306
1761340669016758500,4.427758544921875,16.841146485972402,2.608568633458018,0.8443396776951849
1761340669026826500,4.437826416015625,16.75235877997279,2.425709874228388,0.4199581541474908
1761340669036893700,4.447893798828125,16.511780091571808,2.0377350773841143,0.03677366031967103
1761340669046960600,4.457960693359375,15.950838983958958,1.509862857288867,-0.4456780671417713
1761340669057027600,4.468027587890625,15.012954907256363,1.21150330330953,-0.5685638575762509
1761340669067094500,4.478094482421875,13.76928404918313,0.8659916836634278,-0.49213455175980925
1761340669077161500,4.488161376953125,12.303056481611728,0.5684209419742227,-0.39461891103386876
1761340669087228400,4.498228515625,10.864807638812065,0.5539914346054196,-0.2727601986248046
1761340669097295600,4.508295654296875,9.561740004396437,0.4494827201217413,-0.12980923302210867
1761340669107362600,4.518362548828125,8.416761575743555,0.4449107360310852,-0.03113002840951085
1761340669117429500,4.528429443359375,7.53011084267199,0.6749700762443244,-0.06827529852055013
1761340669127496400,4.538496337890625,6.946299731603264,0.9790604289606213,-0.06317030353173614
1761340669137563400,4.5485634765625,6.479513994503021,1.1946307867027819,0.2576624366056174
1761340669147631600,4.558631591796875,6.1919958602726455,1.221241291861236,0.607207622616738
1761340669157698600,4.568698486328125,6.30334728025794,1.1836994967132806,0.7343039434183388
1761340669167765500,4.578765625,6.706848585927486,0.9968253643624484,0.6281301452666521
1761340669177832700,4.588832763671875,7.221309097394347,0.7028563004270195,0.3898524272844195
1761340669187899600,4.598899658203125,7.663899135392904,0.3330430370867252,0.17221739209741352
1761340669197966600,4.608966552734375,7.887693277731537,-0.026927462153136728,0.00693498689495027
1761340669208033500,4.619033447265625,7.907016402360797,-0.3870885155290365,-0.17373897564150392
1761340669218100500,4.6291005859375,7.795894114956259,-0.79532240267843,-0.35726189786829055
1761340669228167400,4.63916748046875,7.4764552403300994,-1.2042039400815963,-0.5237219685479998
1761340669238234600,4.649234619140625,6.962306279030442,-1.3768812047757208,-0.744051649646461
1761340669248301600,4.659301513671875,6.435473192724585,-1.2795895820640026,-0.7437173761907965
1761340669258369500,4.66936962890625,5.722878465354443,-1.1570644416354596,-0.5799844654526561
1761340669268436500,4.6794365234375,4.528938145133853,-1.148471677596122,-0.41091918071061373
1761340669278503400,4.68950341796875,2.4364824665248395,-1.048988390059024,-0.4946688560103997
1761340669288570600,4.699570556640625,-0.035654081705212594,-0.5183543040350079,-0.8008134013101458
1761340669298637600,4.709637451171875,-2.671536838546395,-0.07027092931717634,-1.0101588931880892
1761340669308704500,4.71970458984375,-5.529130501711368,-0.4854145958550274,-0.44985323393456633
1761340669318771700,4.729771728515625,-7.042941073712706,-1.7338357171952723,0.7588454602830111
1761340669328838700,4.739838623046875,-8.53786632798016,-5.370680645942688,4.976148244148493
1761340669338905600,4.749905517578125,-17.758581648886203,-9.015859103271364,11.351505114084482
1761340669348972500,4.75997265625,-35.39760519045591,-3.491171844704449,10.381468826317787
1761340669359039500,4.77003955078125,-55.523257331466674,8.151925813442467,2.3506655930295586
1761340669369107500,4.780107421875,-66.00636282396316,13.411436241185664,-4.022795087896287
1761340669379174400,4.79017431640625,-59.52763442687988,9.480698967000842,-5.8368900444597
1761340669389241300,4.800241455078125,-43.21258102250099,3.806067230682075,-7.080619354721903
1761340669399308500,4.81030859375,-27.594789751803873,-0.059454497878998515,-7.946600809252262
1761340669409375500,4.82037548828125,-16.406479642188547,-2.996482786156237,-7.58973441350758
1761340669419442400,4.8304423828125,-8.870615350556372,-4.373883484761417,-6.914759514957666
1761340669429509600,4.840509521484375,-3.8487165781021115,-4.38856404428184,-5.764235142615437
1761340669439576600,4.85057666015625,-0.4338169489562511,-3.5388705844685435,-4.116629848152399
1761340669449643500,4.8606435546875,2.226580071416497,-2.3595048791758715,-2.473312898533046
1761340669459710700,4.870710693359375,4.380281953626871,-1.16641708413139,-1.0645596148088574
1761340669469777700,4.880777587890625,6.035966509649157,-0.3020411651015282,-0.36618626848217095
1761340669479844600,4.8908447265625,7.434068635499477,0.5033094412468373,-0.4165511587155983
1761340669489912600,4.90091259765625,8.69682062613964,1.404288851661235,-0.9192718037564307
1761340669499979500,4.9109794921875,9.692626730456947,2.270564905223995,-1.1280089544776826
1761340669510046500,4.92104638671875,10.52327734388709,2.6275553657397626,-0.9960768840827047
1761340669520113400,4.931113525390625,11.34347027618885,2.424125089254975,-0.8522048581123352
1761340669530180400,4.941180419921875,12.056505148541927,2.1434297867819665,-0.9015168782919645
1761340669540247600,4.95124755859375,12.74267422580123,1.9170558570832013,-1.2692530430972575
1761340669550314500,4.961314453125,13.349624220395087,1.6188364422269164,-1.6173567250631748
1761340669560381400,4.97138134765625,13.780049773347377,1.1632523364901541,-1.7856366315811871
1761340669570448600,4.98144873046875,14.087608825087546,1.0143015459507703,-1.7872924359641968
1761340669580515600,4.991515625,14.174656993943453,1.112460891407728,-1.7702663362309337
1761340669590582500,5.00158251953125,14.238396767926215,0.8108620632462203,-1.3220512979574501
1761340669600649500,5.0116494140625,14.470131640136241,0.3143206548295915,-0.9213878460623324
1761340669610718200,5.02171826171875,14.504979666155576,0.2374206627614796,-0.8901094952233135
1761340669620785200,5.03178515625,14.08316178255081,0.3872274856083095,-0.9233404414348304
1761340669630852000,5.04185205078125,13.28932494225502,0.4784409574501216,-0.8374965338021516
1761340669640919300,5.051919189453125,12.379988914644718,0.7370271578371524,-0.6232537714019417
1761340669650986500,5.061986572265625,11.018111363863945,1.1267352082148194,-0.41540217134356494
1761340669661053400,5.072053466796875,8.98783478579223,0.9825177298076451,-0.09618877603635191
1761340669671120400,5.082120361328125,8.839915091866255,0.9731243169099092,-0.723145785870403
1761340669681187300,5.092187255859375,7.777608516681194,1.1741642641920595,-1.0177876345008612
1761340669691254300,5.102254150390625,7.4898834617018695,0.9983882297649979,-1.392515850150585
1761340669701321500,5.112321533203125,7.312846394363045,0.8874798043068498,-1.167446134918183
1761340669711388400,5.122388427734375,7.40069711177349,0.7729118334278464,-0.8737287076562642
1761340669721455400,5.132455322265625,7.63663937254548,0.6413971116621047,-0.7042195516042411
1761340669731523300,5.1425234375,7.985032538977265,0.5453663757316768,-0.7469155146449804
1761340669741590300,5.15259033203125,8.270476789543032,0.3381324691802263,-0.902277779661864
1761340669751657200,5.1626572265625,8.245922778522967,0.12196370715349912,-1.0348067199714481
1761340669761724200,5.17272412109375,7.948820823389291,-0.02377162847071886,-1.2198097246881574
1761340669771791000,5.182791015625,7.495248788127303,-0.09332184229791164,-1.4456541506201028
1761340669781858300,5.1928583984375,6.8984946088552475,-0.22479221346527337,-1.6888231477752327
1761340669791925500,5.202925537109375,6.1029153088063,-0.4835167994096875,-2.0107224211655557
1761340669801992400,5.212992431640625,5.661908156085014,-0.5621908154129982,-2.109787483290583
1761340669812059400,5.223059326171875,5.124885684198141,-0.5035682383134961,-2.1606498016521334
1761340669822126300,5.233126220703125,4.103618390887975,-0.3610258535116911,-2.088345905202627
1761340669832193300,5.243193359375,2.133811186826229,0.0007739069819450377,-1.7463694739453492
1761340669842260500,5.253260498046875,-0.49509004056453704,0.5925802545882761,-1.358287417334318
1761340669852328200,5.263328125,-3.15641060552299,0.8308927516229451,-1.177536882430315
1761340669862395400,5.2733955078125,-5.270200164061785,-0.37254824126213787,-0.3037266339704394
1761340669872462300,5.28346240234375,-6.31024814568758,-3.726242583338916,3.001973200266063
1761340669882529300,5.293529296875,-10.599654481124878,-7.836448828184604,8.940787787935138
1761340669892596200,5.30359619140625,-23.264939177775382,-6.254442671835422,12.967381975853442
1761340669902663200,5.3136630859375,-43.02570236010551,2.6212007360160348,10.893645610761642
1761340669912730000,5.323730224609375,-61.72383748021125,11.788561483353377,6.259871711146831
1761340669922797300,5.33379736328125,-67.74823805522918,14.203242452436685,5.436069940698147
1761340669932864500,5.343864501953125,-57.89506478898525,10.74804705325961,4.63595591982901
1761340669942931500,5.353931396484375,-39.90268139848709,5.976009761336446,1.8845482567101717
1761340669952998400,5.363998291015625,-24.327038832211493,1.393351424191892,-0.06318455125279725
1761340669963065300,5.3740654296875,-13.859011666381358,-1.8989555522471666,-1.6767250059634446
1761340669973133300,5.38413330078125,-7.387694422337413,-3.3867502239823337,-3.159532829196751
1761340669983200300,5.3942001953125,-3.188251266419887,-3.440355849702656,-4.1448064335837955
1761340669993267200,5.40426708984375,-0.11220014576911926,-2.875833084210753,-4.709859652690589
1761340670003334400,5.41433447265625,2.6307424713432788,-1.8859347426325082,-4.910399468430876
1761340670013401300,5.4244013671875,5.498585141322017,-0.7633642528817057,-4.649007709103822
1761340670023468300,5.43446826171875,8.001461111208796,-0.2216936629280448,-4.052167020592093
1761340670033535200,5.44453515625,9.87983214058876,0.09001242548897861,-3.4902006615847347
1761340670043602200,5.454602294921875,11.28390048136711,0.705463706446439,-3.4011557659536598
1761340670053669000,5.464669189453125,12.449488567328453,1.5549009995415806,-3.1902053230971097
1761340670063736300,5.474736328125,13.257699969935416,1.8567274989791214,-2.859761070331931
1761340670073803500,5.484803466796875,13.654718927848338,1.4898514581345021,-2.883544973762333
1761340670083870500,5.494870361328125,13.764082973408698,1.0906798522323369,-3.0198671688750385
1761340670093938400,5.5049384765625,13.898984780329465,1.0507895942620933,-2.94419175016582
1761340670104005400,5.51500537109375,14.29713537262082,1.121918455582857,-2.591323484146595
1761340670114072300,5.525072265625,14.728482132071255,1.1311918953627347,-1.992177879693359
1761340670124139300,5.53513916015625,15.208615426522492,1.0875390699885785,-1.3808461628839372
1761340670134206200,5.545206298828125,15.583774434804916,1.0349509507477284,-0.8411948037981987
1761340670144273400,5.5552734375,15.638381638783216,0.9977331268571317,-0.5327424564801156
1761340670154340400,5.56534033203125,15.379837085580824,1.1691560075759888,-0.3687356972366571
1761340670164407300,5.5754072265625,14.22894855610132,0.8792705596923828,1.1396059418343008
1761340670174474200,5.58547412109375,12.72874273108244,0.16997575065046547,1.911746644759178
1761340670184541200,5.595541259765625,11.107954716396332,0.18496157672777772,1.5869003581315277
1761340670194608000,5.605608154296875,9.471889053079485,0.6598748715084046,1.0908657301932572
1761340670204675300,5.61567529296875,7.8735969478398555,0.7725687921438366,0.9890120602630078
1761340670214742500,5.625742431640625,6.517687365552782,0.6555126577109098,1.2695230922102927
1761340670224810200,5.635810302734375,5.471318948733806,0.4570535207021981,1.4241212409868835
1761340670234877400,5.64587744140625,4.904831897431611,0.3405903837263584,1.3779881431043148
1761340670244944400,5.6559443359375,4.81893231408894,0.2658154940534383,1.2730129801526664
1761340670255011300,5.66601123046875,4.9280461842805146,0.12113375913538038,1.15324532173872
1761340670265078300,5.676078369140625,4.938077748951316,-0.09437427396029234,1.069584384168312
1761340670275145200,5.686145263671875,4.900965869653224,-0.16144859919324517,0.9833058845106512
1761340670285212200,5.696212158203125,4.861198507410288,-0.11627280203551053,0.740420964993909
1761340670295279400,5.706279296875,4.8389714780330655,-0.0083339669726789,0.43120114043466745
1761340670305346300,5.71634619140625,4.767123800918459,0.17314780481532216,0.10589673477597535
1761340670315413200,5.726413330078125,4.645306516498327,0.4502183409199118,-0.2085618672195822
1761340670325480200,5.736480224609375,4.7803901097267865,0.7671154221087694,-0.35993060562089085
1761340670335547100,5.746547119140625,5.11804210191369,1.03436511368379,-0.368356853986904
1761340670345614300,5.7566142578125,5.410405338087678,1.3199975802980362,-0.3988054029382765
1761340670355682300,5.766682373046875,5.619304109111428,1.57965988548398,-0.3285178878124803
1761340670365749200,5.776749267578125,5.103431392759084,1.8197025673121212,-0.2654159002766013
1761340670375816400,5.78681640625,4.1248704377532,2.323924739489704,-0.04653919446542859
1761340670385883400,5.79688330078125,3.036253363269567,2.6891642651736736,0.12721622085422277
1761340670395950300,5.806950439453125,1.6709627891749144,2.8561458024442192,-0.1639850588683039
1761340670406017300,5.817017333984375,0.005838204634189605,2.847915734237432,-0.0657522828489542
1761340670416084200,5.827084228515625,-2.966415272411704,1.4948932516939937,0.6945537515059113
1761340670426151200,5.837151123046875,-8.886309178772569,-0.3392369232907891,2.176298037160933
1761340670436218400,5.84721826171875,-18.52411593928337,0.036224282808601856,3.0693419784009457
1761340670446285300,5.857285400390625,-29.280113659286496,2.691836114731431,3.197845316456258
1761340670456352300,5.867352294921875,-38.09997848129272,4.522700127527117,3.5334482671588656
1761340670466419200,5.877419189453125,-44.134166290831566,4.783619008645415,3.1906416686877606
1761340670476487400,5.8874873046875,-46.00393491156101,4.737153902329505,1.1368349427510052
1761340670486554400,5.897554443359375,-41.61130902466774,3.0389696364909407,-1.529742885148525
1761340670496621300,5.907621337890625,-32.786421990585325,-0.9684744452774524,-3.8272149403899904
1761340670506688300,5.917688232421875,-23.351429712748526,-4.705651679606736,-5.7831473483562466
1761340670516755500,5.92775537109375,-15.18185484536886,-7.109149283635616,-6.819808610153198
1761340670526822400,5.937822509765625,-8.77227947948873,-7.936354140526056,-6.517588581353426
1761340670536889300,5.947889404296875,-3.935052214774489,-7.644266798684001,-5.607724730476737
1761340670546956300,5.957956298828125,-0.4332470401138067,-6.9811500957101575,-5.104861133301258
1761340670557023200,5.968023193359375,2.2218770082920787,-5.918458320599794,-4.660710714118182
1761340670567090200,5.978090087890625,4.558721288979053,-4.296002372701466,-3.785193661740422
1761340670577157400,5.988157470703125,6.272394508111477,-2.286329606719315,-2.3967418461583554
1761340670587224300,5.998224365234375,7.246490884923935,-0.287957840821892,-0.5462285089863463
1761340670597292500,6.00829248046875,7.873743078312278,1.2713348178073762,1.2225175954073666
1761340670607359000,6.01835888671875,8.342177751663327,2.2106595948375762,2.5501994465976954
1761340670617426000,6.028426025390625,8.756470500460267,2.6175796229094264,3.1940280962556598
1761340670627492900,6.038492919921875,9.201936386156081,3.0036662679195403,3.4016172459855674
1761340670637559800,6.048559814453125,9.718980484375358,3.334627238035202,3.4039167550995946
1761340670647626800,6.058626708984375,10.417164409077166,3.239828893443942,3.060883069874346
1761340670657694000,6.06869384765625,11.410463499009609,2.828454662442207,2.387172199910879
1761340670667761000,6.078760986328125,12.500996636247635,2.4168871008254587,1.606302539346367
1761340670677827800,6.088827880859375,13.482712840414047,1.953993694988638,0.9430556341215968
1761340670687894800,6.098894775390625,14.216339249897002,1.3583021765120327,0.4629252622798085
1761340670697961700,6.108961669921875,14.629420869338512,0.8289687978230417,0.24072280957940964
1761340670708028700,6.119028564453125,14.688296252155302,0.47709641097337,0.13368190973699093
1761340670718096000,6.129095947265625,14.236520452660322,0.21171485135778784,0.055226851980295026
1761340670728163800,6.139163818359375,13.34777479313612,-0.05253638905361294,-0.06965157357612624
1761340670738230800,6.149230712890625,12.063650344121456,-0.13438012113422154,-0.18359427042994647
1761340670748298000,6.159298095703125,10.501209304463863,-0.11963774842396378,-0.15413142631398513
1761340670758365000,6.169364990234375,8.896584489071369,-0.2641360165338963,-0.0017899064909201114
1761340670768431900,6.179431884765625,7.223451954641938,-0.43271622117273506,0.14598353823162613
1761340670778498800,6.189498779296875,5.945218317231536,-0.5938610151138156,0.22135186375305055
1761340670788565800,6.199565673828125,5.102796601986885,-0.8150680635686963,0.2711764730973169
1761340670798633000,6.209633056640625,4.759035771530867,-0.9880810630232095,0.38690950570031996
1761340670808700000,6.219699951171875,4.867957918542623,-1.0492805048733949,0.4793847045736387
1761340670818766800,6.229766845703125,5.1876621661067,-1.0050477607194335,0.5238706928363069
1761340670828833800,6.239833740234375,5.554405228221416,-1.0145560321684925,0.5564447460416704
1761340670838900700,6.249900634765625,5.904754204896092,-1.1262938211228697,0.5151248936597258
1761340670848967700,6.2599677734375,6.187443603795766,-1.140881806989014,0.44000312677789477
1761340670859035600,6.27003564453125,6.335754927387833,-1.0915412913672626,0.36852146996408697
1761340670869102600,6.2801025390625,6.461579109361767,-1.1147519249543547,0.2051324042275548
1761340670879169800,6.290169677734375,6.617721272709965,-1.2380585711494088,-0.08027025395249947
1761340670889237000,6.300237060546875,6.762440124768018,-1.25763888541013,-0.48807438964881
1761340670899304000,6.310303955078125,6.5389212922394275,-1.090426827319339,-0.94766546600461
1761340670909371000,6.320370849609375,5.706911665415763,-0.894706906016171,-1.3398315770588813
1761340670919437800,6.330437744140625,4.181545680177211,-0.4651588665507734,-1.3348130182445048
1761340670929504800,6.3405048828125,1.9530664971411227,-0.03656842007115483,-1.0179708821132778
1761340670939572000,6.350572021484375,-1.447686533230543,0.29025033567324277,-0.7013521064091474
1761340670949639000,6.360638916015625,-5.834921959257126,0.9127607413619756,-0.09685198918543755
1761340670959705900,6.370705810546875,-10.078059879994392,1.246805795098096,0.8848106581628322
1761340670969772800,6.380772705078125,-13.117618130028248,0.22461320363655685,2.5206629709899424
1761340670979839700,6.39083984375,-15.576888766944407,-2.4636831926614047,4.161565552943944
1761340670989906700,6.40090673828125,-18.640594785284996,-4.418780318847299,5.404118220642209
1761340670999974700,6.410974609375,-23.987997431492804,-3.2071672715529798,5.167250661718845
1761340671010041600,6.42104150390625,-31.297443662023543,-0.16282836311385035,2.599646491333842
1761340671020108800,6.43110888671875,-39.03413564642668,2.7290888638049364,-2.177874931088835
1761340671030176000,6.441176025390625,-42.20450521919727,4.692320781129598,-6.168195297968388
1761340671040243000,6.451242919921875,-38.842639261102676,4.085898609802126,-7.630324198049307
1761340671050310000,6.461309814453125,-31.094324643445013,1.4542742410577834,-8.119545638841391
1761340671060376800,6.471376953125,-21.94632793726921,-1.3978838069245219,-8.53641028395295
1761340671070443800,6.48144384765625,-13.717019608938694,-3.4410689664080736,-8.4281848870337
1761340671080511000,6.491510986328125,-7.236963178122044,-4.369846484330297,-7.426488555634021
1761340671090578000,6.501577880859375,-2.4396447299480437,-4.270786682902276,-6.451596060007811
1761340671100644900,6.511644775390625,1.0594850880235434,-3.372113503603637,-5.414000732231139
1761340671110711800,6.5217119140625,3.969271879762411,-2.1034721626639366,-4.226313042664527
1761340671120778800,6.53177880859375,6.571071165215969,-1.020709951688349,-3.1451947995036837
1761340671130846700,6.5418466796875,8.256499702116846,0.0065264791592955585,-2.4035054950743913
1761340671140913700,6.55191357421875,8.95739931551814,1.5327932126298547,-1.8692334909394381
1761340671150980600,6.561980712890625,9.59437503054142,3.0790906344771383,-0.8924096619244665
1761340671161047800,6.5720478515625,10.139618218284845,3.892716463348269,0.4920401514746248
1761340671171115000,6.582114990234375,10.975780288612842,4.200797493135929,1.8166573543973266
1761340671181182000,6.592181884765625,12.022235799193382,4.368555567736923,2.6691949515953657
1761340671191249000,6.602248779296875,13.137547988379001,4.152272239419817,3.0036285662576554
1761340671201315800,6.61231591796875,14.195931252640484,4.023921753838658,3.0871935691729187
1761340671211382800,6.6223828125,14.891616346263884,4.20795671724081,3.7646778201952573
1761340671221449700,6.63244970703125,15.378574518299102,3.409704398590326,4.158848110678791
1761340671231517000,6.642516845703125,15.431948381090164,2.126501302204281,4.09505952911824
1761340671241583900,6.652583984375,15.06232947127819,1.711752041811496,3.1956869693785905
1761340671251650800,6.66265087890625,14.825033457809687,2.000221777678281,1.7321911648586392
1761340671261718800,6.67271875,13.855640144121645,1.678432686664164,0.6741146284587681
1761340671271785700,6.68278564453125,12.065433135885,0.9234943168222903,0.6683662940651178
1761340671281852700,6.692852783203125,10.088595302534102,0.3291169496841729,1.1379006722863763
1761340671291919600,6.702919677734375,8.757064959222078,0.15861878259479997,1.0821573769502342
1761340671301986800,6.71298681640625,7.762548310193419,0.22941256674230098,1.0416421920146792
1761340671312054000,6.723053955078125,6.999090241548418,-0.04164236233457923,0.9300563056863844
1761340671322121000,6.733120849609375,6.668060297849774,-0.17180968807935715,0.7855164634570478
1761340671332188000,6.74318798828125,6.713658850464224,-0.14130495196133852,0.7918508541103452
1761340671342254800,6.7532548828125,6.8810694268018,-0.2624973824813962,0.9436658019091934
1761340671352321800,6.76332177734375,6.556836303636431,-0.5195731783054769,1.0351340522296726
1761340671362388700,6.773388671875,5.931453995773196,-0.6492981671102345,0.7917787387222052
1761340671372456000,6.7834560546875,5.483990798780321,-0.5996797843951731,0.5628074860066176
1761340671382523000,6.79352294921875,5.329333321031927,-0.6354471172165125,0.43327443957738576
1761340671392590800,6.8035908203125,5.372486234059929,-0.7798631869357079,0.4102198002696037
1761340671402657800,6.81365771484375,5.566102095755935,-0.8891737487431615,0.45748909910786895
1761340671412724700,6.823724853515625,5.797212114065885,-0.9323388636656105,0.4473374517213553
1761340671422791700,6.833791748046875,5.573351336231827,-0.8454737962916493,0.29174612718895077
1761340671432858600,6.843858642578125,4.775055178439617,-0.6851987709224223,-0.19466694165151566
1761340671442925800,6.85392578125,3.978123294737935,-0.41170872365310784,-0.7969454738356172
1761340671452993000,6.863992919921875,3.267095086032152,0.059186202331632375,-1.2022041445665061
1761340671463060000,6.87406005859375,2.3886013559311627,0.4163642943739891,-1.1942520895835012
1761340671473127000,6.884126953125,0.5534194799363613,0.6401314025752246,-1.188672608950734
1761340671483193900,6.89419384765625,-2.562389650607109,1.3963611274018883,-1.8227249838732182
1761340671493260800,6.9042607421875,-6.275927942934632,2.578139592924714,-2.347558713055402
1761340671503327700,6.91432763671875,-10.066586884343623,3.70427537394166,-2.3221610908180472
1761340671513395000,6.92439501953125,-11.85724163634777,4.463922067604959,-1.1789566130351274
1761340671523462000,6.9344619140625,-11.669444105541706,2.723964652658999,0.6241628490708768
1761340671533529900,6.94452978515625,-11.155326708424091,-1.614396706213802,2.675103298856318
1761340671543596800,6.9545966796875,-14.217178623330593,-5.361392008593678,4.420592336705327
1761340671553663700,6.964663818359375,-21.416297516226766,-4.758745848673581,3.362342635695636
1761340671563730700,6.974730712890625,-28.89243068499565,-0.15806027192920447,0.39026787621751424
1761340671573797600,6.984797607421875,-36.276321623396875,4.072590799939632,-1.875786711975187
1761340671583864800,6.99486474609375,-39.892730497837064,5.979116495180129,-3.625409634758532
1761340671593932000,7.00493212890625,-36.03288462295532,4.537628816589713,-4.563522259519994
1761340671603999000,7.0149990234375,-27.730335701847075,0.36626930712312455,-3.79893314101845
1761340671614065700,7.025065673828125,-19.421768543362617,-3.8870132832705973,-2.4301624697230757
1761340671624132600,7.035132568359375,-13.139241932815313,-7.281464583149552,-2.1438765076361594
1761340671634199600,7.045199462890625,-8.768228158271313,-8.6427371537745,-2.4431921932965515
1761340671644266500,7.0552666015625,-5.481435853600502,-7.559526906770468,-2.284148024896532
1761340671654333700,7.065333740234375,-3.0124019475609063,-5.712268224012852,-0.9511886716946959
1761340671664400600,7.075400634765625,-1.1529004538238048,-4.275071812875568,-0.011520981244649738
1761340671674468900,7.08546875,0.030409751310944557,-2.767599503985047,-0.36957857780158515
1761340671684535800,7.095535888671875,0.9932003057330846,-1.115261189650744,-0.7956748693779111
1761340671694602800,7.105602783203125,2.2362246825963257,0.15552783084213734,-0.42872017380651084
1761340671704669700,7.115669677734375,3.802663267457485,1.0897748662166298,0.6011752105847
1761340671714736600,7.125736572265625,5.466246467775106,1.5609855801522732,1.6363669843509792
1761340671724803600,7.135803466796875,7.304376672181487,1.8340122476935385,2.0146622448325155
1761340671734870800,7.145870849609375,9.336400386181474,2.220155591326952,1.9956024473145604
1761340671744937700,7.155937744140625,11.236874526298045,2.522246733050048,1.8072621879339217
1761340671755004700,7.166004638671875,13.04599549384117,2.703633520030975,1.6673904836460947
1761340671765071600,7.176071533203125,14.581686473739147,2.6478303842663764,1.5367252913817762
1761340671775138600,7.186138671875,15.652046591520309,2.306825282259285,1.2733482034564017
1761340671785205500,7.19620556640625,16.216103200805186,1.8381984473370014,0.7982501266933977
1761340671795272700,7.206272705078125,17.19149020195007,2.3804918453641233,0.5524828566733747
1761340671805339600,7.216339599609375,17.87798427338004,2.703436536154151,0.8769383173525332
1761340671815407900,7.226407958984375,17.632060716819762,2.044132669466734,1.0895743752084672
1761340671825474800,7.236474853515625,16.70478103623986,1.0381456551358104,0.9873646583821624
1761340671835541800,7.246541748046875,15.111156922811269,0.26128011564612386,0.46406201122477647
1761340671845608700,7.256608642578125,11.874774954950809,-0.09399141212254762,0.4405710993915796
1761340671855675600,7.266675537109375,10.09548330848217,-0.268038649995625,0.8902594250880181
1761340671865742600,7.27674267578125,7.946668029269576,-0.08320917521491646,0.878588934103772
1761340671875809800,7.286809814453125,6.141406659764051,-0.09987170233279466,0.8169480320964008
1761340671885876700,7.296876708984375,5.038968565198779,-0.25490400474295016,0.4595929760519415
1761340671895943700,7.306943603515625,4.470401785013079,-0.37106962007693944,0.3260873361973092
1761340671906010600,7.3170107421875,4.057087525859475,-0.5354804300766438,0.05352766511328518
1761340671916077600,7.32707763671875,3.4763451547116038,-0.5992633125487715,-0.5467008392058312
1761340671926144500,7.33714453125,3.001874123805761,-0.6089988899476826,-0.9971433442704379
1761340671936211700,7.347211669921875,2.9918811375796794,-0.826730078985542,-1.133813476037979
1761340671946278700,7.357278564453125,3.5255478692978617,-1.1761825452119112,-1.1005332107920198
1761340671956346600,7.3673466796875,4.273528967347741,-1.6395087895080447,-1.1539460173539817
1761340671966413800,7.377413818359375,4.863614920902252,-2.178046488263458,-1.3518170522764323
1761340671976480800,7.387480712890625,5.306478515145182,-2.6062124257206913,-1.6158797843784094
1761340671986547700,7.397547607421875,5.541196787080168,-2.872498971351981,-1.684222522111982
1761340671996614700,7.40761474609375,5.14523406022191,-3.1110937924593687,-1.5979548361092806
1761340672006681600,7.417681640625,4.23511185066998,-3.0001386783152815,-1.4245273375697434
1761340672016748500,7.42774853515625,2.7088305041521785,-2.368011718497425,-0.662475336330384
1761340672026815700,7.437815673828125,-0.13477438114881515,-1.1706719650968909,0.7473597512811422
1761340672036882700,7.447882568359375,-4.528914764258265,0.4732008648395538,1.7940313888303934
1761340672046949600,7.45794970703125,-8.684740312245488,1.8893739233009517,1.8811090760417282
1761340672057016600,7.4680166015625,-9.020017391994594,2.290993799138069,1.1461171503592282
1761340672067083500,7.47808349609375,-6.084978085577488,1.0540728537164628,0.06329182015270926
1761340672077150500,7.488150390625,-3.7849388101965187,-1.061222287079692,-0.7427567144650965
1761340672087217700,7.4982177734375,-3.779371239197254,-2.566148710879683,-1.241473055768013
1761340672097285600,7.50828564453125,-5.407311463725566,-2.528992115657031,-1.8164518949531017
1761340672107352800,7.518352783203125,-8.9205282592386,-0.7164984568104148,-2.906255110481381
1761340672117419800,7.528419677734375,-13.977300192153454,2.0540397309750316,-3.8244212180182338
1761340672127486700,7.53848681640625,-18.582016339588165,5.248905447098612,-3.239908388420939
1761340672137553700,7.5485537109375,-21.162383545434473,7.793442630150913,-0.9146294578433036
1761340672147620600,7.55862060546875,-21.14712986220121,8.72999925764203,2.0428218791291117
1761340672157687600,7.5686875,-19.144131167155503,7.888156803590059,4.121818064445257
1761340672167754800,7.578754638671875,-16.163008739477394,6.373647727930545,4.251282941009104
1761340672177821700,7.58882177734375,-12.933706500744819,4.850512278223038,2.572650347858667
1761340672187888600,7.598888671875,-9.80439374550581,2.9580086785942314,0.7374942638922483
1761340672197955600,7.60895556640625,-6.9064382613360875,1.144163093682006,-0.37139622168280184
1761340672208022500,7.6190224609375,-4.25120782994628,0.028019860499724745,-0.9252605958424508
1761340672218089500,7.62908935546875,-1.773130201229453,-0.5748346814740449,-1.2613248804464936
1761340672228156700,7.63915673828125,0.5658148511290549,-1.0032101700287313,-1.546741073961556
1761340672238223600,7.6492236328125,2.586835525077581,-1.2638748571902512,-1.868228697811067
1761340672248291800,7.659291748046875,4.262753890833259,-1.2551819937773048,-2.0033897401899097
1761340672258358800,7.66935888671875,5.601745656067132,-1.1722354880865662,-1.7968340251609682
1761340672268425700,7.67942578125,6.493327415800095,-1.3109484507933258,-1.293193306133151
1761340672278492700,7.68949267578125,6.967017525461316,-1.3296829618796706,-0.5879700208464637
1761340672288559600,7.6995595703125,6.9108736134350295,-1.1889658197436481,0.11955799771863966
1761340672298626600,7.70962646484375,6.626641661268472,-1.0360655609261245,0.9165113260671496
1761340672308693800,7.71969384765625,6.198622584936023,-0.7560595558915287,1.7105036491855978
1761340672318760700,7.7297607421875,5.705709888410568,-0.42487142595648764,2.2193884063467384
1761340672328827600,7.73982763671875,5.148090618696808,0.029161504815518855,2.2887172325082124
1761340672338894600,7.74989453125,4.944706811702251,0.3035321343116462,1.9450310747236013
1761340672348961500,7.75996142578125,5.315253357753157,0.016404241507872938,1.4369343992002308
1761340672359028500,7.770028564453125,6.067688512602448,-0.6248885329969227,0.8022175690196454
1761340672369095700,7.780095703125,6.784868814197182,-1.2438532289028168,0.13425174551419913
1761340672379162600,7.79016259765625,7.4074711359530685,-1.592532518799603,-0.34560824842099097
1761340672389229600,7.8002294921875,7.791402648755907,-1.6033375520609319,-0.5266484504539519
1761340672399297800,7.8102978515625,7.520014396071433,-1.2089444126069544,-0.45997766452059147
1761340672409364700,7.82036474609375,6.499373125705122,-0.5391896233255044,-0.126156482668221
1761340672419431700,7.830431640625,4.490362038502097,0.10324289579894393,0.4062555728137493
1761340672429498600,7.84049853515625,1.723435319212079,0.2874864239178598,-0.06285798617955297
1761340672439565600,7.850565673828125,-0.4899275432348251,0.07360054866392166,0.17298286004457622
1761340672449632800,7.8606328125,-2.363682603251934,-0.4152760972784832,-0.46126547584142535
1761340672459699700,7.87069970703125,-3.4195880792230366,-0.3342689256198704,-1.4650741597525774
1761340672469766700,7.8807666015625,-4.044877448105812,-0.9155062406778335,-4.510563699531555
1761340672479833600,7.89083349609375,-1.6586510046124456,-1.7362774112589656,-4.5984094485059375
1761340672489900500,7.900900634765625,1.129611932694912,-2.5260160224556922,-3.271105198456347
1761340672499967500,7.910967529296875,2.4654653999030587,-2.5053362225204703,-1.5920302683658898
1761340672510034700,7.92103466796875,2.686332256618142,-1.7868819554671644,-0.14109309930894523
1761340672520101600,7.9311015625,1.2234797184377908,-1.040192066271603,0.42844205098487437
1761340672530168600,7.94116845703125,-2.0439561438560485,-0.08400865502953529,-0.4976320531975478
1761340672540236800,7.95123681640625,-6.694302992609143,1.3323928053602576,-1.6160568945109843
1761340672550303700,7.9613037109375,-11.042014802020788,3.006440408807993,-1.1898643029533327
1761340672560370700,7.97137060546875,-12.638581398642062,3.928290465554595,-0.608176979105547
1761340672570437600,7.981437744140625,-11.79950022599697,3.7215976801425215,0.7551551543977111
1761340672580504600,7.991504638671875,-7.940104432970285,2.7743358265027402,1.6016718108057975
1761340672590571500,8.001571533203125,-3.098585608541965,1.651611169103533,1.3697778025113045
1761340672600638700,8.011638671875,0.9617863458156585,0.5698589023554698,0.823789057097584
1761340672610706000,8.021705810546875,4.007572676584124,-0.31435484936013813,0.6050147887475789
1761340672620772900,8.03177294921875,5.94304740293324,-0.9632982116833329,0.5179038203211501
1761340672630839800,8.04183984375,6.797980224704742,-1.1051292333453893,0.6014309754440561
1761340672640906800,8.05190673828125,6.706205027326941,-0.994708737534657,0.45065446731485426
1761340672650973700,8.0619736328125,5.9705374674052,-0.9928836409993469,0.0033640330730006097
1761340672661041000,8.072041015625,4.9127498309493065,-1.092627186907828,-0.40442327935267236
1761340672671107800,8.08210791015625,3.5151655914932487,-0.9269527867130934,-0.5711889088502153
1761340672681174800,8.0921748046875,2.446414662474394,-0.6136189509637654,-0.3996742947272956
1761340672691241700,8.10224169921875,1.6456319485634565,-0.41388869804069395,-0.03653992462903261
1761340672701309700,8.112309814453125,0.6646914049446583,-0.14707127866940573,0.21930830216147004
1761340672711376600,8.122376708984374,-0.682556731981039,0.1692703423274681,0.2632503197405487
1761340672721443800,8.13244384765625,-2.534011697384715,0.4751383357081562,0.16182072044126689
1761340672731510800,8.1425107421875,-4.454035172101855,0.5765490841764956,-0.25858912299647924
1761340672741578000,8.152577880859376,-5.530583038607239,0.3628049554808065,-0.9399211354881525
1761340672751645000,8.16264501953125,-5.484215839707851,0.024958034376846624,-1.470406022299826
1761340672761711900,8.1727119140625,-4.469833629736304,-0.14066738471016288,-1.4254608190275728
1761340672771778800,8.18277880859375,-2.848935724934935,-0.20769023548420518,-0.8310338405940682
1761340672781845800,8.192845703125,-1.3311486505180596,-0.3010072372102178,-0.15257672595158217
1761340672791912700,8.20291259765625,-0.11968904021978377,-0.2751728857897222,0.3775271987184882
1761340672801980000,8.21297998046875,0.6275532221615314,-0.16629242249522358,0.6460623269941658
1761340672812046800,8.223046875,1.0472329246938228,-0.1714549928901717,0.7805435704153031
1761340672822113800,8.23311376953125,1.3011807977557182,-0.2670353912372142,0.8861091004755347
1761340672832180700,8.2431806640625,1.5333563994705677,-0.22847859209412708,0.9394722957421093
1761340672842247700,8.25324755859375,1.6903665778249501,-0.13165866028107703,0.9683833329278975
1761340672852314600,8.263314697265624,1.743475067678094,-0.16930946876145897,0.8391649784710258
1761340672862382800,8.2733828125,1.5560446166187525,-0.2038674257930368,0.5957146801564842
1761340672872449800,8.28344970703125,1.0808674832701683,-0.1847278410371393,0.23042298589386045
1761340672882516700,8.293516845703126,0.5408282939106226,-0.13869500692496076,-0.1347181209169328
1761340672892584000,8.303583984375,0.13408464531898498,-0.15095254054954274,-0.41045046722032125
1761340672902651000,8.31365087890625,-0.0928881270557642,-0.16927089031673967,-0.5434245209489017
1761340672912717800,8.3237177734375,-0.3262953163921833,-0.15059075803244484,-0.5369505026292055
1761340672922784800,8.33378466796875,-0.55567865704,-0.0558989151561167,-0.41013767494410275
1761340672932851700,8.343851806640625,-0.7347668116897345,0.12123587693613953,-0.07347520525120198
1761340672942918700,8.353918701171875,-0.9453887532442807,0.03168089462476782,0.14193623560220003
1761340672952985900,8.36398583984375,-1.0262988577365875,-0.15815487314378843,-0.012699834031984209
1761340672963052800,8.374052734375,-0.8959224192857742,-0.2546364215816371,-0.32399383451677854
1761340672973119700,8.38411962890625,-0.5976502513289451,-0.29491500301603224,-0.4701180963933468
1761340672983187700,8.394187744140625,-0.00844224965274334,-0.22282038366934284,-0.04917969903685152
1761340672993256000,8.404255859375,-0.19830606533885,-0.1274756755080074,0.061633741614222526
1761340673003323000,8.414322998046876,-0.5307072973906993,-0.004202913316246122,0.03128222329653799
1761340673013389800,8.424389892578125,-0.8166361166030168,0.0030150735048577186,-0.055198740130662914
1761340673023456800,8.434456787109376,-0.8980565087050199,-0.14288765457551925,-0.14356127952076495
1761340673033523700,8.444523681640625,-0.6567559357702731,-0.16813978566126897,-0.3011916356001049
1761340673043591000,8.4545908203125,-0.28602526532411576,-0.13282560343490912,-0.41539062703624363
1761340673053657900,8.464657958984375,0.035140286964178084,-0.24483134087678043,-0.3629202889561653
1761340673063724800,8.474724853515625,0.31320027249753474,-0.2767081690656021,-0.2245492715548724
1761340673073791700,8.484791748046876,0.6240951906621456,-0.24789960587359963,-0.07102313592396677
1761340673083858700,8.494858642578125,0.7282920627176761,-0.39764461553059516,-0.05889065345115959
1761340673093925600,8.504925537109376,0.7894020727187394,-0.29858797417404126,-0.028782734631001946
1761340673103992600,8.51499267578125,0.7542658774077892,-0.23524744690824298,0.025655031064525245
1761340673114059800,8.525059814453124,0.5114508082568645,-0.3989969069223851,0.03992722897976637
1761340673124126700,8.535126708984375,0.36585458884239197,-0.34394035174138843,0.06520020192414522
1761340673134193700,8.545193603515624,0.3570364916145801,-0.2632189930205233,0.14882453381121158
1761340673144262000,8.555261962890626,0.35980244919657706,-0.3386294589169323,0.18630407737791538
1761340673154328800,8.565328857421875,0.32607787424921986,-0.2965723783016205,0.09271700827255845
1761340673164395800,8.575395751953126,0.1730927136272192,-0.2981609626673162,-0.09009915392436087
1761340673174462700,8.585462646484375,-0.16680793426930904,-0.40277112823147326,-0.3287547653082758
1761340673184529700,8.59552978515625,-0.4329173697680235,-0.23466880677007138,-0.2778773224428296
1761340673194596900,8.605596923828125,-0.5438701458245515,-0.12765123300431294,0.007686535914614796
1761340673204663800,8.615663818359375,-0.5507283411562442,-0.15926904493076727,0.18193667594864962
1761340673214730800,8.625730712890626,-0.6086503687709569,-0.23357204277561977,0.1279759531803429
1761340673224797700,8.635797607421875,-0.6708405752241611,-0.4363254611784592,0.05533091514296829
1761340673234864600,8.64586474609375,-0.46072015345096584,-0.44823893060572445,0.37511546140164137
1761340673244931600,8.655931640625,-0.07330781279504299,-0.3392151133177802,0.7614963401179761
1761340673254998800,8.665998779296874,-0.15300386532247065,-0.3806121591217816,0.5029028332073241
1761340673265065700,8.676065673828125,0.07920973031520843,-0.12995686133187265,-0.48697892256230113
1761340673275133000,8.6861328125,0.26935177842080593,-0.35616018370408564,-0.37007878240868447
1761340673285200000,8.696199951171875,0.38406069214046,-0.5362950343951582,-0.24780454800128934
1761340673295266800,8.706266845703125,0.6051993515342473,-0.6420512647219002,-0.4833824324402958
1761340673305334800,8.716334716796876,0.4909744219392538,-0.8715461029201745,-0.6680666535314173
1761340673315401700,8.726401611328125,0.03169160781502724,-0.6177968211703002,-0.7319387486569583
