time,seconds_elapsed,z,y,x
1761340664667773400,0.0787734375,-0.3183717727661133,0.47301092743873596,1.188514232635498
1761340664677840400,0.08884033203125,-0.3422049582004547,0.5672639012336731,1.3529199361801147
1761340664687907600,0.098907470703125,-0.3355429768562317,0.6107799410820007,1.4895869493484497
1761340664697974500,0.108974609375,-0.2832888066768646,0.6326783299446106,1.5881496667861938
1761340664708041500,0.11904150390625,-0.1798752397298813,0.6579668521881104,1.6275681257247925
1761340664718108400,0.1291083984375,-0.0337129645049572,0.6521902084350586,1.6082007884979248
1761340664728175600,0.139175537109375,0.09316179156303406,0.6995418071746826,1.5775487422943115
1761340664738242600,0.14924267578125,0.16048303246498108,0.7486142516136169,1.526198148727417
1761340664748310500,0.159310546875,0.17582841217517853,0.8031699061393738,1.4113181829452515
1761340664758377500,0.16937744140625,0.16355763375759125,0.8556421399116516,1.1971734762191772
1761340664768444400,0.1794443359375,0.17571386694908142,1.1150976419448853,0.9377076029777527
1761340664778511600,0.18951171875,0.2827433943748474,1.6066784858703613,0.6950539350509644
1761340664788578600,0.19957861328125,0.50810706615448,2.155791997909546,0.4296732246875763
1761340664798645500,0.2096455078125,0.7973066568374634,2.4391348361968994,0.16293849050998688
1761340664808712400,0.21971240234375,1.0791904926300049,2.2250471115112305,-0.0907161757349968
1761340664818779400,0.229779296875,1.4035762548446655,1.3747150897979736,-0.3982875943183899
1761340664828846300,0.239846435546875,1.7008408308029175,0.13933131098747253,-0.7173934578895569
1761340664838914600,0.24991455078125,1.916213870048523,-1.0910067558288574,-0.9543692469596863
1761340664848981500,0.2599814453125,2.070409059524536,-1.8985198736190796,-1.0345975160598755
1761340664859048700,0.270048583984375,2.111203908920288,-2.1211600303649902,-0.8985722064971924
1761340664869115600,0.28011572265625,1.9914774894714355,-1.9005966186523438,-0.4768010973930359
1761340664879182600,0.2901826171875,1.7269033193588257,-1.3364830017089844,0.15518194437026978
1761340664889249500,0.30024951171875,1.3944926261901855,-0.8096321821212769,0.8026649951934814
1761340664899316500,0.31031640625,1.1483209133148193,-0.6732727289199829,1.2654742002487183
1761340664909383400,0.320383544921875,0.980992317199707,-0.909055233001709,1.4596861600875854
1761340664919451400,0.330451416015625,0.8281500935554504,-1.3375544548034668,1.3477399349212646
1761340664929518300,0.340518310546875,0.6932532787322998,-1.9422521591186523,1.0597094297409058
1761340664939585500,0.35058544921875,0.5799626708030701,-2.7595603466033936,0.6738868951797485
1761340664949652500,0.360652587890625,0.47651657462120056,-3.5333046913146973,0.23971082270145416
1761340664959719400,0.370719482421875,0.19450193643569946,-3.8299694061279297,-0.17966459691524506
1761340664969786600,0.38078662109375,-0.3314025104045868,-3.0936615467071533,-0.6255024671554565
1761340664979853600,0.390853515625,-1.0310626029968262,-1.5428534746170044,-1.1038727760314941
1761340664989920500,0.40092041015625,-1.831528663635254,0.16604694724082947,-1.5851284265518188
1761340664999987700,0.41098779296875,-2.5924642086029053,1.417881965637207,-1.9128378629684448
1761340665010055400,0.421055419921875,-3.1565070152282715,2.0642614364624023,-2.031057357788086
1761340665020122600,0.43112255859375,-3.4226272106170654,2.2096481323242188,-1.991977572441101
1761340665030189600,0.441189453125,-3.3527092933654785,2.0736799240112305,-1.8877815008163452
1761340665040256500,0.451256591796875,-2.9597225189208984,1.7819567918777466,-1.7814874649047852
1761340665050323500,0.461323486328125,-2.2603189945220947,1.2919745445251465,-1.7261409759521484
1761340665060390400,0.471390380859375,-1.3318183422088623,0.7848605513572693,-1.645255446434021
1761340665070457300,0.481457275390625,-0.32079023122787476,0.3301393985748291,-1.368149757385254
1761340665080524500,0.491524658203125,0.4257926344871521,-0.08680056780576706,-0.8850094676017761
1761340665090591500,0.501591552734375,0.8041872382164001,-0.3291676938533783,-0.26164597272872925
1761340665100658400,0.511658447265625,0.958355724811554,-0.4364994764328003,0.3686771094799042
1761340665110726700,0.5217265625,0.9959861636161804,-0.5337519645690918,0.9065685868263245
1761340665120793600,0.531793701171875,0.9484944939613342,-0.618026077747345,1.289418339729309
1761340665130860500,0.541860595703125,0.8634343147277832,-0.7364301681518555,1.4822492599487305
1761340665140927500,0.551927490234375,0.7691932916641235,-0.8405672311782837,1.4691190719604492
1761340665150994400,0.561994384765625,0.7035580277442932,-0.8775807023048401,1.216657042503357
1761340665161061600,0.5720615234375,0.7018967866897583,-0.7890194058418274,0.7207208275794983
1761340665171128600,0.582128662109375,0.8035233020782471,-0.4944486618041992,0.06246089190244675
1761340665181195500,0.592195556640625,0.9653646945953369,-0.012308136560022831,-0.6034899353981018
1761340665191263500,0.602263427734375,1.1388100385665894,0.5014777183532715,-1.1666868925094604
1761340665201330400,0.612330322265625,1.2614398002624512,0.9454115033149719,-1.5305829048156738
1761340665211397400,0.6223974609375,1.3251135349273682,1.2238229513168335,-1.6641638278961182
1761340665221464600,0.632464599609375,1.3755314350128174,1.2593291997909546,-1.5804764032363892
1761340665231531500,0.642531494140625,1.4059021472930908,1.0988889932632446,-1.2951421737670898
1761340665241598700,0.6525986328125,1.410225510597229,0.8238973021507263,-0.799144446849823
1761340665251665700,0.662665771484375,1.389214038848877,0.5514795780181885,-0.16025806963443756
1761340665261732600,0.672732666015625,1.3910020589828491,0.29826468229293823,0.5259155035018921
1761340665271799600,0.682799560546875,1.4162801504135132,0.09342580288648605,1.1328383684158325
1761340665281867500,0.692867431640625,1.4496879577636719,0.027842525392770767,1.5548350811004639
1761340665291934500,0.7029345703125,1.463034987449646,0.007381828501820564,1.7733516693115234
1761340665302001400,0.71300146484375,1.4513589143753052,0.003964727744460106,1.8505982160568237
1761340665312068400,0.723068359375,1.401755452156067,0.006636957637965679,1.8008252382278442
1761340665322135600,0.733135498046875,1.276941180229187,0.05335918441414833,1.6317886114120483
1761340665332202500,0.743202392578125,1.0620925426483154,0.22662663459777832,1.3915376663208008
1761340665342269400,0.75326953125,0.791871190071106,0.5200465321540833,1.1656888723373413
1761340665352336600,0.763336669921875,0.5931447148323059,0.8824362754821777,0.9827099442481995
1761340665362403600,0.773403564453125,0.49496519565582275,1.3594329357147217,0.9247140288352966
1761340665372471600,0.783471435546875,0.4897969663143158,1.8545016050338745,0.9825572371482849
1761340665382538500,0.79353857421875,0.5288261771202087,2.1218948364257812,1.0428818464279175
1761340665392605400,0.80360546875,0.6350881457328796,1.8856353759765625,0.9915149211883545
1761340665402672600,0.813672607421875,0.77957683801651,1.0092709064483643,0.6872344017028809
1761340665412739600,0.823739501953125,0.8402974009513855,-0.6233692169189453,0.13705644011497498
1761340665422806500,0.833806640625,0.8014413714408875,-2.818891763687134,-0.4549746513366699
1761340665432873500,0.84387353515625,0.8639780879020691,-4.892077445983887,-0.7659406065940857
1761340665442940400,0.8539404296875,0.8921682238578796,-5.85482120513916,-0.6349591612815857
1761340665453007400,0.86400732421875,0.7271172404289246,-4.964776039123535,-0.07137718796730042
1761340665463075600,0.87407568359375,0.45582103729248047,-2.7393863201141357,0.5343230962753296
1761340665473142500,0.884142578125,-0.0010801400057971478,-0.35770636796951294,0.8401058316230774
1761340665483209700,0.894209716796875,-0.5875476002693176,1.3796992301940918,0.7840657234191895
1761340665493276700,0.904276611328125,-1.1402440071105957,2.3925130367279053,0.5334134101867676
1761340665503343600,0.914343505859375,-1.6363881826400757,2.7547333240509033,0.27910709381103516
1761340665513410600,0.92441064453125,-2.0810558795928955,2.6255624294281006,0.14337077736854553
1761340665523477500,0.9344775390625,-2.4099042415618896,2.2420084476470947,0.1612163633108139
1761340665533544400,0.94454443359375,-2.6324808597564697,1.8204476833343506,0.2359769493341446
1761340665543611600,0.954611572265625,-2.7336502075195312,1.425475835800171,0.27957528829574585
1761340665553679400,0.964679443359375,-2.6934664249420166,1.0659199953079224,0.22793591022491455
1761340665563746600,0.97474658203125,-2.511725425720215,0.832241415977478,0.04199825972318649
1761340665573813500,0.9848134765625,-2.21787428855896,0.7949886322021484,-0.2486213743686676
1761340665583880400,0.99488037109375,-1.8541127443313599,0.8542501330375671,-0.5559341311454773
1761340665593947400,1.004947509765625,-1.435918927192688,0.888459324836731,-0.7383759617805481
1761340665604013800,1.015013916015625,-1.0013171434402466,0.8351534605026245,-0.7457491755485535
1761340665614081000,1.0250810546875,-0.5891754031181335,0.7041592001914978,-0.5803107023239136
1761340665624148000,1.03514794921875,-0.22422991693019867,0.5695886015892029,-0.30239948630332947
1761340665634215000,1.04521484375,0.07013518363237381,0.4577154517173767,-0.010079478845000267
1761340665644283100,1.055283203125,0.30120837688446045,0.38886284828186035,0.26845067739486694
1761340665654350000,1.06535009765625,0.46369579434394836,0.32477596402168274,0.48737454414367676
1761340665664417000,1.0754169921875,0.5458905100822449,0.22203999757766724,0.6335618495941162
1761340665674484000,1.08548388671875,0.5490483641624451,0.10110548138618469,0.7071967720985413
1761340665684551000,1.095551025390625,0.5469923615455627,-0.08971825987100601,0.6676695942878723
1761340665694618000,1.1056181640625,0.5067991614341736,-0.17971578240394592,0.4765860438346863
1761340665704685000,1.11568505859375,0.4561103880405426,-0.1062101423740387,0.15916572511196136
1761340665714752000,1.125751953125,0.41845929622650146,0.09724366664886475,-0.2333044707775116
1761340665724819000,1.13581884765625,0.392488956451416,0.3255583345890045,-0.6447612047195435
1761340665734887000,1.145886962890625,0.3742721378803253,0.5672998428344727,-1.043459415435791
1761340665744953900,1.155953857421875,0.37140175700187683,0.784256637096405,-1.3572351932525635
1761340665755020800,1.166020751953125,0.39666301012039185,0.9125134348869324,-1.5209598541259766
1761340665765087700,1.176087646484375,0.4510551393032074,0.918968915939331,-1.4864202737808228
1761340665775155000,1.186155029296875,0.5244921445846558,0.7924233675003052,-1.2574721574783325
1761340665785222100,1.19622216796875,0.6173283457756042,0.5268521308898926,-0.8889215588569641
1761340665795289000,1.2062890625,0.7210821509361267,0.20582541823387146,-0.4586271345615387
1761340665805356000,1.21635595703125,0.8219802379608154,-0.10607602447271347,-0.055491119623184204
1761340665815423000,1.226423095703125,0.933914840221405,-0.33988457918167114,0.25507763028144836
1761340665825491000,1.236490966796875,1.0206630229949951,-0.4758909046649933,0.4778073728084564
1761340665835558000,1.246557861328125,1.0778188705444336,-0.5386996269226074,0.6119014620780945
1761340665845624800,1.256624755859375,1.109412670135498,-0.4963838756084442,0.6454753875732422
1761340665855692000,1.266692138671875,1.0966593027114868,-0.3485398590564728,0.5580852627754211
1761340665865759000,1.276759033203125,1.0098549127578735,-0.12246064841747284,0.38372647762298584
1761340665875826000,1.286825927734375,0.8535494208335876,0.17964321374893188,0.20280076563358307
1761340665885892900,1.296892822265625,0.6996413469314575,0.5056237578392029,0.06400082260370255
1761340665895959800,1.306959716796875,0.5981807708740234,0.9140362739562988,-0.0634821429848671
1761340665906026800,1.31702685546875,0.5560389161109924,1.4875876903533936,-0.21614038944244385
1761340665916094000,1.327093994140625,0.49329012632369995,2.1852965354919434,-0.3212902545928955
1761340665926162000,1.337161865234375,0.3690456748008728,2.653266429901123,-0.3692860007286072
1761340665936228900,1.347228759765625,0.30337297916412354,2.5979881286621094,-0.414689302444458
1761340665946296000,1.357296142578125,0.372597336769104,1.9870628118515015,-0.4494941532611847
1761340665956363000,1.367363037109375,0.43327540159225464,0.8336320519447327,-0.4363713562488556
1761340665966430000,1.377429931640625,0.21071717143058777,-0.6923909187316895,-0.4455004036426544
1761340665976497000,1.387496826171875,-0.25771093368530273,-2.1358139514923096,-0.7422199845314026
1761340665986563800,1.397563720703125,-0.7185536623001099,-3.1170969009399414,-1.4302700757980347
1761340665996630800,1.407630859375,-1.2014544010162354,-3.1944549083709717,-2.0441970825195312
1761340666006698000,1.417697998046875,-1.599670171737671,-2.026837110519409,-2.030801296234131
1761340666016765000,1.427764892578125,-1.8231691122055054,-0.0889734998345375,-1.4699424505233765
1761340666026833200,1.437833251953125,-1.9317752122879028,1.4586716890335083,-0.7766226530075073
1761340666036900000,1.447900146484375,-1.9430315494537354,2.136348009109497,-0.19689825177192688
1761340666046967000,1.457967041015625,-1.8968533277511597,2.264814615249634,0.22967277467250824
1761340666057034000,1.468033935546875,-1.9299626350402832,2.162839651107788,0.5949521660804749
1761340666067101000,1.478100830078125,-2.071295976638794,1.8940460681915283,0.9194732904434204
1761340666077167900,1.48816796875,-2.247948169708252,1.5875192880630493,1.186335563659668
1761340666087235000,1.498235107421875,-2.418696165084839,1.2594058513641357,1.3242676258087158
1761340666097302000,1.508302001953125,-2.555403470993042,0.9869653582572937,1.3043984174728394
1761340666107369000,1.518368896484375,-2.5704989433288574,0.7829422354698181,1.1327979564666748
1761340666117437000,1.52843701171875,-2.4140868186950684,0.5908095240592957,0.8760097622871399
1761340666127504000,1.53850390625,-2.1055305004119873,0.44601160287857056,0.5845935940742493
1761340666137570800,1.54857080078125,-1.7416354417800903,0.2963092029094696,0.29177576303482056
1761340666147637800,1.5586376953125,-1.4172230958938599,0.24310536682605743,0.08927220106124878
1761340666157704700,1.56870458984375,-1.1345362663269043,0.2603762149810791,0.012213896960020065
1761340666167772200,1.578772216796875,-0.8550638556480408,0.318846195936203,0.058117207139730453
1761340666177839000,1.588839111328125,-0.6017971038818359,0.35374557971954346,0.19972535967826843
1761340666187906000,1.598906005859375,-0.3959174156188965,0.3159230947494507,0.3816182017326355
1761340666197973000,1.608972900390625,-0.25718462467193604,0.2496812790632248,0.5498461723327637
1761340666208040000,1.6190400390625,-0.18948866426944733,0.1807112693786621,0.6585896611213684
1761340666218108000,1.62910791015625,-0.1698044389486313,0.11887822300195694,0.6568666696548462
1761340666228174800,1.6391748046875,-0.18267150223255157,0.09099146723747253,0.5478672385215759
1761340666238241800,1.64924169921875,-0.18002623319625854,0.05636094883084297,0.3303421139717102
1761340666248309000,1.65930908203125,-0.13567501306533813,0.030820172280073166,-0.00001315586268901825
1761340666258376000,1.6693759765625,-0.07163211703300476,0.04431360960006714,-0.3644963204860687
1761340666268443000,1.67944287109375,0.060854554176330566,0.06499704718589783,-0.6718538403511047
1761340666278509800,1.689509765625,0.25402066111564636,0.0694103091955185,-0.9018939137458801
1761340666288576800,1.69957666015625,0.4581085443496704,0.05264784023165703,-1.044111967086792
1761340666298643700,1.709643798828125,0.5884536504745483,0.05123330280184746,-1.0604444742202759
1761340666308712000,1.7197119140625,0.6535500884056091,0.015948280692100525,-0.9552612900733948
1761340666318779000,1.72977880859375,0.7024796605110168,-0.08842692524194717,-0.7671592235565186
1761340666328846000,1.73984619140625,0.78167325258255,-0.26371005177497864,-0.5495691299438477
1761340666338913000,1.7499130859375,0.8647575974464417,-0.49627289175987244,-0.3308241069316864
1761340666348980000,1.75997998046875,0.9444513916969299,-0.7397150993347168,-0.12253694236278534
1761340666359047000,1.770046875,1.034681797027588,-0.937283992767334,0.06085914000868797
1761340666369113900,1.78011376953125,1.1296255588531494,-1.0269322395324707,0.17114490270614624
1761340666379180800,1.790180908203125,1.2142983675003052,-1.0079400539398193,0.2390623241662979
1761340666389248000,1.800248046875,1.278578519821167,-0.9778506755828857,0.3005906641483307
1761340666399315000,1.81031494140625,1.3145966529846191,-0.9033989310264587,0.35512521862983704
1761340666409382000,1.8203818359375,1.3023871183395386,-0.7789155840873718,0.3692426383495331
1761340666419450000,1.8304501953125,1.2383474111557007,-0.5837171673774719,0.3694407343864441
1761340666429517000,1.84051708984375,1.1183456182479858,-0.3218538463115692,0.39785587787628174
1761340666439584000,1.850583984375,1.015274167060852,-0.07873401045799255,0.46102407574653625
1761340666449651000,1.86065087890625,0.9598249793052673,0.14583943784236908,0.536175549030304
1761340666459718000,1.8707177734375,0.9555528163909912,0.34410998225212097,0.5539547801017761
1761340666469785000,1.88078515625,0.9393323063850403,0.5658854842185974,0.5691896677017212
1761340666479852000,1.89085205078125,0.8284115195274353,0.8473415374755859,0.5831180214881897
1761340666489919000,1.9009189453125,0.5682291984558105,1.2018178701400757,0.5734539031982422
1761340666499986000,1.91098583984375,0.30141735076904297,1.2725534439086914,0.3989206552505493
1761340666510052900,1.921052978515625,0.05195267125964165,0.7359879016876221,-0.10807810723781586
1761340666520120800,1.931120849609375,-0.2752395272254944,-0.6050456762313843,-1.0576807260513306
1761340666530187800,1.941187744140625,-0.6575357913970947,-2.42234206199646,-2.2421340942382812
1761340666540254700,1.951254638671875,-0.8269633054733276,-3.855700731277466,-3.014885663986206
1761340666550322200,1.961322265625,-0.6941351890563965,-3.9507830142974854,-2.618088960647583
1761340666560389000,1.97138916015625,-0.3701529800891876,-2.5430166721343994,-1.1108297109603882
1761340666570456000,1.9814560546875,0.15250571072101593,-0.5480595231056213,0.8826269507408142
1761340666580523000,1.99152294921875,0.4584788680076599,0.7472032904624939,2.2518112659454346
1761340666590590000,2.00158984375,0.2858804762363434,1.2505348920822144,2.45198392868042
1761340666600657200,2.0116572265625,-0.07494625449180603,1.2799468040466309,1.8601622581481934
1761340666610725000,2.02172509765625,-0.4277857840061188,1.1212482452392578,1.092457890510559
1761340666620792300,2.031792236328125,-0.7768838405609131,0.9815904498100281,0.47245290875434875
1761340666630859300,2.041859375,-1.1000208854675293,0.8994905352592468,0.11211949586868286
1761340666640926500,2.051926513671875,-1.3383572101593018,0.7463929653167725,0.024625878781080246
1761340666650993400,2.061993408203125,-1.5547302961349487,0.5423828363418579,0.13762034475803375
1761340666661060400,2.072060302734375,-1.802950143814087,0.4613467752933502,0.32761484384536743
1761340666671127300,2.082127197265625,-1.992722511291504,0.583486020565033,0.46397802233695984
1761340666681194200,2.0921943359375,-2.068347930908203,0.7138178944587708,0.5697723627090454
1761340666691261200,2.10226123046875,-1.9233155250549316,0.6571924090385437,0.6664339303970337
1761340666701328400,2.112328369140625,-1.5230213403701782,0.42801982164382935,0.9090323448181152
1761340666711395300,2.122395263671875,-1.0550214052200317,-0.056234199553728104,1.4135349988937378
1761340666721463300,2.13246337890625,-0.6968002915382385,-0.6694468855857849,2.0235848426818848
1761340666731530200,2.1425302734375,-0.4175651967525482,-1.0875383615493774,2.4882137775421143
1761340666741597200,2.15259716796875,-0.16625498235225677,-1.147903323173523,2.6535732746124268
1761340666751664000,2.1626640625,0.02921145409345627,-0.9013359546661377,2.5026514530181885
1761340666761731300,2.1727314453125,0.2563597559928894,-0.431863397359848,2.1009140014648438
1761340666771798300,2.18279833984375,0.39100703597068787,0.08642368018627167,1.5614608526229858
1761340666781865500,2.192865478515625,0.32561424374580383,0.49182966351509094,0.9911913871765137
1761340666791932400,2.202932373046875,0.12620048224925995,0.8024011850357056,0.4616231322288513
1761340666801999400,2.212999267578125,-0.11875937134027481,0.8841307163238525,-0.0278247632086277
1761340666812067300,2.2230673828125,-0.37353387475013733,0.7481366395950317,-0.43178102374076843
1761340666822134300,2.23313427734375,-0.5981470346450806,0.47364184260368347,-0.751575231552124
1761340666832201200,2.243201171875,-0.7383562922477722,0.12515230476856232,-1.0025137662887573
1761340666842268200,2.25326806640625,-0.7539398074150085,-0.15230104327201843,-1.2073993682861328
1761340666852335000,2.263335205078125,-0.551942765712738,0.03044906258583069,-1.2445478439331055
1761340666862402300,2.27340234375,-0.2601735293865204,-0.08681134879589081,-1.331168532371521
1761340666872469200,2.28346923828125,0.048094842582941055,0.06735904514789581,-1.2598906755447388
1761340666882536200,2.2935361328125,0.33672434091567993,0.1548233926296234,-1.1031471490859985
1761340666892603100,2.30360302734375,0.591284453868866,0.2178921103477478,-0.7987632155418396
1761340666902670300,2.31367041015625,0.809550404548645,0.1793048232793808,-0.3767620325088501
1761340666912737300,2.3237373046875,0.9753958582878113,-0.04668863117694855,0.07005513459444046
1761340666922805200,2.33380517578125,1.1014972925186157,-0.351818710565567,0.5220375061035156
1761340666932872200,2.3438720703125,1.2166776657104492,-0.6679495573043823,0.8932326436042786
1761340666942939400,2.353939453125,1.314285397529602,-0.9154650568962097,1.1379817724227905
1761340666953006300,2.36400634765625,1.360005497932434,-1.053505539894104,1.2645087242126465
1761340666963073300,2.3740732421875,1.3646501302719116,-1.0611991882324219,1.2468700408935547
1761340666973140200,2.38414013671875,1.3433187007904053,-0.8815702795982361,1.0931657552719116
1761340666983207200,2.394207275390625,1.2936502695083618,-0.6020646095275879,0.8452877402305603
1761340666993274000,2.404274169921875,1.2062480449676514,-0.30476826429367065,0.5287843346595764
1761340667003341300,2.41434130859375,1.0787967443466187,-0.03265097737312317,0.1789282113313675
1761340667013408300,2.424408203125,0.8944708704948425,0.25218474864959717,-0.14332866668701172
1761340667023475200,2.43447509765625,0.7493118643760681,0.5825704336166382,-0.3828037977218628
1761340667033543400,2.44454345703125,0.6799429059028625,1.0000499486923218,-0.4497881531715393
1761340667043610400,2.4546103515625,0.681376576423645,1.3374375104904175,-0.22677254676818848
1761340667053677300,2.46467724609375,0.787927508354187,1.3763015270233154,0.32180801033973694
1761340667063744300,2.474744140625,1.070339560508728,0.9006242752075195,1.0636823177337646
1761340667073811200,2.484811279296875,1.4466625452041626,-0.42315641045570374,1.50321364402771
1761340667083878400,2.49487841796875,1.5774489641189575,-2.279937982559204,1.2071748971939087
1761340667093945300,2.5049453125,1.588549017906189,-3.918325424194336,0.31327685713768005
1761340667104012300,2.51501220703125,1.803887128829956,-4.6024556159973145,-0.6570267677307129
1761340667114079200,2.525079345703125,1.9090042114257812,-4.076056480407715,-1.2255128622055054
1761340667124147200,2.535147216796875,1.6348153352737427,-2.404572010040283,-1.1524707078933716
1761340667134214100,2.545214111328125,1.2867121696472168,-0.4706869125366211,-0.8273555040359497
1761340667144281300,2.55528125,1.150635004043579,0.987125813961029,-0.5289000868797302
1761340667154348300,2.565348388671875,1.097379207611084,1.6332529783248901,-0.22089435160160065
1761340667164415200,2.575415283203125,1.01846182346344,1.6063510179519653,0.1642918884754181
1761340667174482400,2.585482421875,0.8478373885154724,1.1005195379257202,0.6268424987792969
1761340667184549400,2.59554931640625,0.5546419024467468,0.3472205400466919,1.060935616493225
1761340667194616300,2.6056162109375,0.17683176696300507,-0.3700598180294037,1.3399386405944824
1761340667204683300,2.615683349609375,-0.0855005756020546,-0.9206531643867493,1.393718957901001
1761340667214750200,2.625750244140625,-0.14226825535297394,-1.1210333108901978,1.2122069597244263
1761340667224817200,2.635817138671875,-0.1932409405708313,-0.9675561189651489,0.851979672908783
1761340667234885000,2.645885009765625,-0.4412853717803955,-0.5926157832145691,0.3381839692592621
1761340667244952300,2.655952392578125,-0.845535159111023,-0.07290537655353546,-0.27592933177948
1761340667255019300,2.666019287109375,-1.3360023498535156,0.5549904704093933,-0.8616117238998413
1761340667265086200,2.676086181640625,-1.766856074333191,0.9564668536186218,-1.249837040901184
1761340667275153200,2.686153076171875,-1.921974778175354,0.9240255951881409,-1.3572393655776978
1761340667285220400,2.696220458984375,-1.954606056213379,0.8170177936553955,-1.341007113456726
1761340667295287300,2.706287353515625,-1.8767253160476685,0.5368132591247559,-1.226560354232788
1761340667305354200,2.716354248046875,-1.6078574657440186,0.1975073665380478,-1.0598114728927612
1761340667315421400,2.72642138671875,-1.1359162330627441,-0.05600665509700775,-0.8542868494987488
1761340667325488400,2.73648828125,-0.607349693775177,-0.27794352173805237,-0.6292711496353149
1761340667335555300,2.746555419921875,-0.13198713958263397,-0.41189947724342346,-0.3919166624546051
1761340667345623300,2.756623291015625,0.20535771548748016,-0.479509562253952,-0.163190096616745
1761340667355690200,2.766690185546875,0.3372262716293335,-0.5655634999275208,0.02451881766319275
1761340667365757200,2.776757080078125,0.3347800374031067,-0.5875990986824036,0.1298554539680481
1761340667375824100,2.78682421875,0.2708340883255005,-0.4572770595550537,0.15226462483406067
1761340667385891000,2.79689111328125,0.16812041401863098,-0.19971495866775513,0.11683516949415207
1761340667395958300,2.806958251953125,0.029666129499673843,0.059806086122989655,0.04041948541998863
1761340667406025200,2.817025146484375,-0.1371774822473526,0.26704972982406616,-0.05188711732625961
1761340667416092400,2.827092529296875,-0.2755340039730072,0.4214973747730255,-0.1751517951488495
1761340667426159400,2.837159423828125,-0.36506223678588867,0.534253716468811,-0.3015691339969635
1761340667436226300,2.847226318359375,-0.39024588465690613,0.5687738656997681,-0.42429983615875244
1761340667446294300,2.857294189453125,-0.3670029938220978,0.5296745300292969,-0.5343242287635803
1761340667456361200,2.867361328125,-0.3065231442451477,0.42278751730918884,-0.6089649200439453
1761340667466428200,2.87742822265625,-0.21679432690143585,0.2916739881038666,-0.6544698476791382
1761340667476495400,2.887495361328125,-0.11070223152637482,0.22409173846244812,-0.633869469165802
1761340667486562300,2.897562255859375,-0.010216232389211655,0.1559685319662094,-0.5464571118354797
1761340667496629200,2.907629150390625,0.06177007779479027,0.061895836144685745,-0.3814518451690674
1761340667506696200,2.9176962890625,0.1032259613275528,0.015952179208397865,-0.15980640053749084
1761340667516763100,2.92776318359375,0.16393645107746124,-0.0973576009273529,0.07514700293540955
1761340667526830000,2.937830078125,0.1756473034620285,-0.17148496210575104,0.2544582188129425
1761340667536897300,2.947897216796875,0.14913739264011383,-0.21333467960357666,0.3343011140823364
1761340667546965200,2.95796533203125,0.08406012505292892,-0.11969312280416489,0.2813613712787628
1761340667557032400,2.968032470703125,-0.03686096519231796,0.11012862622737885,0.1325380653142929
1761340667567099400,2.978099365234375,-0.17102456092834473,0.4082537293434143,-0.11499972641468048
1761340667577166300,2.988166259765625,-0.25137636065483093,0.7924666404724121,-0.40038594603538513
1761340667587233300,2.9982333984375,-0.24252595007419586,1.185808539390564,-0.6495945453643799
1761340667597300200,3.00830029296875,-0.19345135986804962,1.5066951513290405,-0.8524023294448853
1761340667607367000,3.018366943359375,-0.08117666840553284,1.7759507894515991,-0.8958698511123657
1761340667617433900,3.028433837890625,-0.04395792633295059,1.9457359313964844,-0.731985330581665
1761340667627500800,3.038500732421875,0.033890169113874435,1.4070494174957275,-0.6146399974822998
1761340667637567700,3.048567626953125,0.22986873984336853,0.09712494164705276,-0.8561295866966248
1761340667647634700,3.058634765625,0.46678444743156433,-1.2408503293991089,-1.220701813697815
1761340667657702700,3.06870263671875,0.6256199479103088,-2.3532960414886475,-1.34959077835083
1761340667667769600,3.07876953125,0.7892478704452515,-3.179537057876587,-1.138695240020752
1761340667677836800,3.0888369140625,1.0505528450012207,-3.3057026863098145,-0.6283929347991943
1761340667687904000,3.098904052734375,1.230983018875122,-2.3976874351501465,0.08814413100481033
1761340667697971000,3.108970947265625,1.1588141918182373,-0.9897574186325073,0.6034937500953674
1761340667708038000,3.119037841796875,0.8602752685546875,0.17483116686344147,0.7061237096786499
1761340667718104800,3.129104736328125,0.5041816234588623,0.8980591893196106,0.48915836215019226
1761340667728171800,3.139171875,0.13495609164237976,1.3008304834365845,0.29398974776268005
1761340667738238700,3.14923876953125,-0.2535676956176758,1.5166200399398804,0.25798299908638
1761340667748306000,3.159305908203125,-0.5882553458213806,1.6062875986099243,0.35532698035240173
1761340667758373600,3.16937353515625,-0.8284102082252502,1.4732052087783813,0.5406268239021301
1761340667768440800,3.17944091796875,-0.9784481525421143,1.1261024475097656,0.7492307424545288
1761340667778507800,3.1895078125,-1.0369235277175903,0.6072957515716553,0.9657739996910095
1761340667788574700,3.19957470703125,-1.048331379890442,0.030095037072896957,1.156184434890747
1761340667798641700,3.2096416015625,-1.053985357284546,-0.4644249379634857,1.2791037559509277
1761340667808708600,3.21970849609375,-1.1065880060195923,-0.7851080894470215,1.3094338178634644
1761340667818775800,3.22977587890625,-1.1822627782821655,-0.8092054128646851,1.2097539901733398
1761340667828842800,3.2398427734375,-1.2286359071731567,-0.5564774870872498,0.9510208964347839
1761340667838910000,3.249909912109375,-1.255912184715271,-0.0955040454864502,0.6207921504974365
1761340667848977000,3.259976806640625,-1.2501533031463623,0.33873221278190613,0.3756970763206482
1761340667859043800,3.2700439453125,-1.1991384029388428,0.5408104658126831,0.27228814363479614
1761340667869111800,3.28011181640625,-1.11092209815979,0.5011290907859802,0.281446635723114
1761340667879178800,3.2901787109375,-0.9908919334411621,0.2444288730621338,0.3195793926715851
1761340667889245700,3.30024560546875,-0.8655902743339539,-0.08405856788158417,0.2919110953807831
1761340667899312600,3.310312744140625,-0.7520978450775146,-0.3782970905303955,0.09605530649423599
1761340667909379800,3.3203798828125,-0.6656560897827148,-0.5733681917190552,-0.2718357443809509
1761340667919446800,3.33044677734375,-0.6105544567108154,-0.6144850254058838,-0.7755809426307678
1761340667929513700,3.340513671875,-0.5593919157981873,-0.5102365016937256,-1.2754327058792114
1761340667939580700,3.35058056640625,-0.5346082448959351,-0.3958451747894287,-1.6918230056762695
1761340667949647600,3.360647705078125,-0.5556591153144836,-0.24088481068611145,-1.9479621648788452
1761340667959714800,3.37071484375,-0.5313681364059448,0.016921956092119217,-1.9478989839553833
1761340667969781800,3.38078173828125,-0.42411312460899353,-0.06020836532115936,-1.7938750982284546
1761340667979849700,3.390849609375,-0.335239976644516,-0.027230706065893173,-1.4143704175949097
1761340667989917000,3.4009169921875,-0.242733895778656,-0.16958455741405487,-0.9706678986549377
1761340667999983900,3.41098388671875,-0.1101316437125206,-0.3182595372200012,-0.44705528020858765
1761340668010050800,3.42105078125,0.04205602779984474,-0.5237340927124023,0.06373956054449081
1761340668020117800,3.43111767578125,0.21353031694889069,-0.7552874088287354,0.48308542370796204
1761340668030184700,3.441184814453125,0.39969977736473083,-0.8704275488853455,0.7851150631904602
1761340668040251600,3.451251708984375,0.5730635523796082,-0.8352046012878418,0.9403043985366821
1761340668050318600,3.461318603515625,0.6985374093055725,-0.694370687007904,1.0113798379898071
1761340668060385800,3.4713857421875,0.7505097985267639,-0.5204516053199768,1.0331323146820068
1761340668070452700,3.48145263671875,0.7275713086128235,-0.33027249574661255,1.0259714126586914
1761340668080519700,3.491519775390625,0.6503268480300903,-0.1913526952266693,1.0150197744369507
1761340668090588000,3.501587890625,0.5278953909873962,-0.09786276519298553,0.9984452724456787
1761340668100654800,3.51165478515625,0.38276296854019165,-0.007376543711870909,0.9696143865585327
1761340668110721800,3.5217216796875,0.22432084381580353,0.09958650171756744,0.919918417930603
1761340668120788700,3.531788818359375,0.09997810423374176,0.29125818610191345,0.827875554561615
1761340668130855700,3.541855712890625,0.055857520550489426,0.6153358817100525,0.6362380981445312
1761340668140923000,3.5519228515625,0.11572058498859406,1.044548749923706,0.29528480768203735
1761340668150989800,3.56198974609375,0.26518842577934265,1.686553955078125,-0.13288915157318115
1761340668161056800,3.572056884765625,0.4986288845539093,2.3604276180267334,-0.45626455545425415
1761340668171123700,3.582123779296875,0.6868601441383362,3.0663692951202393,-0.47272905707359314
1761340668181190700,3.592190673828125,0.7673088908195496,3.3986153602600098,-0.17675623297691345
1761340668191257600,3.602257568359375,0.7966313362121582,2.2822659015655518,0.0434398278594017
1761340668201325800,3.612325927734375,0.7505655884742737,-0.7589074373245239,-0.2991979420185089
1761340668211392800,3.622392822265625,0.8751124739646912,-4.138874530792236,-1.1564332246780396
1761340668221460000,3.6324599609375,1.2539072036743164,-6.021050930023193,-1.96675705909729
1761340668231527000,3.64252685546875,1.4427138566970825,-5.596803188323975,-2.1063177585601807
1761340668241593900,3.65259375,1.314231514930725,-3.4954299926757812,-1.4130953550338745
1761340668251660800,3.662660888671875,1.0749866962432861,-0.8538302779197693,-0.21120253205299377
1761340668261727700,3.672727783203125,0.6664806604385376,0.9400132298469543,0.7667741179466248
1761340668271794700,3.682794677734375,0.1397073119878769,1.7002475261688232,1.0300263166427612
1761340668281862000,3.69286181640625,-0.3364027738571167,1.768184781074524,0.7895745635032654
1761340668291928800,3.7029287109375,-0.6953405141830444,1.5654665231704712,0.41922590136528015
1761340668301996800,3.712996826171875,-0.9213182330131531,1.2873958349227905,0.11557146161794662
1761340668312063700,3.723063720703125,-1.0835882425308228,1.0064868927001953,-0.0484195314347744
1761340668322130700,3.733130615234375,-1.175323486328125,0.668998122215271,-0.05298285558819771
1761340668332197600,3.74319775390625,-1.1947280168533325,0.2535649836063385,0.062059350311756134
1761340668342264800,3.753264892578125,-1.1847784519195557,-0.13117335736751556,0.20173603296279907
1761340668352331800,3.763331787109375,-1.1871610879898071,-0.32683300971984863,0.2753722071647644
1761340668362399000,3.77339892578125,-1.2149947881698608,-0.21163049340248108,0.22729656100273132
1761340668372466000,3.7834658203125,-1.2234269380569458,0.10171002894639969,0.11304045468568802
1761340668382532900,3.793532958984375,-1.1968659162521362,0.48428696393966675,0.019339794293045998
1761340668392599800,3.803599853515625,-1.1282832622528076,0.7815814018249512,0.028967492282390594
1761340668402666800,3.813666748046875,-1.005337119102478,0.8907835483551025,0.14023037254810333
1761340668412733700,3.823733642578125,-0.8481701612472534,0.7746192812919617,0.3053303360939026
1761340668422801700,3.8338017578125,-0.6749264597892761,0.49896109104156494,0.46819597482681274
1761340668432868600,3.84386865234375,-0.48065051436424255,0.15038646757602692,0.5828185081481934
1761340668442935800,3.853935791015625,-0.29725751280784607,-0.17898984253406525,0.6032979488372803
1761340668453002800,3.864002685546875,-0.15709297358989716,-0.470445454120636,0.5146639943122864
1761340668463069700,3.874069580078125,-0.06994768977165222,-0.5686511397361755,0.27791669964790344
1761340668473136600,3.88413671875,-0.02709074690937996,-0.47006478905677795,-0.08529333025217056
1761340668483203800,3.894203857421875,-0.039158061146736145,-0.23654791712760925,-0.5002556443214417
1761340668493270800,3.904270751953125,-0.08614099770784378,0.06237702816724777,-0.863322377204895
1761340668503338000,3.914337890625,-0.13680045306682587,0.26933741569519043,-1.1442058086395264
1761340668513405000,3.924405029296875,-0.16434246301651,0.36245042085647583,-1.3033007383346558
1761340668523472000,3.934471923828125,-0.15352018177509308,0.39737510681152344,-1.3110393285751343
1761340668533539800,3.944539794921875,-0.09586334973573685,0.29565784335136414,-1.1965652704238892
1761340668543606800,3.954606689453125,0.003721564542502165,0.10281462222337723,-1.020701289176941
1761340668553673700,3.964673828125,0.13934895396232605,-0.05238015204668045,-0.8124834895133972
1761340668563740700,3.97474072265625,0.33086246252059937,-0.14610397815704346,-0.553891122341156
1761340668573807600,3.9848076171875,0.5471351146697998,-0.25053584575653076,-0.2660643458366394
1761340668583874800,3.994874755859375,0.7726209759712219,-0.3762357234954834,-0.006333708297461271
1761340668593941800,4.004941650390625,0.9666699171066284,-0.5079895853996277,0.19373370707035065
1761340668604008400,4.015008544921875,1.1179004907608032,-0.6183778643608093,0.33637845516204834
1761340668614075400,4.025075439453125,1.2052403688430786,-0.7268641591072083,0.44688841700553894
1761340668624142300,4.035142333984375,1.215988278388977,-0.8614611029624939,0.5336219668388367
1761340668634209500,4.04520947265625,1.1653448343276978,-0.95993572473526,0.5925458073616028
1761340668644276700,4.05527685546875,1.043766975402832,-0.9655241370201111,0.5995405912399292
1761340668654343700,4.06534375,0.8710012435913086,-0.8339347839355469,0.5652426481246948
1761340668664410600,4.07541064453125,0.6426841616630554,-0.46832752227783203,0.528994619846344
1761340668674477600,4.0854775390625,0.39210447669029236,-0.04965341091156006,0.5438693165779114
1761340668684545500,4.095545654296875,0.16610489785671234,0.291728675365448,0.6271026730537415
1761340668694612500,4.105612548828125,-0.04634176939725876,0.6539750099182129,0.730848491191864
1761340668704679400,4.115679443359375,-0.2827468514442444,1.0547714233398438,0.8471186757087708
1761340668714746400,4.125746337890625,-0.47018638253211975,1.3942031860351562,0.918937623500824
1761340668724813600,4.1358134765625,-0.6412473917007446,1.7040289640426636,0.840492308139801
1761340668734880500,4.145880615234375,-0.7662619352340698,1.6169378757476807,0.5250687003135681
1761340668744947500,4.155947509765625,-0.7898144125938416,0.3477781116962433,-0.2598671019077301
1761340668755014400,4.166014404296875,-0.5431712865829468,-2.0319368839263916,-1.4796853065490723
1761340668765081600,4.17608154296875,0.17557461559772491,-3.9268927574157715,-2.377849817276001
1761340668775148500,4.1861484375,0.9544650316238403,-4.065977096557617,-2.2433111667633057
1761340668785215700,4.1962158203125,1.2043452262878418,-2.9748027324676514,-1.0134471654891968
1761340668795283500,4.206283447265625,1.449463129043579,-1.6022170782089233,0.7281097173690796
1761340668805350700,4.2163505859375,1.727358102798462,-0.4632064402103424,2.1936895847320557
1761340668815417600,4.22641748046875,1.564679741859436,0.2527022659778595,2.7581090927124023
1761340668825484500,4.236484619140625,1.1894317865371704,0.5790129899978638,2.507035970687866
1761340668835551500,4.246551513671875,0.8310133814811707,0.5597653985023499,1.776450514793396
1761340668845618400,4.256618408203125,0.5186110138893127,0.4322982132434845,0.9488173127174377
1761340668855685400,4.266685302734375,0.18558229506015778,0.3793256878852844,0.3156525790691376
1761340668865752600,4.276752685546875,-0.25629177689552307,0.4578319489955902,-0.026346027851104736
1761340668875819500,4.286819580078125,-0.7497282028198242,0.6391228437423706,-0.10882691293954849
1761340668885886500,4.296886474609375,-1.2334376573562622,0.8638597726821899,-0.038921862840652466
1761340668895953400,4.306953369140625,-1.6466968059539795,1.1085704565048218,0.07064022868871689
1761340668906020600,4.3170205078125,-1.9371858835220337,1.3806490898132324,0.15302830934524536
1761340668916088600,4.327088623046875,-2.0910837650299072,1.666786789894104,0.2125522494316101
1761340668926155500,4.337155517578125,-2.0568950176239014,1.861368179321289,0.2989928722381592
1761340668936222500,4.347222412109375,-1.8611799478530884,1.8920727968215942,0.43759629130363464
1761340668946289700,4.35728955078125,-1.5479600429534912,1.7468996047973633,0.6022363901138306
1761340668956356600,4.367356689453125,-1.1377513408660889,1.4758423566818237,0.7451884150505066
1761340668966423600,4.377423583984375,-0.7124372720718384,1.157755970954895,0.8733213543891907
1761340668976490500,4.387490478515625,-0.3429156243801117,0.8293365836143494,0.9419283866882324
1761340668986557400,4.397557373046875,-0.02644178457558155,0.5430827140808105,0.9497008323669434
1761340668996624400,4.407624267578125,0.20588424801826477,0.2955731749534607,0.8626832962036133
1761340669006691300,4.41769140625,0.3873075544834137,0.14414288103580475,0.67598956823349
1761340669016758500,4.427758544921875,0.4901353716850281,0.09167054295539856,0.3784419298171997
1761340669026826500,4.437826416015625,0.49616265296936035,0.05899515002965927,0.02365773916244507
1761340669036893700,4.447893798828125,0.4151909649372101,0.11523376405239105,-0.3966023325920105
1761340669046960600,4.457960693359375,0.3010596036911011,0.3041198253631592,-0.8280290961265564
1761340669057027600,4.468027587890625,0.1726870983839035,0.49174144864082336,-1.1920667886734009
1761340669067094500,4.478094482421875,0.040921349078416824,0.6504589319229126,-1.4328471422195435
1761340669077161500,4.488161376953125,-0.07749361544847488,0.7228209972381592,-1.5347614288330078
1761340669087228400,4.498228515625,-0.18413510918617249,0.7075954675674438,-1.4879971742630005
1761340669097295600,4.508295654296875,-0.23208023607730865,0.6139106154441833,-1.311437726020813
1761340669107362600,4.518362548828125,-0.2481447011232376,0.48411825299263,-1.0476937294006348
1761340669117429500,4.528429443359375,-0.1984817236661911,0.3510972857475281,-0.7561377286911011
1761340669127496400,4.538496337890625,-0.0644403025507927,0.26969829201698303,-0.47454118728637695
1761340669137563400,4.5485634765625,0.1343846470117569,0.1822803020477295,-0.19574487209320068
1761340669147631600,4.558631591796875,0.34600237011909485,0.04061797633767128,0.048117056488990784
1761340669157698600,4.568698486328125,0.5404568314552307,-0.1256173849105835,0.24571171402931213
1761340669167765500,4.578765625,0.6919358372688293,-0.29684826731681824,0.36278241872787476
1761340669177832700,4.588832763671875,0.8154923915863037,-0.4490998685359955,0.41510340571403503
1761340669187899600,4.598899658203125,0.8961755633354187,-0.5935401320457458,0.4326336681842804
1761340669197966600,4.608966552734375,0.9202525615692139,-0.7417476177215576,0.44584205746650696
1761340669208033500,4.619033447265625,0.8895828127861023,-0.8855506181716919,0.45467230677604675
1761340669218100500,4.6291005859375,0.8165010809898376,-0.9618404507637024,0.4649549424648285
1761340669228167400,4.63916748046875,0.716361403465271,-0.924735426902771,0.4621032476425171
1761340669238234600,4.649234619140625,0.6226144433021545,-0.7618080973625183,0.40242162346839905
1761340669248301600,4.659301513671875,0.5515325665473938,-0.4612480103969574,0.2858630418777466
1761340669258369500,4.66936962890625,0.46881628036499023,0.05814700201153755,0.17225807905197144
1761340669268436500,4.6794365234375,0.3765406906604767,0.7594777345657349,0.14312362670898438
1761340669278503400,4.68950341796875,0.30950260162353516,1.4886399507522583,0.17838096618652344
1761340669288570600,4.699570556640625,0.18747815489768982,2.239915609359741,0.22017420828342438
1761340669298637600,4.709637451171875,0.06086418777704239,2.4356472492218018,0.2076459527015686
1761340669308704500,4.71970458984375,-0.12344334274530411,0.9804880023002625,-0.41442108154296875
1761340669318771700,4.729771728515625,-0.08614956587553024,-1.966658592224121,-1.8118031024932861
1761340669328838700,4.739838623046875,0.6209346652030945,-4.706303119659424,-2.957369089126587
1761340669338905600,4.749905517578125,1.4172381162643433,-5.927921295166016,-2.9163589477539062
1761340669348972500,4.75997265625,1.7600390911102295,-5.186203956604004,-1.1888256072998047
1761340669359039500,4.77003955078125,2.011674404144287,-3.2788310050964355,1.1492030620574951
1761340669369107500,4.780107421875,1.9794875383377075,-1.3634227514266968,2.659144163131714
1761340669379174400,4.79017431640625,1.5145918130874634,0.008826015517115593,2.909041166305542
1761340669389241300,4.800241455078125,0.9118390679359436,0.9371717572212219,2.3931288719177246
1761340669399308500,4.81030859375,0.28845322132110596,1.54680597782135,1.6649218797683716
1761340669409375500,4.82037548828125,-0.3442360758781433,1.7390244007110596,1.0782759189605713
1761340669419442400,4.8304423828125,-0.8676813840866089,1.5886974334716797,0.735237181186676
1761340669429509600,4.840509521484375,-1.2259273529052734,1.2410457134246826,0.559285044670105
1761340669439576600,4.85057666015625,-1.4207924604415894,0.8800257444381714,0.4376348555088043
1761340669449643500,4.8606435546875,-1.4829436540603638,0.6041299700737,0.3088992238044739
1761340669459710700,4.870710693359375,-1.4589577913284302,0.5044779181480408,0.17561697959899902
1761340669469777700,4.880777587890625,-1.4121077060699463,0.5840305685997009,0.028270669281482697
1761340669479844600,4.8908447265625,-1.3626714944839478,0.8705083131790161,-0.12327460199594498
1761340669489912600,4.90091259765625,-1.2970658540725708,1.2355642318725586,-0.2587741017341614
1761340669499979500,4.9109794921875,-1.199593186378479,1.5306624174118042,-0.3485359251499176
1761340669510046500,4.92104638671875,-1.0637048482894897,1.7040736675262451,-0.37314778566360474
1761340669520113400,4.931113525390625,-0.9265616536140442,1.7630085945129395,-0.3520343005657196
1761340669530180400,4.941180419921875,-0.826319694519043,1.7231123447418213,-0.28524062037467957
1761340669540247600,4.95124755859375,-0.7743039131164551,1.5946459770202637,-0.21117936074733734
1761340669550314500,4.961314453125,-0.7430088520050049,1.40119206905365,-0.15030935406684875
1761340669560381400,4.97138134765625,-0.6910423636436462,1.2502148151397705,-0.15572679042816162
1761340669570448600,4.98144873046875,-0.6496475338935852,1.1283600330352783,-0.209551140666008
1761340669580515600,4.991515625,-0.5568531155586243,0.9880090951919556,-0.3097183406352997
1761340669590582500,5.00158251953125,-0.4512963593006134,0.7484452724456787,-0.4652874171733856
1761340669600649500,5.0116494140625,-0.38942235708236694,0.4250558018684387,-0.6406840682029724
1761340669610718200,5.02171826171875,-0.3462495803833008,0.10063271224498749,-0.8037904500961304
1761340669620785200,5.03178515625,-0.2652439773082733,-0.10206050425767899,-0.9466273784637451
1761340669630852000,5.04185205078125,-0.12392650544643402,-0.18053694069385529,-1.103535771369934
1761340669640919300,5.051919189453125,0.059880707412958145,0.023670516908168793,-1.1409245729446411
1761340669650986500,5.061986572265625,0.27489766478538513,-0.04242407903075218,-1.1136425733566284
1761340669661053400,5.072053466796875,0.3920743465423584,-0.01629742793738842,-0.9673613905906677
1761340669671120400,5.082120361328125,0.44876691699028015,-0.08580780029296875,-0.7860962748527527
1761340669681187300,5.092187255859375,0.4744771122932434,-0.1779346913099289,-0.5654163956642151
1761340669691254300,5.102254150390625,0.5243847370147705,-0.2996816337108612,-0.33565348386764526
1761340669701321500,5.112321533203125,0.5959016680717468,-0.4736751914024353,-0.15074597299098969
1761340669711388400,5.122388427734375,0.6642996072769165,-0.6191548705101013,-0.0059933140873909
1761340669721455400,5.132455322265625,0.7020909190177917,-0.7872222065925598,0.09372076392173767
1761340669731523300,5.1425234375,0.6920723915100098,-0.9442967772483826,0.16314591467380524
1761340669741590300,5.15259033203125,0.6529074907302856,-1.0400006771087646,0.21150599420070648
1761340669751657200,5.1626572265625,0.577042818069458,-1.0167959928512573,0.24797238409519196
1761340669761724200,5.17272412109375,0.45431047677993774,-0.8655619025230408,0.26973822712898254
1761340669771791000,5.182791015625,0.2730062007904053,-0.6353929042816162,0.3368815779685974
1761340669781858300,5.1928583984375,0.0873875692486763,-0.4282379150390625,0.45577672123908997
1761340669791925500,5.202925537109375,-0.09246208518743515,-0.21868789196014404,0.5492243766784668
1761340669801992400,5.212992431640625,-0.3081492781639099,0.13850295543670654,0.578937828540802
1761340669812059400,5.223059326171875,-0.5157445669174194,0.6215066313743591,0.5299625396728516
1761340669822126300,5.233126220703125,-0.6085811853408813,1.1541393995285034,0.4471190869808197
1761340669832193300,5.243193359375,-0.5792901515960693,1.618465542793274,0.33065852522850037
1761340669842260500,5.253260498046875,-0.5329784154891968,2.062849521636963,0.12777762115001678
1761340669852328200,5.263328125,-0.6165910363197327,1.8921927213668823,-0.3725472390651703
1761340669862395400,5.2733955078125,-0.8721513152122498,0.21084287762641907,-1.5930371284484863
1761340669872462300,5.28346240234375,-0.8541805744171143,-2.1134064197540283,-3.1581151485443115
1761340669882529300,5.293529296875,-0.3535410761833191,-3.5915443897247314,-4.077279090881348
1761340669892596200,5.30359619140625,-0.019203849136829376,-3.8055202960968018,-3.3572771549224854
1761340669902663200,5.3136630859375,0.23446545004844666,-2.8447978496551514,-1.1632190942764282
1761340669912730000,5.323730224609375,0.8445319533348083,-1.041048526763916,1.2275738716125488
1761340669922797300,5.33379736328125,1.2465126514434814,0.4816027283668518,2.5763111114501953
1761340669932864500,5.343864501953125,1.2808055877685547,1.2709226608276367,2.768524408340454
1761340669942931500,5.353931396484375,1.1356170177459717,1.4582700729370117,2.3828799724578857
1761340669952998400,5.363998291015625,0.8166067004203796,1.1867352724075317,1.9272403717041016
1761340669963065300,5.3740654296875,0.3661767840385437,0.6092836260795593,1.6608017683029175
1761340669973133300,5.38413330078125,-0.16177652776241302,-0.03072434663772583,1.54964280128479
1761340669983200300,5.3942001953125,-0.709553599357605,-0.3685237467288971,1.4190945625305176
1761340669993267200,5.40426708984375,-1.1802746057510376,-0.25895676016807556,1.1452741622924805
1761340670003334400,5.41433447265625,-1.5257869958877563,0.00913777481764555,0.7329015731811523
1761340670013401300,5.4244013671875,-1.7637401819229126,0.28990527987480164,0.28954166173934937
1761340670023468300,5.43446826171875,-1.9134215116500854,0.5442492365837097,-0.09743082523345947
1761340670033535200,5.44453515625,-2.0255956649780273,0.7359952330589294,-0.3988924026489258
1761340670043602200,5.454602294921875,-2.0623388290405273,0.8326586484909058,-0.5573074817657471
1761340670053669000,5.464669189453125,-2.0292487144470215,0.6947748064994812,-0.5167350172996521
1761340670063736300,5.474736328125,-1.9917515516281128,0.30758389830589294,-0.28314200043678284
1761340670073803500,5.484803466796875,-1.963042140007019,-0.12377257645130157,0.03917771205306053
1761340670083870500,5.494870361328125,-1.900587797164917,-0.5188204646110535,0.3372078537940979
1761340670093938400,5.5049384765625,-1.8008975982666016,-0.7575520873069763,0.5072574019432068
1761340670104005400,5.51500537109375,-1.657466173171997,-0.7926903963088989,0.494378924369812
1761340670114072300,5.525072265625,-1.4750862121582031,-0.6583566069602966,0.280917763710022
1761340670124139300,5.53513916015625,-1.2812362909317017,-0.41565972566604614,-0.06397469341754913
1761340670134206200,5.545206298828125,-1.1314852237701416,-0.19124551117420197,-0.4825162887573242
1761340670144273400,5.5552734375,-0.9551100134849548,-0.005573162343353033,-0.8740389347076416
1761340670154340400,5.56534033203125,-0.62693852186203,0.06080585718154907,-1.115342140197754
1761340670164407300,5.5754072265625,-0.31112387776374817,-0.026225585490465164,-1.2093549966812134
1761340670174474200,5.58547412109375,-0.09656177461147308,-0.1404818445444107,-1.1468982696533203
1761340670184541200,5.595541259765625,0.05734860897064209,-0.20901986956596375,-0.9765435457229614
1761340670194608000,5.605608154296875,0.21225030720233917,-0.2531476616859436,-0.7029325366020203
1761340670204675300,5.61567529296875,0.3762838840484619,-0.34298786520957947,-0.35661181807518005
1761340670214742500,5.625742431640625,0.5379723906517029,-0.48025012016296387,0.0012022526934742928
1761340670224810200,5.635810302734375,0.6824358105659485,-0.5807492136955261,0.3067420423030853
1761340670234877400,5.64587744140625,0.805681586265564,-0.6009061932563782,0.5027320384979248
1761340670244944400,5.6559443359375,0.8981454372406006,-0.5432400107383728,0.5818195343017578
1761340670255011300,5.66601123046875,0.9858683943748474,-0.4305725693702698,0.591675877571106
1761340670265078300,5.676078369140625,1.0651917457580566,-0.3202153146266937,0.59609454870224
1761340670275145200,5.686145263671875,1.1137821674346924,-0.26170405745506287,0.640611469745636
1761340670285212200,5.696212158203125,1.1146081686019897,-0.2106539011001587,0.720568060874939
1761340670295279400,5.706279296875,1.071128010749817,-0.13232076168060303,0.8398800492286682
1761340670305346300,5.71634619140625,1.0064492225646973,-0.03404715657234192,0.9997093677520752
1761340670315413200,5.726413330078125,0.9343662858009338,0.037048593163490295,1.1466403007507324
1761340670325480200,5.736480224609375,0.8661896586418152,0.1680525839328766,1.2373501062393188
1761340670335547100,5.746547119140625,0.7970916032791138,0.3421865403652191,1.2524994611740112
1761340670345614300,5.7566142578125,0.742911696434021,0.4982271194458008,1.1637505292892456
1761340670355682300,5.766682373046875,0.7365313172340393,0.6668318510055542,1.0412592887878418
1761340670365749200,5.776749267578125,0.8297657370567322,0.7711485624313354,0.8989736437797546
1761340670375816400,5.78681640625,0.9475682973861694,0.8187581896781921,0.682713508605957
1761340670385883400,5.79688330078125,1.039032220840454,0.8357222080230713,0.26959240436553955
1761340670395950300,5.806950439453125,1.0606679916381836,0.6026628613471985,-0.4114021062850952
1761340670406017300,5.817017333984375,0.9721329808235168,-0.01717645674943924,-1.3341249227523804
1761340670416084200,5.827084228515625,0.8700953125953674,-0.8627104163169861,-2.1732966899871826
1761340670426151200,5.837151123046875,0.8685333728790283,-1.5203877687454224,-2.4953153133392334
1761340670436218400,5.84721826171875,1.0325210094451904,-2.0104522705078125,-2.1858432292938232
1761340670446285300,5.857285400390625,1.4339265823364258,-2.4163625240325928,-1.4389106035232544
1761340670456352300,5.867352294921875,1.9444642066955566,-2.4132306575775146,-0.39987313747406006
1761340670466419200,5.877419189453125,2.322906017303467,-1.8834292888641357,0.7275591492652893
1761340670476487400,5.8874873046875,2.416778326034546,-1.2627204656600952,1.542313814163208
1761340670486554400,5.897554443359375,2.168027877807617,-0.7409767508506775,1.8459068536758423
1761340670496621300,5.907621337890625,1.6170769929885864,-0.4040663242340088,1.7365665435791016
1761340670506688300,5.917688232421875,0.8824376463890076,-0.2661147117614746,1.4636058807373047
1761340670516755500,5.92775537109375,0.16048108041286469,-0.2467101365327835,1.1525214910507202
1761340670526822400,5.937822509765625,-0.48848792910575867,-0.2821524739265442,0.8337476849555969
1761340670536889300,5.947889404296875,-1.1115888357162476,-0.19116079807281494,0.45212095975875854
1761340670546956300,5.957956298828125,-1.7200679779052734,0.08939661830663681,0.0022399919107556343
1761340670557023200,5.968023193359375,-2.2149498462677,0.44327107071876526,-0.4776483178138733
1761340670567090200,5.978090087890625,-2.4746110439300537,0.8864527940750122,-0.9284393191337585
1761340670577157400,5.988157470703125,-2.491111993789673,1.317123293876648,-1.250352382659912
1761340670587224300,5.998224365234375,-2.3114869594573975,1.58683443069458,-1.391086459159851
1761340670597292500,6.00829248046875,-2.013070583343506,1.5996932983398438,-1.309052586555481
1761340670607359000,6.01835888671875,-1.653363585472107,1.3288770914077759,-1.0399388074874878
1761340670617426000,6.028426025390625,-1.24832284450531,0.9292993545532227,-0.6677098870277405
1761340670627492900,6.038492919921875,-0.825527548789978,0.4910646975040436,-0.260439395904541
1761340670637559800,6.048559814453125,-0.44507715106010437,0.05362185463309288,0.11255709081888199
1761340670647626800,6.058626708984375,-0.15600228309631348,-0.3120037615299225,0.3761930763721466
1761340670657694000,6.06869384765625,0.02439652383327484,-0.5516078472137451,0.49138516187667847
1761340670667761000,6.078760986328125,0.10484178364276886,-0.715219259262085,0.45111721754074097
1761340670677827800,6.088827880859375,0.10566390305757523,-0.8314233422279358,0.2858361303806305
1761340670687894800,6.098894775390625,0.058419644832611084,-0.9146217703819275,0.008338050916790962
1761340670697961700,6.108961669921875,-0.008389213122427464,-0.9315586686134338,-0.35130640864372253
1761340670708028700,6.119028564453125,-0.0924089103937149,-0.8177167177200317,-0.7598543763160706
1761340670718096000,6.129095947265625,-0.18369035422801971,-0.6046225428581238,-1.1655871868133545
1761340670728163800,6.139163818359375,-0.2586666941642761,-0.31037792563438416,-1.5001039505004883
1761340670738230800,6.149230712890625,-0.32327741384506226,-0.006325630471110344,-1.7228983640670776
1761340670748298000,6.159298095703125,-0.36057278513908386,0.23277124762535095,-1.7828083038330078
1761340670758365000,6.169364990234375,-0.3658687472343445,0.3141590356826782,-1.631728172302246
1761340670768431900,6.179431884765625,-0.3710119128227234,0.23947201669216156,-1.3084678649902344
1761340670778498800,6.189498779296875,-0.37256506085395813,0.08093777298927307,-0.8942867517471313
1761340670788565800,6.199565673828125,-0.34383323788642883,-0.09363508224487305,-0.49768930673599243
1761340670798633000,6.209633056640625,-0.2838417887687683,-0.18999677896499634,-0.18373137712478638
1761340670808700000,6.219699951171875,-0.2084437757730484,-0.16921210289001465,0.02571619674563408
1761340670818766800,6.229766845703125,-0.12409640103578568,-0.09310854226350784,0.15039260685443878
1761340670828833800,6.239833740234375,-0.03852640464901924,0.0005438392981886864,0.23319388926029205
1761340670838900700,6.249900634765625,0.06158341467380524,0.09661923348903656,0.3005303144454956
1761340670848967700,6.2599677734375,0.15509718656539917,0.1875639408826828,0.38434159755706787
1761340670859035600,6.27003564453125,0.21819892525672913,0.2015727013349533,0.5036173462867737
1761340670869102600,6.2801025390625,0.2375616431236267,0.1291436403989792,0.6193673610687256
1761340670879169800,6.290169677734375,0.21812322735786438,0.06540247052907944,0.6861501336097717
1761340670889237000,6.300237060546875,0.15158890187740326,0.0832497775554657,0.7283532619476318
1761340670899304000,6.310303955078125,0.07502035796642303,0.19923150539398193,0.7330254912376404
1761340670909371000,6.320370849609375,0.05538206174969673,0.4586077928543091,0.6592657566070557
1761340670919437800,6.330437744140625,0.058055344969034195,0.944061279296875,0.5058248043060303
1761340670929504800,6.3405048828125,0.15069007873535156,1.5025718212127686,0.3576960563659668
1761340670939572000,6.350572021484375,0.3783365488052368,1.7891082763671875,0.37237462401390076
1761340670949639000,6.360638916015625,0.7225954532623291,1.4369447231292725,0.6084157228469849
1761340670959705900,6.370705810546875,1.1549712419509888,0.24859619140625,0.9103415012359619
1761340670969772800,6.380772705078125,1.4755113124847412,-1.718923807144165,0.9373127818107605
1761340670979839700,6.39083984375,1.7397935390472412,-3.808619737625122,0.6060080528259277
1761340670989906700,6.40090673828125,2.0729665756225586,-5.052459239959717,0.13955673575401306
1761340670999974700,6.410974609375,2.388582229614258,-4.97247314453125,-0.06543874740600586
1761340671010041600,6.42104150390625,2.414414167404175,-3.8761885166168213,0.29065030813217163
1761340671020108800,6.43110888671875,2.2093873023986816,-2.286780595779419,1.0081853866577148
1761340671030176000,6.441176025390625,1.9360297918319702,-0.734406054019928,1.6918846368789673
1761340671040243000,6.451242919921875,1.5341260433197021,0.2723037302494049,2.009645700454712
1761340671050310000,6.461309814453125,0.9967588186264038,0.7320404648780823,1.9431049823760986
1761340671060376800,6.471376953125,0.42320820689201355,0.767996609210968,1.6292695999145508
1761340671070443800,6.48144384765625,-0.0998406708240509,0.648880660533905,1.2225492000579834
1761340671080511000,6.491510986328125,-0.6112639904022217,0.4786902964115143,0.8544063568115234
1761340671090578000,6.501577880859375,-1.0833379030227661,0.2988166809082031,0.5663582682609558
1761340671100644900,6.511644775390625,-1.4834901094436646,0.14643403887748718,0.3162813186645508
1761340671110711800,6.5217119140625,-1.817008137702942,0.05612457916140556,0.04930329695343971
1761340671120778800,6.53177880859375,-2.0911202430725098,0.1642715483903885,-0.17540252208709717
1761340671130846700,6.5418466796875,-2.2823431491851807,0.4047869145870209,-0.35863906145095825
1761340671140913700,6.55191357421875,-2.347993850708008,0.7389063239097595,-0.4864808917045593
1761340671150980600,6.561980712890625,-2.2541239261627197,1.0324515104293823,-0.5290743708610535
1761340671161047800,6.5720478515625,-2.053590774536133,1.1994887590408325,-0.5182931423187256
1761340671171115000,6.582114990234375,-1.7795870304107666,1.2189661264419556,-0.4692535102367401
1761340671181182000,6.592181884765625,-1.5751348733901978,1.2064415216445923,-0.4333384037017822
1761340671191249000,6.602248779296875,-1.2232425212860107,0.9937403202056885,-0.37847983837127686
1761340671201315800,6.61231591796875,-0.7876542806625366,0.7214499711990356,-0.38335928320884705
1761340671211382800,6.6223828125,-0.34815824031829834,0.4475371539592743,-0.4587826430797577
1761340671221449700,6.63244970703125,0.027648653835058212,0.2593030631542206,-0.6114336848258972
1761340671231517000,6.642516845703125,0.25100627541542053,0.027409877628087997,-0.8246610760688782
1761340671241583900,6.652583984375,0.25715553760528564,-0.10584671795368195,-1.0409365892410278
1761340671251650800,6.66265087890625,0.1761007308959961,-0.20492981374263763,-1.2234193086624146
1761340671261718800,6.67271875,0.15137194097042084,-0.2598212957382202,-1.2807438373565674
1761340671271785700,6.68278564453125,0.1492089331150055,-0.2632170617580414,-1.2456817626953125
1761340671281852700,6.692852783203125,0.1769241839647293,-0.2918838858604431,-1.1356195211410522
1761340671291919600,6.702919677734375,0.22111380100250244,-0.3101189434528351,-0.9979494214057922
1761340671301986800,6.71298681640625,0.23588953912258148,-0.2145007997751236,-0.8800904154777527
1761340671312054000,6.723053955078125,0.2558007538318634,-0.0751897543668747,-0.7972234487533569
1761340671322121000,6.733120849609375,0.30404579639434814,0.05175275355577469,-0.760906994342804
1761340671332188000,6.74318798828125,0.3789729177951813,0.12256405502557755,-0.7344925999641418
1761340671342254800,6.7532548828125,0.45379921793937683,0.10105182975530624,-0.6462474465370178
1761340671352321800,6.76332177734375,0.5215781927108765,0.026739828288555145,-0.49796825647354126
1761340671362388700,6.773388671875,0.5755306482315063,-0.023670081049203873,-0.30424967408180237
1761340671372456000,6.7834560546875,0.6005237698554993,-0.09457477927207947,-0.10184738039970398
1761340671382523000,6.79352294921875,0.6089537143707275,-0.21040844917297363,0.09891794621944427
1761340671392590800,6.8035908203125,0.6039912700653076,-0.3315105438232422,0.28155291080474854
1761340671402657800,6.81365771484375,0.5716357231140137,-0.430787593126297,0.4400128722190857
1761340671412724700,6.823724853515625,0.5122256875038147,-0.49697792530059814,0.6145820617675781
1761340671422791700,6.833791748046875,0.40272003412246704,-0.531207799911499,0.8133335113525391
1761340671432858600,6.843858642578125,0.2634088397026062,-0.4987989664077759,0.9872661828994751
1761340671442925800,6.85392578125,0.14167360961437225,-0.38389500975608826,1.0254055261611938
1761340671452993000,6.863992919921875,0.012699984014034271,-0.04753275215625763,0.9433016777038574
1761340671463060000,6.87406005859375,-0.1345994472503662,0.6498457789421082,0.837378740310669
1761340671473127000,6.884126953125,-0.2107776403427124,1.445776343345642,0.785346508026123
1761340671483193900,6.89419384765625,-0.1174202635884285,2.3706061840057373,0.8169757723808289
1761340671493260800,6.9042607421875,0.14016015827655792,3.3709590435028076,0.9315510392189026
1761340671503327700,6.91432763671875,0.5000251531600952,3.72495174407959,0.9719837307929993
1761340671513395000,6.92439501953125,0.8371854424476624,2.70297908782959,0.7791746854782104
1761340671523462000,6.9344619140625,1.0507007837295532,0.444234162569046,0.28641265630722046
1761340671533529900,6.94452978515625,1.1092621088027954,-1.941097378730774,-0.27633365988731384
1761340671543596800,6.9545966796875,0.9743838310241699,-3.3890762329101562,-0.6369826793670654
1761340671553663700,6.964663818359375,0.8772584795951843,-3.4281632900238037,-0.7862532138824463
1761340671563730700,6.974730712890625,0.9796391725540161,-2.1077444553375244,-0.4852641224861145
1761340671573797600,6.984797607421875,1.0672149658203125,-0.18981197476387024,0.08726885914802551
1761340671583864800,6.99486474609375,0.956383228302002,1.1383836269378662,0.5461509823799133
1761340671593932000,7.00493212890625,0.7605530023574829,1.4588130712509155,0.6572268009185791
1761340671603999000,7.0149990234375,0.5361340045928955,0.9479053616523743,0.5596610903739929
1761340671614065700,7.025065673828125,0.14923709630966187,0.14766637980937958,0.39858976006507874
1761340671624132600,7.035132568359375,-0.42048096656799316,-0.5170426368713379,0.19827184081077576
1761340671634199600,7.045199462890625,-0.91612708568573,-0.8748350739479065,-0.06845630705356598
1761340671644266500,7.0552666015625,-1.1986725330352783,-0.9920176267623901,-0.32944154739379883
1761340671654333700,7.065333740234375,-1.366258978843689,-0.8465730547904968,-0.5585173964500427
1761340671664400600,7.075400634765625,-1.541683316230774,-0.3580886423587799,-0.7537438869476318
1761340671674468900,7.08546875,-1.7503435611724854,0.3128660321235657,-0.8664045929908752
1761340671684535800,7.095535888671875,-1.8897438049316406,0.9088655114173889,-0.8819102644920349
1761340671694602800,7.105602783203125,-1.8658150434494019,1.2812280654907227,-0.763261616230011
1761340671704669700,7.115669677734375,-1.7303410768508911,1.332072377204895,-0.4768620729446411
1761340671714736600,7.125736572265625,-1.5179510116577148,1.080185890197754,-0.05888845771551132
1761340671724803600,7.135803466796875,-1.2711933851242065,0.6159013509750366,0.4264923632144928
1761340671734870800,7.145870849609375,-1.0141385793685913,0.07450343668460846,0.8811845779418945
1761340671744937700,7.155937744140625,-0.744259238243103,-0.4302699863910675,1.2211501598358154
1761340671755004700,7.166004638671875,-0.4830527901649475,-0.7614498138427734,1.394412636756897
1761340671765071600,7.176071533203125,-0.25544118881225586,-0.7776490449905396,1.3528697490692139
1761340671775138600,7.186138671875,-0.05426197499036789,-0.4969125986099243,1.088699460029602
1761340671785205500,7.19620556640625,0.10549919307231903,-0.2272571623325348,0.5833348035812378
1761340671795272700,7.206272705078125,0.2669393718242645,-0.018860314041376114,-0.040744345635175705
1761340671805339600,7.216339599609375,0.41490116715431213,0.17731104791164398,-0.6954479217529297
1761340671815407900,7.226407958984375,0.5137162208557129,0.26476362347602844,-1.3026752471923828
1761340671825474800,7.236474853515625,0.4941595494747162,0.3889646530151367,-1.7658151388168335
1761340671835541800,7.246541748046875,0.49227359890937805,0.48682889342308044,-1.9727197885513306
1761340671845608700,7.256608642578125,0.5513166189193726,0.3641495704650879,-2.0168063640594482
1761340671855675600,7.266675537109375,0.6416304111480713,0.2729502320289612,-1.8257884979248047
1761340671865742600,7.27674267578125,0.7171968221664429,0.01125657930970192,-1.5296980142593384
1761340671875809800,7.286809814453125,0.7689536809921265,-0.24402481317520142,-1.1475716829299927
1761340671885876700,7.296876708984375,0.8033374547958374,-0.4692443311214447,-0.7633451819419861
1761340671895943700,7.306943603515625,0.8019815683364868,-0.5624017119407654,-0.386896014213562
1761340671906010600,7.3170107421875,0.750416100025177,-0.5867049694061279,0.018452279269695282
1761340671916077600,7.32707763671875,0.6718528270721436,-0.5854977965354919,0.40922051668167114
1761340671926144500,7.33714453125,0.5801522135734558,-0.5491975545883179,0.7162392735481262
1761340671936211700,7.347211669921875,0.46780914068222046,-0.4566763937473297,0.8819438815116882
1761340671946278700,7.357278564453125,0.32055312395095825,-0.32379984855651855,0.8962796926498413
1761340671956346600,7.3673466796875,0.11606574803590775,-0.12517015635967255,0.7891137599945068
1761340671966413800,7.377413818359375,-0.14959123730659485,0.07397117465734482,0.5698394775390625
1761340671976480800,7.387480712890625,-0.4394397735595703,0.22226445376873016,0.260244756937027
1761340671986547700,7.397547607421875,-0.7051800489425659,0.29743269085884094,-0.0072013442404568195
1761340671996614700,7.40761474609375,-0.89995276927948,0.14805348217487335,-0.1905747503042221
1761340672006681600,7.417681640625,-0.9885861873626709,-0.1801030933856964,-0.2732051908969879
1761340672016748500,7.42774853515625,-0.9699479341506958,-0.5296322703361511,-0.13782642781734467
1761340672026815700,7.437815673828125,-0.7734569907188416,-0.6315471529960632,0.3452126681804657
1761340672036882700,7.447882568359375,-0.4581054151058197,-0.29143697023391724,1.0054291486740112
1761340672046949600,7.45794970703125,-0.20298603177070618,-0.06136756017804146,1.277164340019226
1761340672057016600,7.4680166015625,-0.15042518079280853,-0.13565780222415924,0.9133307337760925
1761340672067083500,7.47808349609375,-0.24255751073360443,-0.45282456278800964,0.16643144190311432
1761340672077150500,7.488150390625,-0.47189489006996155,-0.8558241128921509,-0.6716490983963013
1761340672087217700,7.4982177734375,-0.8369154930114746,-1.337012767791748,-1.5543639659881592
1761340672097285600,7.50828564453125,-1.277700662612915,-1.4968011379241943,-2.273646831512451
1761340672107352800,7.518352783203125,-1.6525133848190308,-1.023128867149353,-2.617241144180298
1761340672117419800,7.528419677734375,-1.7389700412750244,-0.1633726805448532,-2.5338640213012695
1761340672127486700,7.53848681640625,-1.4324500560760498,0.6790125966072083,-2.072432518005371
1761340672137553700,7.5485537109375,-0.7745321393013,1.0835944414138794,-1.413794755935669
1761340672147620600,7.55862060546875,0.032657332718372345,1.043142318725586,-0.7446436285972595
1761340672157687600,7.5686875,0.6791829466819763,0.7048393487930298,-0.10586179792881012
1761340672167754800,7.578754638671875,1.0021111965179443,0.10595487803220749,0.47550708055496216
1761340672177821700,7.58882177734375,1.0497102737426758,-0.6713841557502747,0.9566136002540588
1761340672187888600,7.598888671875,0.9282147288322449,-1.3511683940887451,1.2877860069274902
1761340672197955600,7.60895556640625,0.7578482031822205,-1.6785727739334106,1.402634620666504
1761340672208022500,7.6190224609375,0.5812950134277344,-1.5345953702926636,1.248035192489624
1761340672218089500,7.62908935546875,0.3932884633541107,-0.989881157875061,0.8418803811073303
1761340672228156700,7.63915673828125,0.20043274760246277,-0.20691825449466705,0.2867758572101593
1761340672238223600,7.6492236328125,-0.0058315531350672245,0.5668911933898926,-0.27053937315940857
1761340672248291800,7.659291748046875,-0.21848177909851074,1.1104631423950195,-0.7322604060173035
1761340672258358800,7.66935888671875,-0.41681918501853943,1.2913161516189575,-1.005238652229309
1761340672268425700,7.67942578125,-0.5543938875198364,1.1437360048294067,-1.0563145875930786
1761340672278492700,7.68949267578125,-0.6285797953605652,0.7306329011917114,-0.9286947250366211
1761340672288559600,7.6995595703125,-0.6061863303184509,0.22155047953128815,-0.6918007135391235
1761340672298626600,7.70962646484375,-0.4812771677970886,-0.23346325755119324,-0.4248810112476349
1761340672308693800,7.71969384765625,-0.27681964635849,-0.49122315645217896,-0.1706356555223465
1761340672318760700,7.7297607421875,-0.04197722673416138,-0.49563872814178467,0.077744260430336
1761340672328827600,7.73982763671875,0.18006782233715057,-0.3456263244152069,0.2787950932979584
1761340672338894600,7.74989453125,0.33977463841438293,-0.16772165894508362,0.3640853464603424
1761340672348961500,7.75996142578125,0.3869059383869171,-0.02984500490128994,0.3092351257801056
1761340672359028500,7.770028564453125,0.3340427875518799,0.051301728934049606,0.16275791823863983
1761340672369095700,7.780095703125,0.21304845809936523,0.10136276483535767,-0.06447124481201172
1761340672379162600,7.79016259765625,0.09109240025281906,0.10675472766160965,-0.3516826629638672
1761340672389229600,7.8002294921875,0.02123422920703888,0.0794040635228157,-0.6223727464675903
1761340672399297800,7.8102978515625,0.031668297946453094,-0.01859738677740097,-0.7961961030960083
1761340672409364700,7.82036474609375,0.22248831391334534,0.2765684723854065,-0.9111133813858032
1761340672419431700,7.830431640625,0.3294900357723236,0.06581182032823563,-0.8180994987487793
1761340672429498600,7.84049853515625,0.4827570915222168,0.05114179849624634,-0.529118001461029
1761340672439565600,7.850565673828125,0.6000461578369141,0.20932269096374512,-0.09025301039218903
1761340672449632800,7.8606328125,0.5590220093727112,0.5733916759490967,0.31466010212898254
1761340672459699700,7.87069970703125,0.36600422859191895,0.6759345531463623,0.604552149772644
1761340672469766700,7.8807666015625,0.15543551743030548,0.4017607569694519,0.7481197118759155
1761340672479833600,7.89083349609375,0.03075510449707508,-0.17766240239143372,0.5367777347564697
1761340672489900500,7.900900634765625,-0.04722943902015686,-0.8549111485481262,-0.09517176449298859
1761340672499967500,7.910967529296875,-0.1453985571861267,-1.5403274297714233,-0.9473984241485596
1761340672510034700,7.92103466796875,-0.2641257345676422,-1.9595515727996826,-1.7353239059448242
1761340672520101600,7.9311015625,-0.514389157295227,-1.9849337339401245,-2.2069098949432373
1761340672530168600,7.94116845703125,-0.7321545481681824,-1.255717396736145,-2.1482508182525635
1761340672540236800,7.95123681640625,-0.8072949051856995,-0.09512513130903244,-1.5234628915786743
1761340672550303700,7.9613037109375,-0.707582414150238,1.2033601999282837,-0.5935575366020203
1761340672560370700,7.97137060546875,-0.4258808493614197,1.947999119758606,0.316581666469574
1761340672570437600,7.981437744140625,-0.19223666191101074,1.89607834815979,1.0199546813964844
1761340672580504600,7.991504638671875,-0.07189992815256119,1.278954029083252,1.4647048711776733
1761340672590571500,8.001571533203125,0.007382381707429886,0.513108491897583,1.6092860698699951
1761340672600638700,8.011638671875,0.07663829624652863,-0.1473757028579712,1.4776355028152466
1761340672610706000,8.021705810546875,0.12534883618354797,-0.5371420979499817,1.1320067644119263
1761340672620772900,8.03177294921875,0.16600771248340607,-0.5951971411705017,0.6442813873291016
1761340672630839800,8.04183984375,0.19366782903671265,-0.41890332102775574,0.12268532812595367
1761340672640906800,8.05190673828125,0.14890997111797333,-0.1775263249874115,-0.3162042200565338
1761340672650973700,8.0619736328125,0.03598608076572418,-0.05657539516687393,-0.5777146220207214
1761340672661041000,8.072041015625,-0.07211025804281235,-0.11551845818758011,-0.6478051543235779
1761340672671107800,8.08210791015625,-0.15817642211914062,-0.32860836386680603,-0.5985292196273804
1761340672681174800,8.0921748046875,-0.207055002450943,-0.6237773299217224,-0.5427995324134827
1761340672691241700,8.10224169921875,-0.22918559610843658,-0.8937041759490967,-0.5450671911239624
1761340672701309700,8.112309814453125,-0.22118154168128967,-0.9614995121955872,-0.6018514633178711
1761340672711376600,8.122376708984374,-0.19774173200130463,-0.7293698191642761,-0.6175901889801025
1761340672721443800,8.13244384765625,-0.18608656525611877,-0.3311707079410553,-0.5279836654663086
1761340672731510800,8.1425107421875,-0.22561293840408325,0.06323971599340439,-0.33554181456565857
1761340672741578000,8.152577880859376,-0.28847020864486694,0.362724632024765,-0.09214374423027039
1761340672751645000,8.16264501953125,-0.32453712821006775,0.48921865224838257,0.1428450644016266
1761340672761711900,8.1727119140625,-0.3009398877620697,0.442970335483551,0.3025289475917816
1761340672771778800,8.18277880859375,-0.21719573438167572,0.34810560941696167,0.36037254333496094
1761340672781845800,8.192845703125,-0.10104264318943024,0.24069111049175262,0.35089725255966187
1761340672791912700,8.20291259765625,0.014568641781806946,0.15089038014411926,0.3031845986843109
1761340672801980000,8.21297998046875,0.11006081849336624,0.05149933323264122,0.26917728781700134
1761340672812046800,8.223046875,0.17819273471832275,-0.07433076202869415,0.24735775589942932
1761340672822113800,8.23311376953125,0.23380500078201294,-0.1654312014579773,0.1957254707813263
1761340672832180700,8.2431806640625,0.2633573114871979,-0.22309690713882446,0.11618777364492416
1761340672842247700,8.25324755859375,0.27164822816848755,-0.27318817377090454,0.03665726259350777
1761340672852314600,8.263314697265624,0.25118687748908997,-0.3117204010486603,-0.02771773189306259
1761340672862382800,8.2733828125,0.20747464895248413,-0.2832719385623932,-0.05725177377462387
1761340672872449800,8.28344970703125,0.15239115059375763,-0.23018290102481842,-0.04847719147801399
1761340672882516700,8.293516845703126,0.08538088202476501,-0.1461057960987091,-0.025734800845384598
1761340672892584000,8.303583984375,0.030929626896977425,-0.06711775809526443,-0.009964094497263432
1761340672902651000,8.31365087890625,-0.01448887400329113,0.008606395684182644,-0.006119592115283012
1761340672912717800,8.3237177734375,-0.030750136822462082,0.08969352394342422,-0.012187870219349861
1761340672922784800,8.33378466796875,-0.0023071947507560253,0.09619379043579102,0.00471955630928278
1761340672932851700,8.343851806640625,0.03773370012640953,0.04741320013999939,0.06906578689813614
1761340672942918700,8.353918701171875,0.06266225874423981,-0.031042048707604408,0.1439807265996933
1761340672952985900,8.36398583984375,0.0673946961760521,-0.09757819771766663,0.20358173549175262
1761340672963052800,8.374052734375,0.0641765296459198,-0.13555780053138733,0.2016967535018921
1761340672973119700,8.38411962890625,0.08336726576089859,-0.10896027833223343,0.12171696871519089
1761340672983187700,8.394187744140625,0.10436271876096725,-0.06592290103435516,0.011686637066304684
1761340672993256000,8.404255859375,0.10998304933309555,-0.00406485702842474,-0.057589370757341385
1761340673003323000,8.414322998046876,0.10167659819126129,0.020109843462705612,-0.06194744631648064
1761340673013389800,8.424389892578125,0.08161766827106476,0.003674411214888096,0.004327183589339256
1761340673023456800,8.434456787109376,0.05084513872861862,-0.01780550926923752,0.09769348055124283
1761340673033523700,8.444523681640625,0.02748602256178856,-0.03117537684738636,0.169849693775177
1761340673043591000,8.4545908203125,0.008118411526083946,-0.057855527848005295,0.21114061772823334
1761340673053657900,8.464657958984375,0.014965131878852844,-0.07314393669366837,0.2273464947938919
1761340673063724800,8.474724853515625,0.037258703261613846,-0.04731401056051254,0.19636300206184387
1761340673073791700,8.484791748046876,0.059154149144887924,-0.02954726666212082,0.13284048438072205
1761340673083858700,8.494858642578125,0.06748765707015991,0.012111888267099857,0.06713009625673294
1761340673093925600,8.504925537109376,0.07597009837627411,0.041982170194387436,-0.00438776146620512
1761340673103992600,8.51499267578125,0.06685595214366913,0.03242994844913483,-0.042253319174051285
1761340673114059800,8.525059814453124,0.05687255784869194,0.004841728135943413,-0.0536591075360775
1761340673124126700,8.535126708984375,0.057403501123189926,-0.03443113714456558,-0.04570293426513672
1761340673134193700,8.545193603515624,0.06177427992224693,-0.08598221093416214,-0.04373858496546745
1761340673144262000,8.555261962890626,0.056726112961769104,-0.10648206621408463,-0.04230671003460884
1761340673154328800,8.565328857421875,0.044045474380254745,-0.11986791342496872,-0.04777684062719345
1761340673164395800,8.575395751953126,0.006372937932610512,-0.12119416147470474,-0.03617192059755325
1761340673174462700,8.585462646484375,-0.034749194979667664,-0.08210188895463943,-0.01720435544848442
1761340673184529700,8.59552978515625,-0.05819246172904968,-0.02507961541414261,-0.009306026622653008
1761340673194596900,8.605596923828125,-0.049305763095617294,0.04082163795828819,-0.011813392862677574
1761340673204663800,8.615663818359375,-0.029173050075769424,0.09542902559041977,-0.022799184545874596
1761340673214730800,8.625730712890626,-0.028374899178743362,0.09200207144021988,-0.021298758685588837
1761340673224797700,8.635797607421875,-0.03281420096755028,0.02713124267756939,0.0005870833992958069
1761340673234864600,8.64586474609375,-0.008597807958722115,-0.10829342156648636,0.029637644067406654
1761340673244931600,8.655931640625,0.056835610419511795,-0.2361939251422882,0.19260333478450775
1761340673254998800,8.665998779296874,0.10266062617301941,-0.4714527726173401,0.26020127534866333
1761340673265065700,8.676065673828125,0.07149851322174072,-0.3663492500782013,0.30324825644493103
1761340673275133000,8.6861328125,0.09019896388053894,-0.31570470333099365,0.21218439936637878
1761340673285200000,8.696199951171875,0.11631076037883759,-0.10554526001214981,0.09408692270517349
1761340673295266800,8.706266845703125,0.11264092475175858,0.05742528289556503,-0.054536107927560806
1761340673305334800,8.716334716796876,0.09054248034954071,0.17927028238773346,-0.13567233085632324
1761340673315401700,8.726401611328125,0.05594482272863388,0.23228874802589417,-0.15429368615150452
