time,seconds_elapsed,z,y,x
1761341757113587000,0.0165869140625,-0.06585340513586997,-0.009539159777667373,0.003383198997774161
1761341757123654000,0.02665380859375,-0.0681008918017149,-0.017767620549257842,0.010785607041651383
1761341757133719800,0.0367197265625,-0.06854980461299419,-0.019968509860709308,0.011631761842477134
1761341757143787000,0.046787109375,-0.06181903505325317,-0.019378873404487965,0.013159181472309864
1761341757153853000,0.05685302734375,-0.06286532923579216,-0.018263404709566382,0.008596563431620597
1761341757163918800,0.0669189453125,-0.061218731072545045,-0.013351265411730855,0.006461574396654032
1761341757173986000,0.076986083984375,-0.06720481974482535,-0.018248645531851796,0.007240869939769618
1761341757184052000,0.087052001953125,-0.06331541109085083,-0.019233327453956006,0.013114922205475159
1761341757194119000,0.097118896484375,-0.06825228297114372,-0.0112020880212076,0.009332216195832006
1761341757204185000,0.10718505859375,-0.07513444370031357,-0.017564627056755124,0.00796626160487067
1761341757214251000,0.1172509765625,-0.06241641642451286,-0.022135496902558952,0.007311510323453694
1761341757224318000,0.12731787109375,-0.06361234821081162,-0.0223261971690692,0.008662806201400235
1761341757234384100,0.137384033203125,-0.08321604334712028,-0.014509221541509031,0.005068055945332162
1761341757244450000,0.147449951171875,-0.07468786897659302,-0.012943433529511094,0.0010703783110249786
1761341757254517000,0.15751708984375,-0.07843348524570465,-0.020841091444157064,0.007853110953443683
1761341757264583200,0.167583251953125,-0.0675081866055727,-0.015374496601335703,0.0072678995105903595
1761341757274650000,0.177650146484375,-0.07005553300082683,-0.018232023190613834,0.00729804805368185
1761341757284715800,0.1877158203125,-0.06496726995110512,-0.013594590914621948,0.014534771541296504
1761341757294782000,0.197781982421875,-0.05688917743563652,-0.016330354287754742,0.005252518267300911
1761341757304849000,0.207848876953125,-0.05973287642896175,-0.01509748802455142,0.011479585221759042
1761341757314914800,0.217914794921875,-0.06721826374828815,-0.014499649995565413,0.013825906319310887
1761341757324982000,0.22798193359375,-0.07604805141389369,-0.0199873606916517,0.009308483693795278
1761341757335048000,0.2380478515625,-0.068867199999094,-0.018124617293383924,0.008480097445100546
1761341757345114000,0.248114013671875,-0.06497896038889885,-0.015470559120643884,0.006859204545267858
1761341757355181000,0.25818115234375,-0.06512625990509986,-0.01977274982659146,0.012043877174169756
1761341757365247000,0.2682470703125,-0.06348199982941151,-0.01145118567775935,0.016745341996545902
1761341757375313200,0.278313232421875,-0.06946750397980213,-0.019472762233018873,0.010966553099127486
1761341757385380000,0.288380126953125,-0.061085460081696505,-0.01708791292309761,0.006460875710332766
1761341757395446000,0.298446044921875,-0.0796422765135765,-0.014494736358430236,0.007852910024044103
1761341757405513000,0.308512939453125,-0.060336103019118306,-0.02046897019613534,0.013181822562380693
1761341757415579100,0.3185791015625,-0.06617138504385948,-0.017495635207463056,0.007832205162732862
1761341757425645000,0.32864501953125,-0.07006371630728245,-0.018602500470820814,0.007557950232038274
1761341757435712000,0.3387119140625,-0.065277066552639,-0.016751410977728663,0.005555058577563613
1761341757445778000,0.34877783203125,-0.0679746350735426,-0.015218337925244121,0.002560575769585557
1761341757455845000,0.35884521484375,-0.05406067601144313,-0.012722447722591458,-0.0006497782787773758
1761341757465910800,0.368910888671875,-0.06513152060210704,-0.017911248537339268,0.00701145423122216
1761341757475977000,0.37897705078125,-0.05704992095530033,-0.01586923958202824,0.005845378727070055
1761341757486044000,0.3890439453125,-0.06303133345246315,-0.015281740283966063,0.008521630465309135
1761341757496110000,0.399110107421875,-0.06018763445913791,-0.02170870459154248,0.011366338672209531
1761341757506176000,0.409176025390625,-0.06647475190460682,-0.018035934362933038,0.009775909409299493
1761341757516243000,0.419242919921875,-0.06393383525013924,-0.017627170898951588,0.005728931006859056
1761341757526309000,0.42930908203125,-0.06797638863921165,-0.010754947041906417,0.010020508987247012
1761341757536376000,0.4393759765625,-0.061545478808879846,-0.023661774888075887,0.0023964803822105747
1761341757546442000,0.44944189453125,-0.0687321754425764,-0.014493275053706019,-0.001963267463562079
1761341757556508200,0.459508056640625,-0.06199731422960758,-0.014714224328007548,0.010080504679330624
1761341757566575000,0.4695751953125,-0.06574117693305015,-0.01115435815565288,0.007181719064479694
1761341757576641000,0.47964111328125,-0.06843757641017437,-0.009840992268454283,0.001828558000875637
1761341757586708000,0.4897080078125,-0.06275602364242076,-0.013552176545001566,0.005726410256209783
1761341757596774100,0.499774169921875,-0.07098550732731819,-0.013884550304524599,0.004497343385289423
1761341757606839800,0.50983984375,-0.06739245127141476,-0.01621779729137197,0.006142950601270422
1761341757616907000,0.519906982421875,-0.06888765826523303,-0.014456048315856606,0.006366991448379121
1761341757626973000,0.529972900390625,-0.06694295393824577,-0.01410374601315707,0.005413133922801352
1761341757637038800,0.540038818359375,-0.0636520956993103,-0.012836557355243711,0.009494078526925295
1761341757647106000,0.55010595703125,-0.06978548388779163,-0.017400997460260987,0.010747905379766597
1761341757657172000,0.560171875,-0.06738835961818694,-0.02082028611814603,0.0025002604170935227
1761341757667239000,0.570239013671875,-0.06454466062486171,-0.007683686370402574,0.0024174135723849756
1761341757677305000,0.58030517578125,-0.06334814431667328,-0.013174666735809295,0.006828033088869415
1761341757687371000,0.59037109375,-0.06244856512844562,-0.012319182417634874,0.003916214462509378
1761341757697438000,0.60043798828125,-0.06499006630480289,-0.014641670548450201,0.008878494778694585
1761341757707504000,0.610504150390625,-0.06080488957464695,-0.024910934698954224,0.002044369875756092
1761341757717571000,0.620571044921875,-0.06529635577499866,-0.011940339167881757,0.010205802426277659
1761341757727637000,0.630636962890625,-0.06753975078761577,-0.010139555089920758,0.0003804917841451242
1761341757737703000,0.640702880859375,-0.07112988423407077,-0.015130002054665236,0.008803671410237439
1761341757747770000,0.65077001953125,-0.0666448477745056,-0.015419267324823885,0.015872943076188674
1761341757757835800,0.660835693359375,-0.07188508651554584,-0.012867500482778996,0.005017622666037641
1761341757767902000,0.67090185546875,-0.06859422827661037,-0.01808035802654922,0.007163064596359617
1761341757777969000,0.680968994140625,-0.06874854205548762,-0.005285813182126731,0.015887446525576523
1761341757788034800,0.691034912109375,-0.06291384455263614,-0.012998323788214474,0.01764224060392007
1761341757798102000,0.70110205078125,-0.05677928732037544,-0.0158264598862268,0.006539178810664452
1761341757808168000,0.71116796875,-0.06276712955832481,-0.018827157805860043,0.004573929452570155
1761341757818233900,0.72123388671875,-0.06352057827413082,-0.016946093299612403,0.01650977967500221
1761341757828301000,0.731301025390625,-0.06382394513487816,-0.013622465302236377,0.0070819439178565514
1761341757838367000,0.741366943359375,-0.0677168609201908,-0.019528620606102047,0.006713772759167477
1761341757848434000,0.751433837890625,-0.07146013910174369,-0.014637286634277552,0.013982475987356155
1761341757858500000,0.7615,-0.07624971146583556,-0.004239080608170479,0.010794881760072894
1761341757868566000,0.77156591796875,-0.0708580815553665,-0.017954631021339446,0.002924495444842614
1761341757878633000,0.781633056640625,-0.07250526424050331,-0.011164459424559027,-0.000047935361531563104
1761341757888699100,0.79169921875,-0.07085925059914588,-0.013397351309470831,0.00636992319098208
1761341757898764800,0.801764892578125,-0.060686816152930256,-0.013715842674113809,0.0024512838759459554
1761341757908832000,0.81183203125,-0.05380640898942947,-0.015665058779437094,0.012086862365948036
1761341757918898000,0.82189794921875,-0.07056757417619228,-0.014705401700735091,0.01639846478763502
1761341757928964900,0.83196484375,-0.06578384703099727,-0.014819310403987764,0.008742250946047716
1761341757939030800,0.84203076171875,-0.06832827081680297,-0.011669577668793498,0.011839668972115032
1761341757949097000,0.852096923828125,-0.06548574086725711,-0.017639939048979432,0.007405677713197656
1761341757959164000,0.862163818359375,-0.06698445499241351,-0.014092037309054284,0.0071407842658925795
1761341757969229800,0.872229736328125,-0.06623685149550437,-0.01185368379773572,0.00730115332622081
1761341757979296000,0.8822958984375,-0.05755611691176891,-0.008966090863756835,-0.0005358330429065972
1761341757989363000,0.892363037109375,-0.05785363855361938,-0.019490681482199578,0.004787672667950392
1761341757999428900,0.902428955078125,-0.06967617829442024,-0.020939126724842935,0.005630690230196342
1761341758009496000,0.91249609375,-0.07207213352024555,-0.009934661901276558,0.01189444049980957
1761341758019562000,0.92256201171875,-0.07162497427463531,-0.019306301358621568,0.005805366377090103
1761341758029628200,0.932628173828125,-0.06758592801690101,-0.021362722431775182,0.014037827470363117
1761341758039695000,0.942695068359375,-0.062352119016647334,-0.009406747303344308,0.008856876601930706
1761341758049761000,0.952760986328125,-0.05906009173393249,-0.017926884497888384,0.005683639693562872
1761341758059828000,0.962827880859375,-0.06369944197237491,-0.01479525367496535,0.006054760861163959
1761341758069894100,0.97289404296875,-0.07163023497164249,-0.012377488476131111,0.015064800464501604
1761341758079959800,0.982959716796875,-0.0626543168336153,-0.015452256278973071,0.011943458140152506
1761341758090026800,0.99302685546875,-0.07118482929170131,-0.013176292437314987,0.011009816852118819
1761341758100093000,1.003093017578125,-0.060411506342887875,-0.012126637253910302,0.0004096585131250322
1761341758110158800,1.013158935546875,-0.06280979965627193,-0.01566719593759626,0.0055524738948326555
1761341758120225800,1.023225830078125,-0.06041793608367443,-0.010766582680772989,0.010743658462911844
1761341758130292000,1.0332919921875,-0.05802607251107692,-0.012141268567461519,0.00811885378411971
1761341758140359000,1.04335888671875,-0.07433949393033981,-0.01263590195029974,0.00971460767611861
1761341758150424800,1.0534248046875,-0.06431728160977364,-0.011414251200854778,0.0045356935011455785
1761341758160491000,1.063490966796875,-0.061923079949617384,-0.00660115183070302,0.0018800826921360565
1761341758170558000,1.073557861328125,-0.06417115113735199,-0.01126879658186808,0.004045074139721692
1761341758180624100,1.0836240234375,-0.07628887443244457,-0.014852682950627059,0.007702359104831703
1761341758190690000,1.09368994140625,-0.06536649840176105,-0.01728860486065969,0.008038600755296646
1761341758200757000,1.103757080078125,-0.06671382135748863,-0.009934095645695924,0.022254798733559435
1761341758210823200,1.1138232421875,-0.06282382818162441,-0.014599566706083714,0.012361044231406413
1761341758220890000,1.12389013671875,-0.06985854912400245,-0.01764730037152767,0.008665555280912667
1761341758230956000,1.1339560546875,-0.0725578712105751,-0.013972429517377167,0.0050748966780724
1761341758241022000,1.14402197265625,-0.0683703563928604,-0.008775609792955219,0.009083753293519839
1761341758251089000,1.1540888671875,-0.06732815386354923,-0.011249927484616637,0.0072482769280904896
1761341758261154800,1.16415478515625,-0.06493687481284141,-0.01788910977076739,0.01698434751734603
1761341758271221800,1.1742216796875,-0.06852876182496548,-0.012452581272646784,0.016159495799452996
1761341758281288000,1.184287841796875,-0.07406652220785617,-0.010035966851282864,0.00704173063847702
1761341758291353900,1.194353759765625,-0.06209726747274399,-0.010546126596815884,0.006781513366289437
1761341758301420800,1.2044208984375,-0.06703940005004405,-0.014002514128386974,0.008287291986471972
1761341758311487000,1.214487060546875,-0.0653904637992382,-0.008915219193045049,0.00044599933498539027
1761341758321553000,1.224552978515625,-0.07331833418905735,-0.007845671999081968,0.00936094453339465
1761341758331620000,1.2346201171875,-0.06792845784425736,-0.005875796698220074,0.007153675713506526
1761341758341686000,1.24468603515625,-0.07346680274903773,-0.01344358333768323,0.003823097385535948
1761341758351753000,1.2547529296875,-0.06329378378093242,-0.009600552842393516,0.0049044354819925496
1761341758361819100,1.264819091796875,-0.06210019008219242,-0.015996300027798862,0.007789731427608058
1761341758371885000,1.274885009765625,-0.05402151304483414,-0.01382743155611679,0.008451186444447376
1761341758381952000,1.284951904296875,-0.0615039777547121,-0.011661503960192204,0.01334831083624158
1761341758392018200,1.29501806640625,-0.06823942348957061,-0.010701006631273775,0.009686116800573654
1761341758402083800,1.305083740234375,-0.07078209370970726,-0.010314181004464625,0.0065763050838140765
1761341758412150800,1.31515087890625,-0.06689151601195335,-0.0035898046528920527,0.02084564432168845
1761341758422217000,1.325217041015625,-0.06240063433349132,-0.004284125326294451,0.014043604190601034
1761341758432284000,1.335283935546875,-0.07033084281086921,-0.01210252572596073,0.012989414395974017
1761341758442349800,1.345349853515625,-0.06838496944010257,-0.015103132314048707,0.010771080759377218
1761341758452416000,1.355416015625,-0.06688859340250491,-0.012359697091113776,0.007658835056936368
1761341758462483000,1.36548291015625,-0.061350833019614213,-0.01945740026710555,0.00793197574277874
1761341758472548900,1.375548828125,-0.06254910289347171,-0.01583400387186557,0.012486584006948395
1761341758482615000,1.385614990234375,-0.06449848339557647,-0.010774090133793652,0.010956246334244496
1761341758492682000,1.395681884765625,-0.06479717408120632,-0.013361439745873211,0.010499451610608957
1761341758502748000,1.405747802734375,-0.0667412938863039,-0.017644889218732713,0.015155351125053129
1761341758512815000,1.415815185546875,-0.06898585794270039,-0.00492275202339515,0.0020033254793146624
1761341758522881000,1.425881103515625,-0.07003449021279812,-0.005025335615035146,0.0029345053822034967
1761341758532947000,1.435947021484375,-0.06898702698647975,-0.012921440893411636,0.010657277087401598
1761341758543014100,1.44601416015625,-0.06883738938272,-0.009331471843738108,0.0015698705320712177
1761341758553080000,1.456080078125,-0.06405073962807654,-0.010148542113974689,0.013542741996375843
1761341758563146000,1.46614599609375,-0.06748889738321304,-0.015984518258459864,0.006700219157850369
1761341758573213000,1.476212890625,-0.06644084963500499,-0.024102066001482306,-0.0014419789692386984
1761341758583278800,1.48627880859375,-0.06868775177896022,-0.018725798056926576,0.00492906303317286
1761341758593345800,1.496345703125,-0.06943535527586936,-0.012187957253400236,0.0053406349421711635
1761341758603412000,1.506411865234375,-0.07332710201740264,-0.013756978402100502,0.0016702530334703623
1761341758613478000,1.516477783203125,-0.06584872896075249,-0.010200089638121426,0.0074930820020148526
1761341758623544800,1.526544921875,-0.06779810946285725,-0.015869897169154136,0.010796612492855637
1761341758633611000,1.536611083984375,-0.06091770229935646,-0.004688596207648515,0.005040724980412051
1761341758643677000,1.546677001953125,-0.05732523076534271,-0.006108710404951125,0.00203939230653923
1761341758653743900,1.556743896484375,-0.0636082565575838,-0.015234832402318715,0.007575303225638344
1761341758663810000,1.56681005859375,-0.06585632774531841,-0.011170980496890841,0.012072226485819555
1761341758673877000,1.576876953125,-0.06809913823604584,-0.007660013233870267,0.005104867124650627
1761341758683943700,1.586943603515625,-0.07438450211584567,-0.011039444805402308,0.007506188078760169
1761341758694009600,1.597009521484375,-0.0734860919713974,-0.011084160729963332,0.0038374866704922166
1761341758704076500,1.60707666015625,-0.056126376369595526,-0.011780728159379214,0.0019365027542226016
1761341758714142500,1.617142578125,-0.0654033232808113,-0.00986561525305733,0.0077041172370780255
1761341758724209700,1.627209716796875,-0.06734978117346763,-0.01341746251573786,0.01458631906544324
1761341758734275600,1.637275634765625,-0.07572714889645576,-0.0079842767521739,0.009372091548494063
1761341758744341500,1.647341552734375,-0.06824702227413654,-0.012293043329380452,0.007242344944225623
1761341758754408700,1.65740869140625,-0.07049041728675365,-0.009638473699986935,0.0016820028367685153
1761341758764474600,1.667474609375,-0.06061491996049881,-0.011866324083600192,0.013598367474018595
1761341758774540500,1.67754052734375,-0.0645060821801424,-0.008973306055832653,0.0050543242475017906
1761341758784607700,1.687607666015625,-0.0646539662182331,-0.010708733280003071,0.006705009497399442
1761341758794673700,1.697673583984375,-0.06599836656451225,-0.010997651490289717,0.0032632898119976743
1761341758804740600,1.70774072265625,-0.05896364562213421,-0.009564623012486844,0.005660930104833096
1761341758814806800,1.717806884765625,-0.07871288670897483,-0.008344543165620416,0.012766560858953743
1761341758824872700,1.727872802734375,-0.06749006642699241,-0.006414451885875314,0.010022810542187652
1761341758834939600,1.737939697265625,-0.06539572449624538,-0.018821257788036016,0.006767448308318853
1761341758845005800,1.748005859375,-0.06180383748412132,-0.012542451513186096,0.008644393761875107
1761341758855071500,1.758071533203125,-0.06479308242797852,-0.013794680063985288,0.003958843461261131
1761341758865138400,1.768138427734375,-0.07422083598673343,-0.019467775530647484,0.01634037335827015
1761341758875204600,1.77820458984375,-0.07123159104287624,-0.016208792001008988,0.011299155187513678
1761341758885270500,1.7882705078125,-0.06345102016925812,-0.011835033896192908,0.001971793263312429
1761341758895337500,1.79833740234375,-0.07243044543862343,-0.013476499226596206,0.0017106900751357897
1761341758905403600,1.808403564453125,-0.06090776542723179,-0.008135868851002306,0.0036931188968941566
1761341758915470600,1.818470703125,-0.05746726958453655,-0.010611885309405624,0.004756318548461422
1761341758925536500,1.82853662109375,-0.06824526870846748,-0.01059909889306873,0.01103688752213493
1761341758935602700,1.838602783203125,-0.06869476604163646,-0.013410448253061622,0.010745023869513533
1761341758945669600,1.848669677734375,-0.06255787072181701,-0.009412574255932123,0.015483669763966463
1761341758955735800,1.85873583984375,-0.07034077968299389,-0.010985668791551143,0.007654140615509822
1761341758965802800,1.868802734375,-0.07198796236813068,-0.008750676281098275,0.008808767710463144
1761341758975868700,1.87886865234375,-0.07887363022863865,-0.011199019281286745,0.00515445558715146
1761341758985934800,1.888934814453125,-0.07064122393429279,-0.02165306541416794,0.003082448785798624
1761341758996001800,1.899001708984375,-0.05836743329465389,-0.01120188709180802,0.00994074458219111
1761341759006067500,1.9090673828125,-0.06734802760779857,-0.006017451924923807,0.00547073672839906
1761341759016133600,1.919133544921875,-0.06989537400305271,-0.012991145128756761,0.008309882844192906
1761341759026200600,1.92920068359375,-0.06375906320512294,-0.0116010607435368,0.0073891558366594836
1761341759036266500,1.9392666015625,-0.06645195555090903,-0.010111370175052434,0.003515584072633646
1761341759046332700,1.949332763671875,-0.06809738467037678,-0.009090301765315233,0.006583150383131578
1761341759056399600,1.959399658203125,-0.07827507981359959,-0.013156053366884588,0.006926018137205392
1761341759066465500,1.969465576171875,-0.07707680993974209,-0.0027531711656600235,0.007601268783956765
1761341759076532500,1.979532470703125,-0.06121405489742755,-0.006970752328075468,0.011394450521841645
1761341759086598700,1.9895986328125,-0.06734919665157794,-0.012226480899192392,0.008924872937379404
1761341759096664600,1.99966455078125,-0.06360942560136318,-0.015836798617150635,0.010660364093631506
1761341759106731800,2.009731689453125,-0.05597732328772544,-0.019314064539968968,0.01045494574860204
1761341759116797700,2.019797607421875,-0.06031272214353084,-0.015744919082615525,0.007687444663490168
1761341759126863600,2.029863525390625,-0.06734393595457076,-0.012662114103790372,0.0014397504795342683
1761341759136930800,2.039930908203125,-0.07003858186602592,-0.012861764861736446,0.006239433245686814
1761341759146996700,2.049996826171875,-0.06330722778439521,-0.011387381460238247,0.00249237850473728
1761341759157063700,2.060063720703125,-0.06226327168941497,-0.013444569718372075,0.008230319368536583
1761341759167129600,2.070129638671875,-0.07229132922887802,-0.014256945547182112,0.008321943174744956
1761341759177195500,2.080195556640625,-0.06750643303990364,-0.010943510150257497,0.009425794497109018
1761341759187262500,2.090262451171875,-0.068104398933053,-0.008442541913688182,0.0016238018095493317
1761341759197328600,2.10032861328125,-0.06840016700923443,-0.009908924671821296,0.0017020227114902808
1761341759207394600,2.11039453125,-0.06944587666988372,-0.005513740186486393,0.008550696729589254
1761341759217461500,2.12046142578125,-0.07274141108393668,-0.005074124926514923,0.01002319413467776
1761341759227527700,2.130527587890625,-0.06825169844925404,-0.007910846189782023,0.008163798037543893
1761341759237594600,2.1405947265625,-0.06915010859370231,-0.011212408485822379,0.014175002884771673
1761341759247660500,2.15066064453125,-0.07393734287023544,-0.009649817077908664,0.009291920718061737
1761341759257726700,2.160726806640625,-0.07184183189570903,-0.0042759968187659975,0.010342183256242424
1761341759267793700,2.170793701171875,-0.06421499027907848,-0.012752386203128845,0.010327474310877733
1761341759277859600,2.180859619140625,-0.061821957662701606,-0.007896781131811439,0.00771555194654502
1761341759287925800,2.19092578125,-0.06780629276931285,-0.014704744113609194,0.010097985537094064
1761341759297992700,2.20099267578125,-0.07079553771317004,-0.010231964347418398,0.009008733562240377
1761341759308058600,2.21105859375,-0.06974807448685169,-0.00877062309058383,0.00756146649653092
1761341759318125800,2.221125732421875,-0.06510404807329177,-0.013179890900198369,0.012270023213396779
1761341759328191500,2.23119140625,-0.07018938851356506,-0.008651654619723557,0.015847105382033624
1761341759338257700,2.241257568359375,-0.06944120049476624,-0.009295121888723223,0.0033986066294601183
1761341759348324600,2.25132470703125,-0.07138941195309162,-0.020288261600676923,0.012081364206923172
1761341759358390500,2.261390625,-0.06944412310421466,-0.019243976712133733,0.0058772854024078695
1761341759368456700,2.271456787109375,-0.07363631409704685,-0.018417955950461327,0.013371477082697673
1761341759378523600,2.281523681640625,-0.06690554453730582,-0.00645843715807423,0.00926873620529659
1761341759388589600,2.291589599609375,-0.06406184554398059,-0.011122611310519278,0.013590302898571825
1761341759398656500,2.301656494140625,-0.06212006382644176,-0.00825586023516953,0.0014919418910751118
1761341759408722700,2.31172265625,-0.06645955433547496,-0.00705704237204045,0.0012443649047520012
1761341759418788600,2.32178857421875,-0.0682534520149231,-0.007900909317657351,0.005077280431403778
1761341759428855600,2.33185546875,-0.06526186898350715,-0.01459494532989338,0.0018896862041205167
1761341759438921700,2.341921630859375,-0.06076806469559669,-0.017035726078134028,0.006556618569232523
1761341759448987600,2.351987548828125,-0.07393500478267669,-0.015448840479180216,0.005186494693229906
1761341759459054600,2.3620546875,-0.06166355223059654,-0.020265538312215357,0.0063468482760712505
1761341759469120800,2.372120849609375,-0.0668985302746296,-0.020556502349115907,0.015501429182942957
1761341759479187700,2.382187744140625,-0.06525193211138249,-0.00633422625651583,0.0007708747746422886
1761341759489253600,2.392253662109375,-0.0633031361311674,-0.014551197519712148,0.006371635657455772
1761341759499319600,2.402319580078125,-0.05986264028847217,-0.014346468727849422,-0.0019513806629460303
1761341759509386500,2.412386474609375,-0.06315525209307671,-0.009239354847185313,0.005075746061443351
1761341759519452700,2.42245263671875,-0.06539689354002476,-0.01447647004937753,0.006352675228659063
1761341759529518600,2.4325185546875,-0.06240180337727069,-0.012759290867950766,0.013425317028630524
1761341759539585500,2.44258544921875,-0.054773208194971085,-0.011749693700298667,0.004582299988693557
1761341759549651700,2.452651611328125,-0.0641968701004982,-0.003655051908828318,0.003866192175168544
1761341759559718700,2.46271875,-0.06987900739014148,-0.011748469857592135,0.0009807272661942988
1761341759569784600,2.47278466796875,-0.06359364351034164,-0.015998619849048552,0.0008877289202297106
1761341759579850800,2.482850830078125,-0.06613514468669891,-0.012495251370593905,0.01245191455236636
1761341759589917700,2.492917724609375,-0.06299450857341289,-0.016162468641251326,0.004018382495618425
1761341759599983600,2.502983642578125,-0.06958148574829101,-0.01843424949813634,0.005654335967265069
1761341759610049800,2.5130498046875,-0.06599369038939476,-0.01452460177373141,0.014377407288807443
1761341759620116700,2.52311669921875,-0.06629121203124523,-0.011172387002687901,0.012711031279433517
1761341759630182700,2.5331826171875,-0.06539397093057632,-0.01471031533787027,0.008435066426708363
1761341759640249900,2.543249755859375,-0.06988426808714866,-0.012837288007605821,-0.0004614754653302952
1761341759650315500,2.5533154296875,-0.07407762812376022,-0.01731792228668928,0.004990771191730164
1761341759660381400,2.56338134765625,-0.06584931348264217,-0.014387111265491694,0.007403138696239329
1761341759670448600,2.57344873046875,-0.06390694724321365,-0.011279117046482861,0.00939573728556279
1761341759680514600,2.5835146484375,-0.06779869398474693,-0.014685601021721959,0.002421779220248572
1761341759690579700,2.593579833984375,-0.06450725122392177,-0.019006806955393404,0.009939863232779317
1761341759700646700,2.603646728515625,-0.06660042411088943,-0.01056777217304334,0.0074601113141747185
1761341759710712600,2.613712646484375,-0.07168693359494209,-0.018834464329481125,0.011475977625721133
1761341759720778800,2.62377880859375,-0.06704290718138217,-0.01564849123712629,0.007064901451510377
1761341759730845700,2.633845703125,-0.07183364858925342,-0.007619717756099998,0.007093086366378702
1761341759740911600,2.64391162109375,-0.06809037040770054,-0.012530596678610891,0.009604119339236057
1761341759750978800,2.653978759765625,-0.06599485943317412,-0.006182250565197318,0.0064252655408345155
1761341759761044700,2.664044677734375,-0.06419803914427757,-0.010409494605101644,0.005438752421247773
1761341759771110700,2.674110595703125,-0.06973989118039607,-0.007604392322804778,0.00873097150020767
1761341759781177900,2.684177734375,-0.06554828470945358,-0.009495576364267616,0.008611295209871604
1761341759791243800,2.694243896484375,-0.06584580635130405,-0.016114081188570707,0.008756366236368194
1761341759801310700,2.704310791015625,-0.0641968701004982,-0.015777213917020708,0.00009861980257555842
1761341759811377000,2.714376953125,-0.06494564264118671,-0.009325096901878714,-0.001692839324614033
1761341759821442800,2.72444287109375,-0.07527063730061054,-0.009182765821740031,0.006225815712288022
1761341759831509800,2.734509765625,-0.06374737276732921,-0.013903675130102783,0.009433534845570102
1761341759841576000,2.744575927734375,-0.06883622033894062,-0.012191446118429303,0.016972620546934193
1761341759851641600,2.7546416015625,-0.07077858657836913,-0.009029840282350777,0.006746058460418134
1761341759861708500,2.76470849609375,-0.06748363668620586,-0.013935038382746278,0.011736350161535665
1761341759871774700,2.774774658203125,-0.07451075884401798,-0.012386073641385883,0.01284709244898986
1761341759881840600,2.784840576171875,-0.06762859811484813,-0.018473083671182392,0.0035440703816013407
1761341759891907600,2.794907470703125,-0.07122340773642062,-0.014140790087915956,0.007136172022856772
1761341759901973800,2.804973876953125,-0.07107552369832992,-0.01422762812115252,0.007096725928457453
1761341759912040700,2.815040771484375,-0.06748305216431617,-0.017099073637928813,0.0018929147742455825
1761341759922106600,2.825106689453125,-0.07317045015096664,-0.008223273139819503,0.006844436234398745
1761341759932172800,2.8351728515625,-0.0743698890686035,-0.010689955514296889,0.005794054965209215
1761341759942239700,2.84523974609375,-0.06793722567260264,-0.01481631472930312,0.0062397803055588156
1761341759952306000,2.855305908203125,-0.06554360853433609,-0.010912420892249792,0.0010763285611988976
1761341759962371800,2.865371826171875,-0.0676432111620903,-0.017138090474065393,0.010032085260609164
1761341759972438800,2.875438720703125,-0.07152911268472671,-0.013287241998501122,0.014271106503275222
1761341759982505000,2.8855048828125,-0.07078618536293506,-0.012935049293655902,0.016808849386544897
1761341759992572000,2.895572021484375,-0.07498129896521567,-0.0065931329210288814,0.008096664785197936
1761341760002637800,2.905637939453125,-0.06869885769486427,-0.010751567774731666,0.006806232249015011
1761341760012703700,2.915703857421875,-0.07453706232905387,-0.008896003035921604,0.006707662678789347
1761341760022770700,2.925770751953125,-0.06974924353063106,-0.014391988370008766,-0.000784391843341291
1761341760032836600,2.935836669921875,-0.06720540426671505,-0.012880816622078418,0.004950758841750212
1761341760042902800,2.94590283203125,-0.07453823137283325,-0.01614968222491443,0.017365359891299156
1761341760052969700,2.9559697265625,-0.06915010859370231,-0.00753635032158345,0.00668109889884945
1761341760063035600,2.96603564453125,-0.06885083338618278,-0.004263776658009737,0.007886341936187818
1761341760073102600,2.9761025390625,-0.06720598878860473,-0.007933806940261275,0.010717619839357212
1761341760083168800,2.986168701171875,-0.0633165801346302,-0.013840236238762736,0.006039558725454844
1761341760093234700,2.996234619140625,-0.06317044966220856,-0.01624662152705714,0.005806001131329685
1761341760103302000,3.006302001953125,-0.06646423051059246,-0.012607461307104675,0.01021509084443096
1761341760113367800,3.016367919921875,-0.07798924860954284,-0.017276366433594374,0.00823185373849701
1761341760123433700,3.026433837890625,-0.06945932067334651,-0.010096483133174478,0.010806512832362204
1761341760133501000,3.0365009765625,-0.058536944642663,-0.010091715626511722,0.009511449786834419
1761341760143566800,3.04656689453125,-0.05524842449128627,-0.011570884800981729,0.004456358354352414
1761341760153632800,3.0566328125,-0.06512333729565144,-0.004594305520318448,0.013209911579126491
1761341760163700000,3.066699951171875,-0.07589607572257519,-0.009912230873759835,0.006950796385435387
1761341760173765600,3.076765625,-0.06916238355338573,-0.010543185721058397,0.0035869140094844623
1761341760183832600,3.08683251953125,-0.06123217507600784,-0.012169471748638897,0.003124397364538163
1761341760193898800,3.096898681640625,-0.06916062998771667,-0.013920991591084748,0.003274984816368669
1761341760203964700,3.106964599609375,-0.068710548132658,-0.01607703711381182,0.005303426470630802
1761341760214031600,3.117031494140625,-0.0688631083458662,-0.0161231595441699,0.0004505156798986718
1761341760224097800,3.127097900390625,-0.07111001048982143,-0.006874872471857816,0.004832333793584257
1761341760234163700,3.137163818359375,-0.05928454813957214,-0.010771222323272376,0.0023253468081820754
1761341760244230700,3.147230712890625,-0.060329673278331754,-0.01849379766564816,0.008517420081072487
1761341760254296800,3.157296875,-0.06706453449130058,-0.01095487179448828,0.00344619493111968
1761341760264363800,3.16736376953125,-0.0678133070319891,-0.01589813688294962,0.006836453857342713
1761341760274429700,3.1774296875,-0.06900923881828784,-0.017143387703690678,0.005819869826477952
1761341760284496000,3.187495849609375,-0.06571487344801426,-0.008829878997150807,0.012387598878191783
1761341760294562800,3.197562744140625,-0.06376841555535794,-0.00976597253717482,0.009153918753168545
1761341760304628700,3.207628662109375,-0.06661562168002128,-0.008089600290171802,-0.001493266198481433
1761341760314694700,3.217694580078125,-0.06751695443391799,-0.0137863323607482,0.010580773218511603
1761341760324761900,3.227761962890625,-0.06542378154695033,-0.013835286069009451,0.010907758416864088
1761341760334827800,3.237827880859375,-0.06961597253978252,-0.01039300012802705,0.011354196143266744
1761341760344894700,3.247894775390625,-0.07320785955190658,-0.003963971727527678,0.007730918479035608
1761341760354960600,3.257960693359375,-0.0666238049864769,-0.007831917468365281,0.0020405248177004977
1761341760365026800,3.26802685546875,-0.06333119318187236,-0.016541658950876444,0.004343705459847115
1761341760375093800,3.27809375,-0.07381167066395282,-0.005818513553030789,0.005887984892935492
1761341760385159700,3.28815966796875,-0.06722644705474376,-0.01095507272388786,0.0044489833320723845
1761341760395225900,3.298225830078125,-0.06961947967112064,-0.0201112245333381,0.0005866407815366983
1761341760405292800,3.308292724609375,-0.06977145536243916,-0.017445165395550428,0.003376938220346346
1761341760415358700,3.318358642578125,-0.06827800193428993,-0.011967062778025865,0.009645245934068224
1761341760425425000,3.3284248046875,-0.07201952655017375,-0.014237583259586245,0.001527949352795258
1761341760435491800,3.338491943359375,-0.06094926648139953,-0.009777151518315076,0.004060874497052282
1761341760445557800,3.348557861328125,-0.06963584628403187,-0.010325323452986776,0.0017680919513339175
1761341760455624700,3.358624755859375,-0.06978957554101943,-0.012391480468865483,0.002370377826574258
1761341760465691000,3.36869091796875,-0.060061962252855296,-0.008872165502607821,0.006537959534535184
1761341760475756500,3.378756591796875,-0.06470365057885646,-0.0059274903528392315,0.011167797592538409
1761341760485823700,3.38882373046875,-0.07293488782942295,-0.010036021650210022,0.008403552477015182
1761341760495889700,3.3988896484375,-0.07503098332583903,-0.015822788358107208,0.0015936030341079457
1761341760505955600,3.40895556640625,-0.07188976269066333,-0.011857519722636788,0.007626024199300445
1761341760516022800,3.419022705078125,-0.06710019032657145,-0.012170512928254901,0.00790519276713021
1761341760526088700,3.429088623046875,-0.06829962924420833,-0.008456314710713923,0.005290653754025697
1761341760536155600,3.43915576171875,-0.0680003540366888,-0.01144349556164816,0.003232323851576075
1761341760546221800,3.449221923828125,-0.06919453225731849,-0.00989734383188188,0.007526646344899199
1761341760556287700,3.459287841796875,-0.0688935034841299,-0.002501954617258161,0.004207936551235616
1761341760566354700,3.469354736328125,-0.06799976951479911,-0.0026320472703315317,0.007360838491050526
1761341760576420900,3.4794208984375,-0.07309095517396927,-0.012208360720612108,0.0043003184092696755
1761341760586486800,3.48948681640625,-0.06755319479107856,-0.014511559629067777,0.01365196995793376
1761341760596553700,3.4995537109375,-0.07174363221824169,-0.004576788129936903,0.009595095782564022
1761341760606620000,3.509619873046875,-0.0708452220737934,-0.010319660897180437,0.014934278553165495
1761341760616686800,3.519686767578125,-0.06545943738222122,-0.0051700413153506816,0.007145022049592807
1761341760626752800,3.529752685546875,-0.06800503021180629,-0.008400639000721275,0.004238445853930898
1761341760636818700,3.539818603515625,-0.059174073502421376,-0.008352160216495394,0.0013876595326932147
1761341760646886000,3.549885986328125,-0.0693511841237545,-0.009450367249362171,0.0060926497527165335
1761341760656951600,3.55995166015625,-0.06352057827413082,-0.009847714270185678,0.0025688412744319065
1761341760667017700,3.570017822265625,-0.05902852755188941,-0.00880903713852167,0.005792643892834894
1761341760677084700,3.580084716796875,-0.07788345014750957,-0.004574797102250158,-0.002415669139870442
1761341760687151000,3.590151123046875,-0.06815583685934543,-0.009868190802633762,0.008474096962576732
1761341760697218300,3.60021826171875,-0.06067512571513652,-0.00993541081994772,0.008293621262558736
1761341760707284000,3.610283935546875,-0.05917699611186981,-0.009906824046280235,-0.004538611544016748
1761341760717350000,3.620349853515625,-0.07519172684550285,-0.002736749753821641,0.0071600186893250786
1761341760727417000,3.6304169921875,-0.07833294748067855,-0.00879418662926182,0.011132927208556792
1761341760737483000,3.64048291015625,-0.07414718622863292,-0.012709862235654144,0.0006026877340395003
1761341760747549200,3.650549072265625,-0.06607376988828181,-0.010949282303918152,0.0039955587424570695
1761341760757616000,3.6606162109375,-0.07310790630877018,-0.008214249583147466,0.004536236923839897
1761341760767682000,3.67068212890625,-0.07056523608863353,-0.014006112591270357,-0.002778104677516967
1761341760777748200,3.680748291015625,-0.07056640513241291,-0.009757697899173945,0.007650989677198231
1761341760787815200,3.690815185546875,-0.05694996771216392,-0.003652257163543254,0.01041010652645491
1761341760797881000,3.700881103515625,-0.05964461362361908,-0.016647329548746346,0.004811660898313857
1761341760807948000,3.710947998046875,-0.06129238083064556,-0.011654087838716805,0.004864550996175967
1761341760818014200,3.72101416015625,-0.05814999115169048,-0.010783753011282532,0.0012723991225706414
1761341760828080000,3.731080078125,-0.06817512608170509,-0.010043510836921631,0.0064660861749900505
1761341760838147000,3.74114697265625,-0.07730126634538173,-0.0048546004243195055,0.004293226514779962
1761341760848213200,3.751213134765625,-0.07371347098648548,-0.007090761978551745,0.005799913883837871
1761341760858279000,3.76127880859375,-0.06922609643936156,-0.014688724560569971,0.008552683190698735
1761341760868345900,3.771345947265625,-0.06458966881036758,-0.010978380534239112,-0.001253941017272882
1761341760878412000,3.781412109375,-0.05785422307550907,-0.007614749320037663,0.010538527812249957
1761341760888478000,3.79147802734375,-0.061895022898912425,-0.008790770829468966,0.002885332478233613
1761341760898545200,3.801545166015625,-0.06368950510025025,-0.013452259834483265,0.012864299312117508
1761341760908611000,3.811611083984375,-0.06698387047052383,-0.009947320453450084,0.007213041217927821
1761341760918678000,3.821677978515625,-0.07147533667087555,-0.013326642427127807,0.004651287271408364
1761341760928744200,3.831744140625,-0.0672854837656021,-0.00701930417753756,0.0038983363125240427
1761341760938810000,3.84181005859375,-0.06908405762016773,-0.01096080834493041,0.004012729072966612
1761341760948877000,3.851876953125,-0.06773556562066078,-0.011333514114841818,0.0038885729703353714
1761341760958943200,3.861943115234375,-0.0659393298536539,-0.01000164445657283,-0.001483196895616129
1761341760969009200,3.872009033203125,-0.07282207510471343,-0.010061831944901496,-0.005175064550340175
1761341760979076000,3.882076171875,-0.07147416762709617,-0.01114672283846885,0.0009622097953921184
1761341760989142300,3.892142333984375,-0.06578969224989414,-0.007205273470003158,0.005339347167382948
1761341760999209200,3.902209228515625,-0.07028115845024585,-0.004588003643695265,0.006418840366625227
1761341761009275100,3.912275146484375,-0.07073007126152515,-0.01250049380129203,0.004291198954475112
1761341761019341000,3.922341064453125,-0.07162789688408375,-0.0035433899615891274,0.0021268194282427428
1761341761029408000,3.932407958984375,-0.07058218722343444,-0.011698785496968775,-0.0016902957410784437
1761341761039474000,3.942473876953125,-0.07088438504040241,-0.007853690908756107,-0.0012905056014191358
1761341761049540000,3.9525400390625,-0.06115735627412796,-0.0012450316250324249,0.009167682417039759
1761341761059606000,3.96260595703125,-0.0660965662419796,0.0003061068071052432,0.006540430052834563
1761341761069673000,3.9726728515625,-0.07268588150441646,-0.007551730553805828,0.0021095258001470937
1761341761079739100,3.9827392578125,-0.06864858881235122,-0.012406440575979649,0.006447075513843447
1761341761089806000,3.99280615234375,-0.070148471981287,-0.00777850678069517,0.00100795776641462
1761341761099872000,4.0028720703125,-0.06371990023851394,-0.0006315759018063545,0.005188143227621913
1761341761109938200,4.012938232421875,-0.07030453932583332,-0.00823750259457156,0.0005463635700754821
1761341761120005000,4.023005126953125,-0.07314590023159981,-0.009052746233902871,0.002067805550270714
1761341761130071000,4.033071044921875,-0.06641279258430004,-0.0005094656257890165,-0.0025560502915177494
1761341761140137200,4.04313720703125,-0.06790975314378737,-0.00811206785030663,0.008943376708449795
1761341761150204200,4.0532041015625,-0.06895838541388512,-0.004037420556228607,-0.0015619886197149753
1761341761160270000,4.06327001953125,-0.07404957107305526,-0.007167517009191215,0.0012229385242331773
1761341761170337300,4.073337158203125,-0.06372925258874892,-0.008824600033834576,0.004600068540824577
1761341761180403000,4.08340283203125,-0.0625368279337883,-0.006265581467095762,0.0007355705658206716
1761341761190469000,4.09346923828125,-0.065678048568964,-0.0037893092803657053,0.0016893550261622293
1761341761200536000,4.1035361328125,-0.06283493409752845,-0.0037810163760557767,0.0017628860532538965
1761341761210602000,4.11360205078125,-0.06582300999760628,-0.006222710439749062,0.008767198157636448
1761341761220668200,4.123668212890625,-0.06612579233646393,-0.012677877928502857,0.005048684524581767
1761341761230735000,4.133735107421875,-0.0763046565234661,-0.005034523568488657,0.0008842080891598015
1761341761240801000,4.143801025390625,-0.06298574074506759,-0.008342771333642304,0.0014747395945247262
1761341761250867200,4.1538671875,-0.06433364822268485,-0.005739895358867943,0.002550255304970778
1761341761260934100,4.16393408203125,-0.06807517283856869,-0.0031858269618824124,-0.0013499898368492722
1761341761271000000,4.174,-0.06882511442303657,-0.007906681471318006,0.0012996661554090679
1761341761281066200,4.184066162109375,-0.06688041009604931,-0.008045998610462993,-0.005847223624284379
1761341761291133200,4.19413330078125,-0.05880114853680134,-0.00843070534542203,0.00040731585898902265
1761341761301199000,4.20419921875,-0.06478782173097133,-0.00535014712261036,-0.0008549180625937879
1761341761311266300,4.214266357421875,-0.06718319243490696,0.0019157522271387277,0.007254779734113253
1761341761321332000,4.22433203125,-0.0659872606486082,-0.005036715525574982,0.002059626810392365
1761341761331398000,4.23439794921875,-0.07347381701171397,-0.001387801096588373,0.0012229476573877036
1761341761341465000,4.244465087890625,-0.06629121203124523,-0.005436546764429658,0.007753650900651701
1761341761351531000,4.254531005859375,-0.07138239769041538,-0.00048184696650132534,0.004183569294959307
1761341761361598000,4.264597900390625,-0.06764262664020061,0.0012057042616419494,0.000937276283535175
1761341761371664100,4.2746640625,-0.07093465392291545,-0.0035725612571462988,0.01274085102896206
1761341761381730000,4.28472998046875,-0.0727320587337017,-0.006535484449658542,0.0071653113523731
1761341761391797000,4.294796875,-0.07048749467730522,-0.006265307472459972,0.0016645585116231813
1761341761401863200,4.30486328125,-0.06465045908689498,-0.0039449382334947585,0.0036760581642389296
1761341761411929000,4.31492919921875,-0.06360474942624568,0.00033191710179671644,0.009377649073023348
1761341761421996000,4.32499609375,-0.06704641431272029,-0.0017612009862437844,0.005672218683827668
1761341761432062200,4.335062255859375,-0.07243453709185123,-0.007257588179130107,0.0009557891877600923
1761341761442128100,4.345128173828125,-0.07108838317990303,-0.0027237076091580093,0.008106597090745344
1761341761452195000,4.355195068359375,-0.07004267351925372,-0.006990900066960602,-0.0037228518814546984
1761341761462261200,4.36526123046875,-0.05807341878414154,-0.008421170332096517,-0.002733256322215311
1761341761472328200,4.375328125,-0.06570669014155864,-0.0009950571856461464,-0.00011192224214319139
1761341761482393900,4.385393798828125,-0.07034662490189075,-0.001706146330758929,-0.0016758562237722799
1761341761492460000,4.3954599609375,-0.0628717589765787,-0.0032601891060359775,-0.0023353110797703263
1761341761502527000,4.40552685546875,-0.06616553982496261,-0.001411638629902154,0.011295803319802507
1761341761512593200,4.41559326171875,-0.060930561780929565,-0.00042027123868465424,0.00061142816292122
1761341761522659000,4.4256591796875,-0.06646890668570996,0.002946520046982914,0.004040018938691355
1761341761532726000,4.43572607421875,-0.07559855408072472,-0.005209880135394632,0.005975128886848688
1761341761542792200,4.445792236328125,-0.07216039632558822,-0.00548745496775955,0.006943202167446725
1761341761552858000,4.455858154296875,-0.05899404076039791,-0.015732918117567895,-0.002173640544922091
1761341761562925000,4.465925048828125,-0.07081424241364002,-0.005991166706196964,-0.0021605618676403537
1761341761572991200,4.4759912109375,-0.06916881329417228,-0.006264741216879337,0.009904901517252438
1761341761583058200,4.48605810546875,-0.06513385868966579,-0.005167374434228986,-0.000628379297722131
1761341761593124000,4.4961240234375,-0.0672293696641922,-0.006621463966369629,-0.0008813631115248427
1761341761603190300,4.506190185546875,-0.06902385186553,-0.00533219134081155,0.0005761330872541293
1761341761613257200,4.51625732421875,-0.07007540674507617,-0.003980922862328588,0.000608112827828154
1761341761623323100,4.5263232421875,-0.06903086612820625,0.0041795324406586586,0.008743611786072141
1761341761633389000,4.53638916015625,-0.07053016477525234,-0.004370780696440488,-0.005097624533111229
1761341761643456000,4.5464560546875,-0.07158055061101913,-0.0015591025428846478,0.000016713672783225775
1761341761653522000,4.55652197265625,-0.06409867042303084,-0.0001851107759401202,-0.00018389606638811526
1761341761663589000,4.566589111328125,-0.06649404112696647,-0.004342230455391108,-0.0018816124955192207
1761341761673655000,4.576655029296875,-0.07337970898747444,0.0054477257455699145,0.01050284914409276
1761341761683721000,4.586720947265625,-0.06813888572454452,0.0003126826783642173,0.004297331867739558
1761341761693788400,4.596788330078125,-0.0670896689325571,0.0005480258041992783,-0.006853934715106151
1761341761703854300,4.606854248046875,-0.06484452035427093,0.0029094211732968688,0.002440013563260436
1761341761713920300,4.616920166015625,-0.0655909548074007,-0.006730385967250913,0.0033773081131046635
1761341761723987500,4.626987548828125,-0.0708282709389925,-0.0023391835372895,0.008458908526599408
1761341761734053400,4.637053466796875,-0.06484510487616062,-0.0013346826698631047,-0.0003089335184311494
1761341761744119000,4.647119140625,-0.06499649604558945,0.002665164088644087,-0.0004600095940288156
1761341761754186200,4.657186279296875,-0.06529810934066772,0.004845138476230203,0.003233885621000081
1761341761764252200,4.667252197265625,-0.05826806457340717,0.003954582844674587,0.009446426293184049
1761341761774319000,4.677319091796875,-0.06784604025781155,-0.003655362436082214,0.0035303706498118117
1761341761784385300,4.68738525390625,-0.06186345871686935,-0.0008198650155216455,0.0030590176778612656
1761341761794451200,4.697451171875,-0.05513210463523865,-0.006830430541932582,0.005431742725148797
1761341761804518100,4.70751806640625,-0.06560615237653256,-0.007572207086253911,-0.0003300722045823932
1761341761814584300,4.717584228515625,-0.0681488225966692,-0.000768061763048172,0.006533443189621902
1761341761824650200,4.727650146484375,-0.06425882942080498,0.001981474407110363,0.002713346045347862
1761341761834717200,4.73771728515625,-0.06096621761620044,-0.008099939021095633,0.001520049174129963
1761341761844783400,4.747783447265625,-0.06979425171613693,-0.0072510123078711325,0.006596603519748896
1761341761854850300,4.757850341796875,-0.06694763011336326,-0.006310808848310262,0.004442028434900567
1761341761864916200,4.767916259765625,-0.06350771879255772,-0.006828969237208366,0.0003157331519760191
1761341761874982400,4.777982421875,-0.06545359216332436,-0.000939838133379817,0.0009709045585012063
1761341761885049300,4.78804931640625,-0.05842471643984318,-0.002560516404081136,-0.0016840349636506287
1761341761895115300,4.798115234375,-0.06755319479107856,-0.0003068557257764041,-0.0019370005111442878
1761341761905181200,4.80818115234375,-0.06291033742129802,-0.00016339213447645305,0.003897792889829725
1761341761915248000,4.818248046875,-0.06650047086775303,-0.004985003604646772,0.011386614275258033
1761341761925314300,4.828314208984375,-0.0647059886664152,-0.004762264232058078,-0.0016799615767318754
1761341761935380200,4.838380126953125,-0.07548340326845646,-0.004006623559165746,0.0028778980904491614
1761341761945447200,4.848447265625,-0.06979892789125441,-0.00288667961852625,0.004666283911140635
1761341761955513300,4.858513427734375,-0.06186521228253841,-0.007360993754677474,0.006079881602688692
1761341761965580300,4.868580322265625,-0.06441314319968224,0.0001346409640274942,-0.004574486574996262
1761341761975646200,4.878646240234375,-0.06815583685934543,0.006041015463601798,-0.0009829374895896762
1761341761985712400,4.88871240234375,-0.07399345697164535,-0.008239804149512201,-0.00008704352921340614
1761341761995779300,4.898779296875,-0.06218085410296917,-0.008340944702737033,0.0015490104071330278
1761341762005845200,4.90884521484375,-0.057547933605313295,0.003997417339403182,-0.000676364891603589
1761341762015911400,4.918911376953125,-0.06278700330257415,-0.00490276868129149,-0.0014330330443801359
1761341762025978400,4.928978271484375,-0.07371113289892674,-0.004889416009373962,-0.0052983119040960446
1761341762036044300,4.939044189453125,-0.06338789180517196,-0.007328260528855025,0.004188012574636377
1761341762046111200,4.949111328125,-0.05740238765478134,-0.00506897382736206,0.001415410622721538
1761341762056177200,4.95917724609375,-0.058600657528638835,-0.004100147061515599,0.004819867037655785
1761341762066243000,4.9692431640625,-0.06593231559097766,-0.0015449096207506953,0.0007292275900021195
1761341762076310300,4.979310302734375,-0.07370879481136798,-0.008450250296108424,0.01430446991675999
1761341762086376200,4.989376220703125,-0.07490238851010798,-0.006175692960247397,0.010869408301007933
1761341762096442000,4.999442138671875,-0.06831716490089892,-0.00531423555901274,0.003251526308967732
1761341762106509300,5.00950927734375,-0.06936696621477603,-0.004804514204896986,-0.0020596770427422596
1761341762116575200,5.0195751953125,-0.06682078886330127,-0.005795351873151958,-0.00253914482248947
1761341762126641200,5.02964111328125,-0.06397767439186573,-0.003527224278077483,0.004744979737116955
1761341762136708400,5.039708251953125,-0.07310381465554237,0.0034832390058785676,0.006742309300485067
1761341762146774300,5.049774169921875,-0.06637187605202198,-0.001070752770360559,0.003064721332862973
1761341762156841200,5.05984130859375,-0.06487491549253463,-0.0060620399853214615,0.006077296919957734
1761341762166907400,5.069907470703125,-0.06218026958107948,-0.007423318401165306,0.0022844576753675936
1761341762176973300,5.079973388671875,-0.059790159574151035,-0.009075378190819173,0.00044584863793570545
1761341762187040300,5.090040283203125,-0.061735448423027986,-0.00037060514437034725,0.005257970760553144
1761341762197106400,5.1001064453125,-0.06876900032162665,-0.010379099466837943,0.004027387785981409
1761341762207172000,5.110172119140625,-0.06353402227759361,-0.0020795462204143403,0.0037919578951783476
1761341762217239000,5.120239013671875,-0.06727379332780838,-0.0029256233894266186,-0.0014580350548960268
1761341762227305200,5.13030517578125,-0.06442892529070376,-0.00361240007719025,0.004719215108198113
1761341762237371100,5.14037109375,-0.06337912397682667,-0.0037375790931284424,0.00837584705275949
1761341762247438000,5.15043798828125,-0.06696984194517135,-0.0006164696642197668,-0.0007097009056247771
1761341762257504300,5.160504150390625,-0.07580079865455627,-0.012376008905097841,-0.0008310485632391646
1761341762267571200,5.1705712890625,-0.0671247402459383,-0.00489803770724684,0.0133961274667643
1761341762277637000,5.18063720703125,-0.0641314036488533,0.0019441198050975798,0.007801650194264948
1761341762287703300,5.190703369140625,-0.07041559848487376,0.0011918036004528402,-0.00014205708550289273
1761341762297770200,5.200770263671875,-0.07475333542823791,-0.0006589753653854131,0.002154511152766645
1761341762307836400,5.21083642578125,-0.06487257740497589,-0.007281900636479258,0.0053429821628844364
1761341762317902300,5.22090234375,-0.06995967141091823,-0.003259878578782081,0.008426175300776958
1761341762327969300,5.23096923828125,-0.07759528085589408,-0.0048710949013940985,0.0018167305657640098
1761341762338035500,5.241035400390625,-0.06457973193824292,-0.004272946345154196,0.004032844845810905
1761341762348101000,5.25110107421875,-0.06682020434141159,-0.002037241448648274,0.006641625404986553
1761341762358168300,5.261168212890625,-0.06083470019102096,-0.004574285645596683,-0.0027428872336633502
1761341762368234200,5.271234130859375,-0.06981237189471722,0.001728997483383864,0.005008900503464974
1761341762378301200,5.28130126953125,-0.07549918535947799,0.004922605892922729,0.0047852067162282765
1761341762388367000,5.2913671875,-0.07161153027117252,-0.0003609240005724132,0.0007096324069658294
1761341762398433300,5.301433349609375,-0.07176292144060134,-0.0009971212785691021,0.004827602819539607
1761341762408500200,5.311500244140625,-0.06368482892513275,0.003268975200690329,0.005254477328946814
1761341762418566100,5.321566162109375,-0.056205286824703216,-0.00021632789811119437,-0.001349802607181482
1761341762428632300,5.33163232421875,-0.061739540076255796,0.0017824081710539758,-0.0010238083560951054
1761341762438699300,5.34169921875,-0.05650047037899494,-0.0027700492352247235,0.003969433353934437
1761341762448765200,5.35176513671875,-0.06323591611385346,0.006140786043647676,0.00188376791998744
1761341762458831400,5.361831298828125,-0.06891805340349674,-0.004096658196486532,0.007725881544314324
1761341762468898300,5.371898193359375,-0.06787175922095776,-0.004467665199656039,0.002866541012795642
1761341762478964200,5.381964111328125,-0.06054068568050861,-0.006974990111775696,0.0033564708210527894
1761341762489031400,5.392031494140625,-0.07071721177995205,0.0007282412093132733,0.009063833883497864
1761341762499097300,5.402097412109375,-0.06712824737727642,-0.0007897621382027864,0.014160919560492037
1761341762509163300,5.412163330078125,-0.06937047334611415,-0.007910919255018235,-0.0011023945842171087
1761341762519230500,5.42223046875,-0.05844575922787189,-0.007220361441280692,0.004258579893084243
1761341762529296100,5.432296142578125,-0.06412965008318423,0.006905779066774993,0.011149193356768228
1761341762539362300,5.4423623046875,-0.07011164710223675,0.007343695560004562,-0.007888300997833721
1761341762549429200,5.45242919921875,-0.0695119276434183,-0.00022235578009858727,0.001492540112696588
1761341762559495200,5.4624951171875,-0.06322597924172878,-0.007468235255125909,0.005794356359308585
1761341762569561300,5.472561279296875,-0.06561842733621596,-0.0029061880365945396,0.00395333616908174
1761341762579628300,5.482628173828125,-0.06636544631123542,-0.005675031695421785,0.00549094839936588
1761341762589694200,5.492694091796875,-0.0766881028831005,-0.006095449064578861,0.004086566060734913
1761341762599761200,5.50276123046875,-0.07429740835428238,-0.0004124167257919907,0.004247058418649249
1761341762609827300,5.512827392578125,-0.06412088225483895,-0.008244699520338326,0.003712453785026446
1761341762619893200,5.522893310546875,-0.07219839024841786,-0.004628865377046168,0.005394908712944016
1761341762629960200,5.532960205078125,-0.07055237660706043,-0.012077318219467998,0.006320823352248407
1761341762640026400,5.5430263671875,-0.07175240004658699,-0.00237421831805259,0.010591915667033753
1761341762650092300,5.55309228515625,-0.060825932362675666,-0.006107011638209223,0.005618584233871661
1761341762660159200,5.5631591796875,-0.061572366815805434,-0.001252539078053087,0.0007785603241762146
1761341762670225200,5.57322509765625,-0.06531739856302737,0.0010020714483223855,-0.008096176161430775
1761341762680291000,5.583291015625,-0.06741641666889191,0.0040202502257190645,-0.00222934822095558
1761341762690358000,5.59335791015625,-0.067712769266963,0.002100424611661583,0.0009082282855641097
1761341762700424000,5.603423828125,-0.07100128941833972,-0.00525556417433545,0.002006371386349201
1761341762710491000,5.613490966796875,-0.07414251005351542,-0.0029236506280489265,0.009333800798142328
1761341762720557000,5.62355712890625,-0.06890460940003394,0.0026103103625588118,0.004594483616831712
1761341762730623000,5.633623046875,-0.06546177546977996,-0.0008905008326284587,0.00721003641008865
1761341762740690000,5.64368994140625,-0.07160042435526848,-0.007783858809247613,0.0023986495064105837
1761341762750756000,5.653756103515625,-0.06995674880146979,-0.004856006930116564,0.006729746646434069
1761341762760822000,5.663822021484375,-0.061278936827182766,-0.0030022505559027194,0.007441023021214641
1761341762770889000,5.673888916015625,-0.07145780101418495,-0.0013895911948755384,-0.0008720929596805944
1761341762780955100,5.683955078125,-0.06936170551776885,-0.008333692978043108,0.006230660850764252
1761341762791020800,5.694020751953125,-0.06561842733621596,-0.004383786308486014,0.0011551339850295334
1761341762801087700,5.704087646484375,-0.07130465627908707,-0.005737520738691091,-0.004712543338816612
1761341762811154000,5.71415380859375,-0.0690635993540287,0.0032191995085217055,-0.002564717655163258
1761341762821219800,5.7242197265625,-0.06876549319028855,-0.0006688209059648216,-0.0048028428376186635
1761341762831286800,5.734286865234375,-0.06457213315367698,0.001718567420914769,-0.000959844308369793
1761341762841353000,5.74435302734375,-0.06891396175026893,-0.0007343969554640353,0.0023481979608070106
1761341762851420000,5.754419921875,-0.06951017407774925,-0.004111746167764068,0.0019609522088896484
1761341762861486000,5.764486083984375,-0.07579553795754909,-0.012300276787765324,0.005736018334771506
1761341762871552000,5.774552001953125,-0.0659264703720808,-0.004509641177859157,0.009065678780712186
1761341762881619000,5.784618896484375,-0.0602449176043272,-0.005198956882581114,0.0017250930598238482
1761341762891685000,5.79468505859375,-0.06518295852839946,-0.004263648793846369,0.00217609736348968
1761341762901751000,5.8047509765625,-0.07236848611831664,0.002435611382778734,0.0015579517654143273
1761341762911818000,5.81481787109375,-0.06758125184178351,-0.0033380949141457675,0.0058152849829057225
1761341762921884200,5.82488427734375,-0.07281856797337531,-0.0004487301481887698,0.001578263901080936
1761341762931949800,5.83494970703125,-0.06354279010593891,-0.0038497707633301614,0.008250805034139193
1761341762942017000,5.84501708984375,-0.07761106294691562,-0.004955667912308126,0.004099398142844438
1761341762952083000,5.8550830078125,-0.07372165429294109,0.0013139504090882838,0.003906140593066811
1761341762962150000,5.86514990234375,-0.07088087790906429,-0.002909896097332239,0.0035026012934744354
1761341762972215800,5.8752158203125,-0.06459668307304382,-0.004203187310881913,0.007589094288973137
1761341762982282000,5.885281982421875,-0.0689373426258564,-0.00041817061314359307,0.0028160346682649102
1761341762992349000,5.895348876953125,-0.07103343812227249,0.007710683975182473,-0.00017816501192282884
1761341763002414800,5.905414794921875,-0.06744213563203812,0.0017393544806167483,0.0035745659845648333
1761341763012481000,5.91548095703125,-0.07238485273122787,-0.005143555167224258,0.009536182369291782
1761341763022548000,5.9255478515625,-0.07268295889496802,-0.00326837241249159,0.00048260501832701264
1761341763032614000,5.93561376953125,-0.06834580647349357,0.005203523459844291,0.0007645500651327893
1761341763042680000,5.94568017578125,-0.06850012025237083,-0.0012915376478806137,0.003310722850030288
1761341763052747000,5.9557470703125,-0.07463350844085216,0.003733743168227374,0.0032203594191465524
1761341763062813000,5.96581298828125,-0.06610241146087646,-0.0002212050026282668,0.0002467367361066863
1761341763072880000,5.975880126953125,-0.07028700366914271,-0.005499528998043388,0.0038077445527771488
1761341763082946000,5.985946044921875,-0.06729366707205772,-0.008509615800529717,0.0006813470273977145
1761341763093012000,5.996011962890625,-0.07028992627859115,0.004938260119780898,0.0047824622032931075
1761341763103079200,6.0060791015625,-0.06490531063079834,0.008280921611189842,-0.005047762075974606
1761341763113144800,6.016144775390625,-0.07059329313933849,-0.004034899805579334,0.0040006322097964585
1761341763123211000,6.0262109375,-0.06341127268075943,-0.0010244842095300554,0.005169365461915731
1761341763133278000,6.03627783203125,-0.06475625754892826,0.0015755787536501883,0.0007901137646520509
1761341763143343900,6.04634375,-0.07193827800750732,-0.002045443021412939,-0.0037354054023511704
1761341763153410000,6.05641015625,-0.0702969405412674,-0.0019845431470312176,-0.0000219424037495628
1761341763163477000,6.06647705078125,-0.0679044924467802,-0.0038765674387104807,-0.004395933404006063
1761341763173543000,6.07654296875,-0.07373802090585231,0.0029142069462686775,0.00014267357343342155
1761341763183609000,6.086609130859375,-0.06580664338469505,-0.0021906601783819495,0.0046388798809843135
1761341763193676000,6.096676025390625,-0.06954582991302014,-0.0037448490841314195,-0.00040202776251826436
1761341763203742000,6.106741943359375,-0.06355974124073982,-0.0069066193169914185,-0.0009959796342533082
1761341763213809000,6.116808837890625,-0.07568038714528083,0.002665675545297563,0.011421242630644701
1761341763223875000,6.126875,-0.07028992627859115,0.005078837634250521,0.0043026701965602114
1761341763233941000,6.13694091796875,-0.07403320446014404,0.002334836155734956,-0.0034229008205002172
1761341763244008200,6.14700830078125,-0.07179039396941661,0.009421506481058895,0.007894506976334377
1761341763254073900,6.157073974609375,-0.06730009681284427,0.0002935030538588762,0.0003760941702406853
1761341763264139800,6.167139892578125,-0.07089724452197552,-0.0015550839548930525,0.0009747998489066957
1761341763274207000,6.17720703125,-0.06835457430183887,-0.0012154219380579889,0.0011383426804328336
1761341763284273000,6.18727294921875,-0.061467737397551535,-0.005739091641269624,-0.000696010306989774
1761341763294338800,6.1973388671875,-0.06490940228402614,-0.004270224665105343,0.009574518785416148
1761341763304406000,6.207406005859375,-0.06699965256154537,0.0003192037506960332,-0.00013958656720351427
1761341763314472000,6.217471923828125,-0.055925885361433024,-0.005517722241859883,-0.0002617516421480104
1761341763324539000,6.227538818359375,-0.07163608019053935,-0.0013891345371492207,0.007952653204626403
1761341763334605000,6.23760498046875,-0.079119129422307,0.005228128178138286,-0.0006463305129436775
1761341763344671000,6.2476708984375,-0.0756774645358324,-0.004659388379473239,0.003185635165637359
1761341763354738000,6.257738037109375,-0.06131342361867428,-0.005510013859439641,-0.0034719001945341
1761341763364804000,6.26780419921875,-0.06655132427215575,0.0021289017874747515,0.000035075879958458244
1761341763374870000,6.2778701171875,-0.07104571308195591,0.0008457118428312242,0.0024589191931299863
1761341763384937000,6.28793701171875,-0.07000058794319629,-0.002612100460845977,0.0020989861398236823
1761341763395003100,6.298003173828125,-0.06401566831469535,-0.006019863077718764,-0.002165895629883744
1761341763405068800,6.30806884765625,-0.0655126288741827,0.00031768764704465867,0.00864258539727889
1761341763415135700,6.3181357421875,-0.060573418906331056,0.0014990977176465093,0.0032332919659558684
1761341763425202000,6.328201904296875,-0.0740390496790409,0.0003710983347147703,-0.0121621423921315
1761341763435267800,6.338267822265625,-0.07149287232756614,-0.006459039946272969,-0.005692818513861857
1761341763445334800,6.348334716796875,-0.07403612706959248,-0.0018171872234903274,-0.0018887591889360919
1761341763455401000,6.35840087890625,-0.06355974124073982,-0.0011416260494850575,0.0014745751977432518
1761341763465468000,6.368468017578125,-0.07089198382496834,-0.00531416249377653,0.002518951417831704
1761341763475534000,6.3785341796875,-0.06879588832855224,-0.0018025193773210048,-0.0026145983786089342
1761341763485600000,6.38860009765625,-0.05906710599660873,-0.0020723858272656795,0.00549498982024379
1761341763495667000,6.3986669921875,-0.0674473963290453,-0.010141473052371293,0.006334084692620672
1761341763505733000,6.408733154296875,-0.0656523296058178,0.0036219168242067096,0.0008769380981568246
1761341763515799000,6.418799072265625,-0.06819499982595444,0.0004271211045794189,0.005455018569459207
1761341763525866000,6.428865966796875,-0.07208440847992896,-0.0024532018383964893,-0.0027956540339393538
1761341763535932200,6.43893212890625,-0.07088555408418178,-0.0016026494236662983,0.006238880689837969
1761341763545997800,6.448997802734375,-0.07447802561819553,-0.00011478548608720302,-0.0042536616893718016
1761341763556065000,6.45906494140625,-0.07522504459321498,-0.00869048879276961,0.008861488844966516
1761341763566131000,6.469130859375,-0.06684300069510936,0.004833192310109734,0.006330942887463607
1761341763576198000,6.479197998046875,-0.061902037161588666,-0.005310984156001359,0.0005779962507775053
1761341763586263800,6.489263916015625,-0.06549333965182304,0.002450936816073954,0.0038274173676269125
1761341763596330000,6.499330078125,-0.06593874533176422,-0.00008824453903362155,0.005724606458190828
1761341763606397000,6.50939697265625,-0.06743570589125156,-0.0006564728810451925,0.006397491617919877
1761341763616462800,6.519462890625,-0.06593874533176422,-0.0020233042548410594,0.0021597809829283503
1761341763626529000,6.529529052734375,-0.06594108341932296,-0.0012248290872201324,0.0012807924915803595
1761341763636596000,6.539595947265625,-0.0641442631304264,-0.0030581637279130515,0.009243350602290593
1761341763646662000,6.549661865234375,-0.06204582954645157,0.0010028386333025992,0.004870510379504412
1761341763656728000,6.55972802734375,-0.06967500925064087,-0.0029931722003035247,-0.002036620394140482
1761341763666795000,6.569794921875,-0.06892565218806267,0.0014296857432462274,0.004057691592699848
1761341763676861000,6.57986083984375,-0.0660831222385168,0.000567534222267568,0.0009046891881851479
1761341763686927000,6.589927001953125,-0.07341594934463501,-0.0037605581099167465,-0.0014204475574428215
1761341763696994600,6.59999462890625,-0.07191840426325798,0.001991356480307877,-0.0027114965815562752
1761341763707060500,6.610060546875,-0.07461246565282344,0.0024600882369093593,0.008071247216151095
1761341763717127700,6.620127685546875,-0.0671329235523939,-0.008536394209600985,-0.0029625669994857162
1761341763727193600,6.630193603515625,-0.07327040339410304,-0.006636387540865689,-0.007280288634705357
1761341763737259300,6.64025927734375,-0.06788403418064116,0.001198142009694129,0.005931915366207249
1761341763747326700,6.65032666015625,-0.06773673466444015,-0.0048459421938285225,0.011034371338062919
1761341763757392400,6.660392333984375,-0.06265314778983593,0.0007224325230345129,0.003297214914485812
1761341763767458600,6.67045849609375,-0.07297638888359069,0.003177077399846166,0.007428802860458381
1761341763777525500,6.680525390625,-0.07357961547374725,-0.0003790259128436446,-0.0019312374906381592
1761341763787591400,6.69059130859375,-0.06295651465058326,-0.007505699454993009,0.004522550891782157
1761341763797657600,6.70065771484375,-0.06385726288259029,-0.0024762356541119515,0.004393640982219949
1761341763807724500,6.710724609375,-0.06490121897757054,0.0012685951637104152,0.008607824611151591
1761341763817790500,6.72079052734375,-0.07208031682670116,0.004609685752540826,0.0014228769765468312
1761341763827856600,6.730856689453125,-0.06444646094739437,-0.001191511339507997,0.01161036286142189
1761341763837923600,6.740923583984375,-0.06175123051404953,-0.00138575526997447,0.01658200466099661
1761341763847989500,6.750989501953125,-0.07656769137382508,0.0006431750080548226,0.003694808530481532
1761341763858056400,6.761056396484375,-0.06893675810396671,0.0018822883489541709,-0.0004333818820072338
1761341763868122600,6.77112255859375,-0.057870005166530604,0.00036322555551305413,0.00985253200919833
1761341763878188500,6.7811884765625,-0.062058104506134984,-0.0030398608862422403,0.006499152760952711
1761341763888255500,6.79125537109375,-0.06490121897757054,-0.008887783196847885,0.005695750256464817
1761341763898321400,6.8013212890625,-0.0683446374297142,-0.0011782317328266798,0.00817795442705974
1761341763908387300,6.81138720703125,-0.06744447371959686,0.003934288975317031,-0.0008836783661972731
1761341763918454500,6.82145458984375,-0.056369537475705146,-0.00720664344318211,0.0011559925015550106
1761341763928520400,6.8315205078125,-0.0695341394752264,-0.00018531170533969996,0.0031862470869906245
1761341763938586400,6.84158642578125,-0.06967676281630993,-0.0001660224829800427,-0.0024252452523913235
1761341763948653600,6.851653564453125,-0.05875321774184703,-0.0019527597692795098,0.001810369323636405
1761341763958719500,6.861719482421875,-0.06444236929416657,-0.0010566329134628176,-0.0011223596600117161
1761341763968785400,6.871785400390625,-0.06937924117445946,-0.0006847308611497283,0.000750877732806839
1761341763978852600,6.8818525390625,-0.07191957330703735,-0.0011333331451751291,0.0073031854531029235
1761341763988918500,6.89191845703125,-0.06398527317643166,-0.01128046875335276,0.009246707036579028
1761341763998985500,6.9019853515625,-0.07131576219499111,-0.0022401984085328877,0.009692647006059997
1761341764009051600,6.9120517578125,-0.06592763941586018,-0.00277306317621842,0.001458998602698557
1761341764019117600,6.92211767578125,-0.06966799498796462,-0.007392978061828761,-0.00257804749419447
1761341764029184500,6.9321845703125,-0.06113631348609924,-0.006724102356936782,0.0034671189881395545
1761341764039250700,6.942250732421875,-0.06802139682471751,-0.007829250587243586,0.006058866214123554
1761341764049316400,6.95231640625,-0.07191197452247142,-0.008414813656546175,-0.0014675974676851182
1761341764059383300,6.96238330078125,-0.07909574854671955,-0.0075849569699727,0.00040388179288711396
1761341764069449500,6.972449462890625,-0.06982113972306252,-0.005377984977606684,0.008742511240951717
1761341764079515400,6.982515380859375,-0.06713000094294548,-0.005275565782748163,-0.004580062365834601
1761341764089582300,6.992582275390625,-0.06727788498103618,-0.003845934838429093,0.0008876330221071839
1761341764099648500,7.0026484375,-0.07475976516902447,-0.007726940990239382,0.0042171656038844955
1761341764109714400,7.01271435546875,-0.06787643539607524,-0.003384564404375851,0.002265574878384359
1761341764119781400,7.022781494140625,-0.06757832923233509,-0.00646377092031762,0.003200261912611313
1761341764129847600,7.03284765625,-0.06892565218806267,-0.002852174560725689,0.0022815396324964237
1761341764139914500,7.04291455078125,-0.07296995914280414,-0.0001651091675274074,0.00917987517833244
1761341764149980700,7.052980712890625,-0.06907821240127086,-0.005727894393820316,0.013896523870108647
1761341764160046600,7.063046630859375,-0.05740531026422977,-0.004156206363998353,0.004735472123255022
1761341764170113500,7.073113525390625,-0.06563362490534783,-0.0056112822768278415,0.005801640050043352
1761341764180179700,7.0831796875,-0.07805179245173931,0.0031463900006376204,0.0011510651646880433
1761341764190245400,7.093245361328125,-0.07251286302506924,-0.007282594756223261,0.007848010086640714
1761341764200312600,7.1033125,-0.07042144370377064,-0.0015744097098708153,0.008122831272915937
1761341764210378500,7.11337841796875,-0.06877835267186165,0.003805456697568297,0.003532695037638768
1761341764220444400,7.1234443359375,-0.07820610623061656,-0.0033493286942131817,0.004013258795929141
1761341764230511400,7.133511474609375,-0.07176993570327758,0.007357870215829462,0.006467880839854478
1761341764240577500,7.14357763671875,-0.06593582272231578,0.0008763444431126117,0.005737324375868775
1761341764250643500,7.1536435546875,-0.07102700838148593,-0.000831190127134323,0.002871258287108503
1761341764260710400,7.16371044921875,-0.06698211690485477,-0.00890645136469975,-0.0004047677088761702
1761341764270776600,7.173776611328125,-0.0678781889617443,-0.005690466726571321,0.004862381871975958
1761341764280843500,7.183843505859375,-0.07177168926894664,0.00029680925579741595,0.0010736982126953079
1761341764290909400,7.193909423828125,-0.06010229426324367,-0.006638360302243382,-0.0005774939272785559
1761341764300975600,7.2039755859375,-0.06623626697361469,-0.0010151501256041228,0.005368440831126645
1761341764311042600,7.21404248046875,-0.07281915249526501,-0.0067174899530597024,0.008779231088724918
1761341764321108500,7.2241083984375,-0.0677303049236536,-0.006043682344723493,0.005565506906341761
1761341764331174700,7.234174560546875,-0.06504091970920563,-0.0030464367575012146,0.00006501892707310617
1761341764341241600,7.24424169921875,-0.07057692652642726,-0.003976794676482677,-0.0005424226138973609
1761341764351307500,7.2543076171875,-0.061297641527652734,-0.007169708966277539,-0.004563755118427798
1761341764361373400,7.26437353515625,-0.0743137749671936,-0.0009968107513152063,0.0032385115637676787
1761341764371440400,7.2744404296875,-0.0671329235523939,0.0023471111154183743,0.005997984606050886
1761341764381506600,7.284506591796875,-0.06548515634536743,-0.006069419574178755,-0.0018456141669536009
1761341764391572500,7.294572509765625,-0.06398819578588008,-0.004609356958977878,0.0020911453266628083
1761341764401639400,7.304639404296875,-0.06353636036515235,-0.00816357884183526,0.006928835715376771
1761341764411705600,7.31470556640625,-0.07520926250219345,0.0029777189028449354,0.007873240426019765
1761341764421771500,7.324771484375,-0.06952069547176361,0.0029944143093191085,0.00864674098258838
1761341764431838500,7.33483837890625,-0.07161269931495189,0.0016787103345617652,0.0010069302865304052
1761341764441904600,7.344904541015625,-0.05889233395159244,0.0002938318474218249,-0.0018884851943003012
1761341764451971600,7.3549716796875,-0.061139820617437356,-0.00008955971328541636,0.001762096035387367
1761341764462037500,7.36503759765625,-0.07325579034686087,-0.003831687117367983,-0.0006461021840805187
1761341764472103700,7.375103759765625,-0.07025777757465838,-0.004661817798577249,-0.0009445006087655201
1761341764482170600,7.385170654296875,-0.06472060171365737,-0.0015445442945696412,0.0032513619121862574
1761341764492236500,7.395236572265625,-0.06397416726052761,0.0007694317362271248,0.00024867753144353625
1761341764502302500,7.405302490234375,-0.0684627108514309,-0.0011900500347837805,0.004757674821908585
1761341764512369400,7.415369384765625,-0.06666764412820339,-0.008482636462058872,-0.003853487957222387
1761341764522435300,7.425435302734375,-0.06068798519670963,-0.004503120105527341,0.0031135197774972766
1761341764532501500,7.43550146484375,-0.06787234374284744,-0.007118654632475227,0.004690144277340732
1761341764542568400,7.445568359375,-0.066079030585289,-0.008049396143946796,0.0008271076070610434
1761341764552634400,7.45563427734375,-0.06533142708837986,-0.004872921532299369,0.002659981023450382
1761341764562700500,7.465700439453125,-0.06218903740942478,-0.005920366492308676,0.00044377997843548654
1761341764572767500,7.475767578125,-0.06353109966814517,-0.00281147722415626,0.00105734073293861
1761341764582833400,7.48583349609375,-0.057842532637715334,0.00022383535113185642,0.005374295183178037
1761341764592900600,7.495900634765625,-0.06443009433448314,-0.002175535674486309,0.006839659594581462
1761341764602966500,7.505966552734375,-0.06982113972306252,0.002018536748178303,-0.005700791757763363
1761341764613032700,7.51603271484375,-0.0639876112639904,0.002293755226675421,0.0056774108821759
1761341764623099600,7.526099609375,-0.06398994935154914,-0.003582406797725707,0.002869696517684497
1761341764633165600,7.53616552734375,-0.06727788498103618,0.0028523024248890577,-0.0003211217131465673
1761341764643231500,7.5462314453125,-0.06847440128922462,-0.003847250012680888,0.0015272689327830448
1761341764653298700,7.556298583984375,-0.0657820934653282,0.004401431563030928,0.00035366770930122583
1761341764663364400,7.5663642578125,-0.06683306382298469,-0.002164612421672791,0.004297523663984611
1761341764673430500,7.576430419921875,-0.07222118660211563,-0.006923625250719487,-0.006085466526681557
1761341764683497500,7.58649755859375,-0.06444003120660781,-0.0022727307049557567,0.0005138449733844027
1761341764693563000,7.59656298828125,-0.05710954218804836,0.005106127499975264,0.004344107318646274
1761341764703629000,7.606629150390625,-0.06264554900527,-0.002703779065981507,0.0008945376869291066
1761341764713696000,7.616696044921875,-0.06727905402481556,0.0024851496129296717,-0.0026256494955858214
1761341764723762000,7.626761962890625,-0.06159282508194446,-0.0015617694240063428,0.0005446100044064223
1761341764733828000,7.636828125,-0.06293605638444423,-0.002757865607086569,0.0029270892607280983
1761341764743895000,7.64689501953125,-0.07101648698747158,-0.005395137041807174,0.004178395362920128
1761341764753961000,7.6569609375,-0.06174070912003517,-0.00007021569199860095,0.0037692346067167816
1761341764764028200,7.667028076171875,-0.06099369014501571,-0.00781496633356437,0.004466811249707825
1761341764774094000,7.677093994140625,-0.0713204383701086,-0.001760652996972203,0.004168056631996296
1761341764784160300,7.68716015625,-0.06369067414402961,0.0026753749554045496,0.008096737850434146
1761341764794227200,7.697227294921875,-0.06309212372899055,-0.00042255452731624244,0.0051766308863414445
1761341764804293000,7.707293212890625,-0.07266776132583617,-0.0034690826163627205,0.011979136808309703
1761341764814359300,7.717359375,-0.07266834584772586,-0.003004113719426095,0.006418347176280804
1761341764824426200,7.72742626953125,-0.06922901904881,0.0005320793163962661,0.008661888319370337
1761341764834492200,7.7374921875,-0.06159516316950321,-0.0018068119599483907,-0.0005784483419265597
1761341764844558000,7.74755810546875,-0.06189210028946399,0.0016924100663512943,-0.0031337086155777795
1761341764854625000,7.757625,-0.061142743226885794,-0.005857420791313052,0.0024988356449874116
1761341764864691000,7.76769091796875,-0.06892506766617297,-0.0022018939584493636,0.0004410080660367384
1761341764874757000,7.777757080078125,-0.05994038169980049,-0.007403937847260385,0.00039708672591950745
1761341764884824000,7.787823974609375,-0.05813888523578643,-0.00284698692895472,0.011955778765608556
1761341764894890000,7.797889892578125,-0.06682078886330127,-0.0012467121254652739,0.001990940921776928
1761341764904957200,7.807957275390625,-0.05874211182594299,-0.0026841427837498485,0.00702406255104579
1761341764915023000,7.818023193359375,-0.07460720495581627,-0.007920289871562273,-0.00017375826486386357
1761341764925089000,7.828089111328125,-0.07116554006934166,-0.008372033960744738,-0.0034030864417552947
1761341764935156200,7.83815625,-0.06443535503149032,-0.0049256015676073725,0.009027018137602136
1761341764945222100,7.84822216796875,-0.06787643539607524,-0.003285542743001133,0.002000836694706231
1761341764955288000,7.8582880859375,-0.06263853474259376,0.0012973463341593742,0.004500110731110908
1761341764965355300,7.868355224609375,-0.0698176325917244,-0.005753065367694944,0.007125700861192308
1761341764975421200,7.878421142578125,-0.06502630666196346,-0.007065846733003854,-0.00031706659253686665
1761341764985487000,7.888487060546875,-0.07101239533424376,-0.005520023796800524,0.009675440142932347
1761341764995554300,7.89855419921875,-0.06592471680641174,0.000021937837172299624,0.011451066946750505
1761341765005620000,7.908619873046875,-0.06876900032162665,0.002168466612882912,0.007598117845645174
1761341765015686100,7.91868603515625,-0.07206044308245181,-0.003096997900959104,0.004965960977459326
1761341765025753000,7.928753173828125,-0.060683893543481825,-0.0032509463536553084,0.006618034466844983
1761341765035819000,7.938819091796875,-0.06232581553161144,-0.0028169205842539665,-0.0027919231403153387
1761341765045885200,7.94888525390625,-0.06785948426127433,-0.0024992512035183607,-0.0034038627598900347
1761341765055952100,7.9589521484375,-0.06756254714131354,-0.004191971797123551,0.0003191672180779278
1761341765066018000,7.96901806640625,-0.06965747359395026,-0.002067563521675765,0.004315374414506368
1761341765076084200,7.979084228515625,-0.062028878411650654,-0.008143248439859599,-0.0018764111640164627
1761341765086151200,7.989151123046875,-0.06532032117247581,-0.006940685983374714,0.000965538830216974
1761341765096217000,7.999217041015625,-0.06652034461200237,-0.008467749420180916,0.011259868923318572
1761341765106284000,8.009283935546875,-0.06308043329119682,-0.007810253625828772,0.00815386116541922
1761341765116350200,8.01935009765625,-0.06607376988828181,-0.0006112637661397456,-0.0011669933861820027
1761341765126416100,8.029416015625,-0.06398235056698322,-0.0021169738876633346,0.006441454057232477
1761341765136483000,8.039483154296875,-0.06682663408219813,0.0033204679259099066,0.004667019130080006
1761341765146549000,8.049549072265625,-0.07012099945247173,0.0004035027669742703,0.001267316522076726
1761341765156615000,8.059614990234374,-0.060844637063145635,0.0034550723573192953,0.006057025883486494
1761341765166682000,8.06968212890625,-0.05815525184869766,0.0026722696828655897,-0.0013410347788361831
1761341765176748000,8.079748046875,-0.06863222219944,0.002450187897402793,0.0007627873663092031
1761341765186814000,8.08981396484375,-0.06279518660902976,-0.0008741342197172344,0.011022219675965606
1761341765196881200,8.099881103515624,-0.06279577113091946,-0.0006865209594368935,0.0007063399047590791
1761341765206947000,8.109947021484375,-0.060251347345113754,-0.00010128668369725345,-0.0040088748817564916
1761341765217013200,8.12001318359375,-0.06773088944554329,-0.0009251337545923889,-0.003751899879425764
1761341765227080200,8.130080078125,-0.06264730257093906,-0.008713540874794125,0.004952197313588112
1761341765237146000,8.14014599609375,-0.058007367810606954,-0.005316244853008538,0.005981334865349345
1761341765247212300,8.15021240234375,-0.06503858162164687,0.001328837450966239,-0.0016847199502401052
1761341765257279200,8.160279296875,-0.0690805504888296,0.0005054287714883685,-0.0036262413728749376
1761341765267345200,8.17034521484375,-0.06519347992241382,0.00511575384484604,-0.007592656219238415
1761341765277412000,8.180412109375,-0.06803834795951842,0.0020371866497211157,0.0026436144105391577
1761341765287478300,8.190478271484375,-0.0686363138526678,0.006066314301639795,0.003182612091489136
1761341765297544000,8.2005439453125,-0.0668412471294403,0.008170081647858023,0.0026844396112719548
1761341765307611000,8.21061083984375,-0.06549684678316116,0.00034821064947173,-0.0011028375422116369
1761341765317677000,8.220677001953124,-0.061008887714147565,-0.0012859116246923803,0.005253093656036071
1761341765327743000,8.230742919921875,-0.06684416973888874,-0.0012665310707874594,0.005503337523480877
1761341765337810000,8.240809814453126,-0.06445172164440155,-0.00642387730134651,0.003044843022036366
1761341765347876000,8.2508759765625,-0.06924538566172123,-0.005005498403403908,0.0005844670907594263
1761341765357942000,8.26094189453125,-0.06535714605152607,-0.00510819159289822,0.0010128303043544292
1761341765368009200,8.27100927734375,-0.06370820980072021,-0.0003220898275263607,0.000009703976684249937
1761341765378075100,8.2810751953125,-0.06849778216481209,-0.0016331906924024224,-0.0004715950005454942
1761341765388141000,8.29114111328125,-0.07358721425831317,-0.001845280806813389,-0.0015500698530580847
1761341765398208300,8.301208251953126,-0.06640402475595474,-0.0002516001408919692,-0.0031294616987230252
1761341765408274200,8.311274169921875,-0.06969488299489021,-0.002421509792190045,0.0038419071172829714
1761341765418340000,8.321340087890626,-0.07179214753508567,-0.003196585817914456,-0.005263532851659693
1761341765428407300,8.3314072265625,-0.06536065318286419,-0.0019027283487841485,-0.0015914430430624632
1761341765438473000,8.341472900390626,-0.07090016713142394,0.0015008330170065164,0.0022786809551296754
1761341765448540000,8.351539794921875,-0.06491057132780552,0.0004522190132178366,0.011580049921548924
1761341765458606000,8.361606201171876,-0.06086918698251247,0.005926047314424068,0.0008127639878774062
1761341765468673000,8.371673095703125,-0.07314239310026169,0.0012934008114039897,-0.0031477097414666787
1761341765478739000,8.381739013671876,-0.06610825667977333,-0.0011388313041999936,0.0008053798324428498
1761341765488806000,8.391805908203125,-0.06820376765429974,0.002005330206733197,0.00502377384561114
1761341765498872000,8.4018720703125,-0.0641658904403448,-0.006913122123014181,0.005035966606903821
1761341765508938000,8.41193798828125,-0.06670797613859177,-0.0031064233164303004,0.010219342327862977
1761341765519005200,8.422005126953126,-0.07089666000008582,0.0018163287069648502,0.007362158231879584
1761341765529071000,8.432071044921875,-0.060875616723299025,-0.0037058139816857874,-0.001837439993652515
1761341765539137000,8.442136962890626,-0.06895780089199542,-0.003775901809521019,0.0012911266559269279
1761341765549204200,8.452204345703125,-0.06880816328823566,0.005073759600333869,0.003572081766533665
1761341765559270100,8.462270263671876,-0.05264964016973972,0.00019245383217930792,0.0010386771316640078
1761341765569336000,8.472336181640625,-0.06881283946335315,0.004011409332137555,0.007882446645782328
1761341765579403300,8.4824033203125,-0.07719488336145877,-0.0018946363738737999,0.0012025715896394104
1761341765589469200,8.49246923828125,-0.07330430566370487,-0.002916545033827424,0.0020531240043696014
1761341765599535000,8.50253515625,-0.07061199783980845,0.0023777802483178675,0.00386999613402877
1761341765609602000,8.51260205078125,-0.07106266421675682,-0.002183755513560027,0.0035612955110380425
1761341765619668000,8.52266796875,-0.06762275289595127,0.0021970351202413438,0.008508264093659818
1761341765629734100,8.532734130859374,-0.06911971345543862,0.0026704065193422135,0.002076477480493486
1761341765639801000,8.542801025390625,-0.0667284344047308,0.00008957797959446906,0.0027932931134942917
1761341765649867000,8.552866943359374,-0.06209142225384712,-0.0010253427260555326,0.0036461059839697552
1761341765659933200,8.56293310546875,-0.06239478911459446,0.00032378859426826235,-0.0014911610063631086
1761341765670000000,8.573000244140625,-0.07018880399167537,-0.005417038346361368,0.0063256319581065324
1761341765680066000,8.583066162109375,-0.07946282829344273,0.005237663191463798,-0.006295793942268937
1761341765690133500,8.593133544921875,-0.05312719455361366,0.00033953415267169474,-0.003848177027865313
1761341765700199700,8.60319970703125,-0.07991057206094264,0.0026723610144108534,-0.00019392427005805073
1761341765710265600,8.613265625,-0.06045709905028343,-0.005868161381036043,0.008509181975689716
1761341765720332500,8.62333251953125,-0.06853285347819328,-0.0013668679064139722,0.01277017758814618
1761341765730398700,8.633398681640625,-0.07436638193726539,-0.006202270439919084,0.0022238728948170317
1761341765740464600,8.643464599609375,-0.06075111356079578,-0.0007824556145817041,0.0031257901706034314
1761341765750531600,8.653531494140625,-0.06374328111410141,0.0009483319670893251,-0.0023063772462308405
1761341765760597800,8.66359765625,-0.07556465181112289,-0.003823668207693845,-0.00520993493432179
1761341765770663400,8.673663330078124,-0.06569090805053711,-0.0019184008419513702,0.0018925585812190546
1761341765780730400,8.68373046875,-0.07526479208171367,-0.005930595625378191,0.0060506418084725734
1761341765790796500,8.693796630859374,-0.06045183835327625,-0.0009637121993117034,0.005964991085324436
1761341765800862500,8.703862548828125,-0.06643909606933593,0.0018231420402415096,0.0003224825531709939
1761341765810929700,8.7139296875,-0.07167875028848647,0.003119794254656881,-0.0020213908589677885
1761341765820995600,8.72399560546875,-0.07676818238198757,-0.003395779918134212,-0.00008442688044160604
1761341765831062500,8.7340625,-0.060756958779692644,-0.002507562374137342,-0.0028792315310100093
1761341765841128700,8.744128662109375,-0.06524608689248561,0.0014894713727757335,-0.002678439128748141
1761341765851194600,8.754194580078124,-0.06763678142130375,0.00209216823996976,-0.0023770815619966012
1761341765861261600,8.764261474609375,-0.0694336017102003,0.00019009747831150888,0.004740668888180516
1761341765871327700,8.77432763671875,-0.07123217556476592,-0.003288264423049986,0.00176064843039494
1761341765881393700,8.7843935546875,-0.06120587159097194,-0.0001654196947813034,-0.0003563665564637631
1761341765891460600,8.794460693359374,-0.0630032764017582,0.010281246849242597,0.0005645157146966085
1761341765901526800,8.80452685546875,-0.06435410648882389,0.0070368581005372105,0.004069797589024529
1761341765911592400,8.814592529296876,-0.058521747073531145,0.0016366064921952783,0.006876119147450663
1761341765921659600,8.82465966796875,-0.06510813972651958,-0.0021982224303297698,0.008966268960270099
1761341765931725600,8.8347255859375,-0.0715431412100792,0.00037606677077710624,-0.002271917854202911
1761341765941791500,8.84479150390625,-0.06690788262486458,0.007254811700154095,0.005039455471932888
1761341765951858400,8.8548583984375,-0.06601181056797505,0.004140241609886288,0.006996727019548415
1761341765961924600,8.864924560546875,-0.06631167029738426,0.007440707927383482,0.008829107245593331
1761341765971990500,8.874990478515626,-0.06990121922194957,-0.0015025865826755762,0.0022478154594078657
1761341765982057500,8.885057373046875,-0.0681049834549427,0.0007227430502884089,0.0021631100177532062
1761341765992123600,8.89512353515625,-0.06616027912795543,0.004913856330886483,-0.005102350940578617
1761341766002189600,8.905189453125,-0.058381461820006364,0.0013865224549546838,-0.005967639700137079
1761341766012256500,8.915256591796876,-0.07274842534661292,-0.0034705804537050423,0.002522970005823299
1761341766022322700,8.92532275390625,-0.06497019256055354,-0.004557571972813457,0.0056516827858751634
1761341766032389600,8.9353896484375,-0.0725970341771841,-0.00006727481624111533,0.0022300240743905303
1761341766042455600,8.94545556640625,-0.07589023050367832,-0.0016447167334146797,-0.0006619025414111092
1761341766052521700,8.955521728515626,-0.07065116080641747,0.002500493312533945,-0.0009891571678221226
1761341766062588700,8.965588623046875,-0.07199673019647598,-0.0026434637134894728,-0.0020731804117094725
1761341766072654600,8.975654541015626,-0.05807984852492809,0.00391072543663904,0.004069112602435052
1761341766082720500,8.985720458984375,-0.06436170527338982,0.0029180428711697457,0.005058909091074019
1761341766092787500,8.995787353515626,-0.06779986302852631,0.008481668347679078,-0.0031920238072285427
1761341766102853600,9.005853515625,-0.0627110154569149,0.00006857172418385743,0.0002713871201733127
1761341766112919600,9.01591943359375,-0.07856909432411194,-0.0014193835449405013,0.0011788345210254191
1761341766122986500,9.025986572265625,-0.06525310115516185,0.0016598595036193728,0.007219799752277322
1761341766133052700,9.036052734375,-0.0682487758398056,-0.001936594085767865,-0.0018311700830701738
1761341766143118600,9.04611865234375,-0.06451017383337021,0.003824654588382691,0.0026139453580603
1761341766153185500,9.056185546875,-0.06480944904088974,0.005158752736356109,-0.0031665057734819126
1761341766163251700,9.066251708984375,-0.06496200925409794,-0.005673351194988936,0.007967622444895095
1761341766173317600,9.076317626953125,-0.06645780076980591,-0.006568528202734888,0.008658326389105058
1761341766183384600,9.086384521484375,-0.07094692888259888,-0.002260528810508549,0.0031456684814300385
1761341766193450800,9.09645068359375,-0.07094692888259888,0.0018070128893479705,0.00935551030645147
1761341766203516400,9.106516357421874,-0.06915127763748169,0.00539847977636382,-0.003343305378803052
1761341766213583600,9.11658349609375,-0.06735504187047481,0.0020636545315384862,0.0023140901952283456
1761341766223649500,9.1266494140625,-0.07080138293206692,0.005083842602930963,0.0015717291290173307
1761341766233715500,9.136715576171875,-0.07319324650466441,0.0012110380238853395,0.0037234683693852274
1761341766243782400,9.146782470703124,-0.06256839211583137,-0.004243190527707338,-0.006168441235553473
1761341766253848600,9.1568486328125,-0.06960252853631974,0.0029974647829309102,-0.0010651267471723258
1761341766263915500,9.16691552734375,-0.0739431880891323,-0.004100384523533285,-0.005117859036964364
1761341766273981700,9.176981689453125,-0.06586334200799465,0.004436174082849175,-0.0036898948933463543
1761341766284047600,9.187047607421874,-0.06616320173740387,0.0006092362058348953,0.00031878362558782097
1761341766294114600,9.197114501953125,-0.07200374445915221,-0.000528553918749094,-0.00196866059130989
1761341766304180700,9.2071806640625,-0.07634323496818542,0.0032650296779349443,0.004888511827075854
1761341766314246700,9.21724658203125,-0.06466974830925465,-0.0012978212581947444,-0.0019480744610074906
1761341766324313600,9.227313720703124,-0.06930325332880019,-0.0036168753229081627,0.0032450098032131788
1761341766334379800,9.2373798828125,-0.06765899325311184,-0.005354658900946378,-0.003372641071141697
1761341766344445700,9.24744580078125,-0.06301905849277972,0.00043762423228472467,-0.010243440156080759
1761341766354512600,9.2575126953125,-0.06615911008417606,0.001809150047507137,-0.0014483219450572506
1761341766364578600,9.26757861328125,-0.07244096683263779,-0.004868172291945666,-0.0030447790899546814
1761341766374644500,9.27764453125,-0.06630465603470802,-0.00340487654004246,0.0033033843603683635
1761341766384711400,9.28771142578125,-0.07259411156773567,0.0032398769703693687,0.007836602776637301
1761341766394777600,9.297777587890625,-0.06436521240472794,0.0019625139783136544,0.001800382219161838
1761341766404843500,9.307843505859376,-0.05808277113437652,-0.0012473514462821185,-0.0007793183760019019
1761341766414910500,9.317910400390625,-0.07289514034092426,0.0022716347264125944,-0.0011168341015232726
1761341766424976600,9.3279765625,-0.064366965970397,0.0011214965769089757,-0.0027232555180089547
1761341766435042600,9.33804248046875,-0.0591296498388052,0.0022770050212740896,0.0029673664721893145
1761341766445109500,9.348109619140626,-0.07109773553013801,0.004671188415121287,-0.0017838283765828236
1761341766455175700,9.35817578125,-0.06645780076980591,-0.0022750139935873446,0.004532195502961986
1761341766465241600,9.36824169921875,-0.07199614567458629,0.0035918139468878504,0.007656761830858886
1761341766475308500,9.37830859375,-0.0667582450211048,-0.001535301542188972,-0.005488592045498081
1761341766485374700,9.388374755859376,-0.061223407247662544,0.009176902336534112,-0.009405034836870618
1761341766495440400,9.3984404296875,-0.06271627615392207,0.0010975311794318258,0.006621486799255945
1761341766505507600,9.408507568359376,-0.05537877287268638,-0.0020980865241028365,-0.0010405996606918052
1761341766515573500,9.418573486328125,-0.05956453412473201,-0.007993702167645096,0.003206965648033656
1761341766525640400,9.428640380859376,-0.0698871906965971,-0.0010731639231555162,0.0016308480382664129
1761341766535706600,9.43870654296875,-0.05985913315713405,0.005418189123831689,0.0014887818196089937
1761341766545772500,9.4487724609375,-0.06045593000650405,0.0008566168293356895,-0.0038377378322416913
1761341766555839500,9.458839599609375,-0.057610477447509766,0.0021275318142957985,-0.00006263517374172806
1761341766565905700,9.46890576171875,-0.062242228901386254,-0.0020519823600538075,0.008686196210142225
1761341766575971600,9.4789716796875,-0.0694254184037447,0.0038565658302977678,0.0017044932297896594
1761341766586038500,9.48903857421875,-0.06598258447349072,-0.001571560165658593,-0.0036286525256698948
1761341766596104700,9.499104736328125,-0.07406418412029743,-0.0008907565609551966,0.0004960398886352778
1761341766606170600,9.509170654296875,-0.0686760613411665,0.00636770840100944,0.004583437066432088
1761341766616237600,9.519237548828125,-0.07062193471193313,-0.000849876561295241,0.0014109947425080462
1761341766626303700,9.5293037109375,-0.06403904919028282,-0.0005248093253932893,0.005918261300190352
1761341766636369700,9.53936962890625,-0.06389058063030242,-0.0000656125821173191,-0.0051496058820979665
1761341766646436600,9.5494365234375,-0.08080313698649406,-0.0012704948598518968,-0.00011231496778782457
1761341766656502500,9.55950244140625,-0.06898410437703133,-0.001907240127120167,0.006640575092216022
1761341766666568400,9.569568359375,-0.05880524019002914,-0.0030848690717481075,0.0023952017405768854
1761341766676635400,9.579635498046875,-0.06254384219646454,-0.0030322803679853675,0.0014025283082621171
1761341766686701600,9.58970166015625,-0.07765607113242148,0.001722914802469313,0.008763745825225487
1761341766696766700,9.5997666015625,-0.07346388013958931,0.002384082124941051,0.004491110007325187
1761341766706833700,9.609833740234375,-0.06747603790163993,-0.0041496852916665375,0.0024126460657222194
1761341766716899600,9.619899658203124,-0.06747545337975025,0.0018251330679282544,0.005403265549335628
1761341766726965800,9.6299658203125,-0.06552490383386611,0.0007068330951035022,0.0009526017168303951
1761341766737032700,9.64003271484375,-0.06507365293502808,0.00015075184861198067,0.0004830205768579617
1761341766747098600,9.6500986328125,-0.06896247706711292,-0.00099292002748698,0.00042607992496341467
1761341766757164500,9.66016455078125,-0.06357260072231292,-0.01067382636340335,0.001423251435882412
1761341766767231700,9.670231689453125,-0.06432429587244987,0.0037135588967241347,-0.0075240616621682415
1761341766777297400,9.68029736328125,-0.06866144829392433,-0.000253846896905452,0.0027710767151089386
1761341766787364600,9.690364501953125,-0.07210194413661956,-0.009551982726622372,0.0015354111400432884
1761341766797430500,9.700430419921876,-0.07165069323778152,0.0007949680362828076,-0.00235005199117586
1761341766807496400,9.710496337890625,-0.07029986315071582,0.0004271576371975243,0.0048581440882757305
1761341766817563600,9.720563720703124,-0.059224926906824106,-0.0019054317625239491,0.004674882776127196
1761341766827629600,9.730629638671875,-0.07164543254077434,-0.007560151322279125,0.005703043080354109
1761341766837695500,9.740695556640626,-0.07194587679207325,-0.004543726110551506,0.002971622522198595
1761341766847762700,9.7507626953125,-0.06715747347176075,0.0013104067451320588,0.005285744683467783
1761341766857828600,9.76082861328125,-0.06850479642748833,-0.006127451638039201,0.0023320779430679975
1761341766867894500,9.77089453125,-0.0713467418551445,-0.000671213792450726,0.002549935644562356
1761341766877961700,9.780961669921876,-0.06640519379973411,-0.00602726093288511,-0.0030050772672286256
1761341766888027600,9.791027587890625,-0.07508651290535927,0.0012944054584018885,-0.004367570392624475
1761341766898093800,9.80109375,-0.07208791561126708,-0.0022673786764033136,0.004227266872790642
1761341766908160800,9.811160888671875,-0.06101356388926506,-0.008581712922360747,-0.00045218704717699435
1761341766918226400,9.821226318359376,-0.0681926617383957,-0.011280286090262234,0.00567526915743947
1761341766928292600,9.831292724609375,-0.07133271332979202,-0.0025577581914141773,-0.0008178420217940584
1761341766938359600,9.841359619140626,-0.06758943514823913,0.0012514613658189773,0.003593992204242386
1761341766948425500,9.851425537109375,-0.06444762999117375,-0.0014220686923712492,0.006462843905133195
1761341766958491600,9.86149169921875,-0.05711246479749679,-0.0015139482269063591,0.006850267753563821
1761341766968558600,9.87155859375,-0.06609072102308274,-0.006893997297435998,-0.0032743728950154036
1761341766978624500,9.88162451171875,-0.07102817742526531,0.0014703282808884977,0.001354647745657712
1761341766988690700,9.891690673828125,-0.06698796212375163,0.0005418883243575692,0.004297067006258294
1761341766998757600,9.901757568359375,-0.07237608490288257,0.0017760880281217394,0.001841216553049162
1761341767008823600,9.911823486328124,-0.07985387343764305,-0.00016238748747855424,-0.0009458431824808939
1761341767018889700,9.9218896484375,-0.07298632575571537,-0.00209905463848263,0.007071207894710823
1761341767028956700,9.931956787109375,-0.10217851797044276,-0.00026553733469918367,-0.011835919812181964
1761341767039022600,9.942022705078125,-0.02780979794561863,-0.013437591988313942,0.016805725847696885
1761341767049088500,9.952088623046874,-0.08303250347375869,0.0021100874891504646,-0.00015409458316862582
1761341767059155700,9.96215576171875,-0.07166705985069274,-0.004210347704030573,-0.0014987643575062974
1761341767069221400,9.972221435546874,-0.05146306073367595,0.007330215023923664,0.004044023826951161
1761341767079288600,9.98228857421875,-0.06148293496668338,0.004607585126999766,0.006478068873728625
1761341767089354500,9.9923544921875,-0.07359715113043784,-0.0011218071041628717,0.0000879842441296205
1761341767099420700,10.002420654296875,-0.05593406866788864,-0.004822579584550112,0.00602773585692048
1761341767109487600,10.012487548828124,-0.05712298619151115,-0.008725286111515015,0.006916624687775038
1761341767119553500,10.022553466796875,-0.06265490135550499,-0.010800850276555866,0.001788627849286422
1761341767129619700,10.03261962890625,-0.08539981712698937,0.000019124825578182933,-0.007598072179872542
