time,seconds_elapsed,z,y,x
1761341757113587000,0.0165869140625,-0.001569319050759077,0.0016215099021792412,0.00018849316984415054
1761341757123654000,0.02665380859375,0.0027495294343680143,-0.0006251325830817223,0.0019941162317991257
1761341757133719800,0.0367197265625,-0.0002725343219935894,-0.0005428409203886986,0.0016250023618340492
1761341757143787000,0.046787109375,-0.0004192744381725788,0.0004811445251107216,0.0019107591360807419
1761341757153853000,0.05685302734375,0.00014276150614023209,0.001008237712085247,-0.0027626166120171547
1761341757163918800,0.0669189453125,-0.0003336779773235321,-0.0008977875113487244,0.002570096869021654
1761341757173986000,0.076986083984375,-0.001750126015394926,-0.0010715853422880173,-0.001263605896383524
1761341757184052000,0.087052001953125,-0.0008497112430632114,-0.0011088699102401733,-0.0003022048622369766
1761341757194119000,0.097118896484375,-0.0009404513984918594,0.0007750457152724266,-0.002290210220962763
1761341757204185000,0.10718505859375,-0.0005979686975479126,-0.00014587491750717163,-0.0012329351156949997
1761341757214251000,0.1172509765625,0.00045222556218504906,-0.0018030498176813126,-0.0021812068298459053
1761341757224318000,0.12731787109375,-0.0036857943050563335,0.0013133818283677101,-0.00009914766997098923
1761341757234384100,0.137384033203125,0.0011553787626326084,-0.0007985588163137436,-0.0006834021769464016
1761341757244450000,0.147449951171875,-0.00037753675132989883,-0.0011037569493055344,0.005782753229141235
1761341757254517000,0.15751708984375,-0.002880613785237074,-0.0008313143625855446,-0.0004128068685531616
1761341757264583200,0.167583251953125,-0.0007668626494705677,0.0002485979348421097,0.00045165466144680977
1761341757274650000,0.177650146484375,0.00037145568057894707,0.00042430218309164047,0.0010190578177571297
1761341757284715800,0.1877158203125,0.00022977543994784355,-0.0010931668803095818,-0.00028056511655449867
1761341757294782000,0.197781982421875,-0.00036623934283852577,-0.0002098381519317627,0.00012713763862848282
1761341757304849000,0.207848876953125,0.0012585553340613842,0.000863947905600071,0.0016451398842036724
1761341757314914800,0.217914794921875,0.0006125359795987606,-0.0013621365651488304,-0.0011946684680879116
1761341757324982000,0.22798193359375,-0.0008580619469285011,0.0007076729089021683,0.0005172109231352806
1761341757335048000,0.2380478515625,0.0008062398992478848,-0.0010101282969117165,0.0016562556847929955
1761341757345114000,0.248114013671875,0.002125037368386984,0.001671409234404564,-0.0011283457279205322
1761341757355181000,0.25818115234375,0.0019089928828179836,0.0024355314671993256,-0.0014583216980099678
1761341757365247000,0.2682470703125,-0.0014907983131706715,-0.0028588324785232544,0.0004588877782225609
1761341757375313200,0.278313232421875,-0.000383046455681324,0.0008932948112487793,-0.000055901240557432175
1761341757385380000,0.288380126953125,-0.00018384214490652084,0.002785203978419304,-0.001657526008784771
1761341757395446000,0.298446044921875,-0.00007960153743624687,-0.0016092779114842415,-0.00010037561878561974
1761341757405513000,0.308512939453125,-0.0010311491787433624,0.0014698691666126251,-0.0010444666258990765
1761341757415579100,0.3185791015625,0.0012442921288311481,-0.001040428876876831,-0.0006820280104875565
1761341757425645000,0.32864501953125,0.0019657425582408905,0.000758802518248558,-0.0009286366403102875
1761341757435712000,0.3387119140625,-0.0007071658037602901,-0.00019221287220716476,-0.0007342258468270302
1761341757445778000,0.34877783203125,-0.00019317585974931717,0.000265585258603096,0.0007725907489657402
1761341757455845000,0.35884521484375,-0.00005256105214357376,0.0026560863479971886,0.0007653241045773029
1761341757465910800,0.368910888671875,-0.0006429841741919518,-0.002994874492287636,-0.0009098039008677006
1761341757475977000,0.37897705078125,-0.0006686737760901451,-0.00002570822834968567,0.0009635142050683498
1761341757486044000,0.3890439453125,-0.0015592346899211407,-0.0037418827414512634,-0.0016530412249267101
1761341757496110000,0.399110107421875,-0.00001942133530974388,0.0007015476003289223,0.0007287045009434223
1761341757506176000,0.409176025390625,-0.0006932010874152184,0.00032471027225255966,0.0001380154862999916
1761341757516243000,0.419242919921875,0.0023213771637529135,0.0012784888967871666,0.0006571565754711628
1761341757526309000,0.42930908203125,-0.002378568984568119,0.001184212975203991,0.0016217534430325031
1761341757536376000,0.4393759765625,0.0009038420394062996,0.0017954129725694656,0.002633238211274147
1761341757546442000,0.44944189453125,-0.001912450883537531,-0.00040861964225769043,0.0009280163794755936
1761341757556508200,0.459508056640625,0.00004845624789595604,0.0008338484913110733,0.0001859399490058422
1761341757566575000,0.4695751953125,0.000589876901358366,0.001944120042026043,0.001532167661935091
1761341757576641000,0.47964111328125,0.0020856820046901703,0.002765086479485035,0.0014819181524217129
1761341757586708000,0.4897080078125,-0.00032607652246952057,0.0013248492032289505,-0.00016524642705917358
1761341757596774100,0.499774169921875,-0.0013689235784113407,-0.0011818129569292068,-0.00012496020644903183
1761341757606839800,0.50983984375,0.00024148961529135704,-0.00011814665049314499,-0.003914372064173222
1761341757616907000,0.519906982421875,-0.00016763340681791306,-0.002075650729238987,0.0009113876149058342
1761341757626973000,0.529972900390625,-0.0016728518530726433,-0.0008697714656591415,0.000055714044719934464
1761341757637038800,0.540038818359375,-0.0025781719014048576,-0.0008181063458323479,-0.00035227276384830475
1761341757647106000,0.55010595703125,0.0005047032609581947,0.00003623589873313904,-0.0031107747927308083
1761341757657172000,0.560171875,0.0012042666785418987,0.001386098563671112,-0.0010950327850878239
1761341757667239000,0.570239013671875,0.0008210381492972374,0.0000771544873714447,0.0008400203660130501
1761341757677305000,0.58030517578125,0.0011048889718949795,0.0003358842805027962,-0.0005484824068844318
1761341757687371000,0.59037109375,-0.0023249960504472256,-0.0017541637644171715,-0.0030521200969815254
1761341757697438000,0.60043798828125,-0.0011542784050107002,0.0010132314637303352,-0.0008988757617771626
1761341757707504000,0.610504150390625,0.0024508428759872913,0.0005338620394468307,0.0018495060503482819
1761341757717571000,0.620571044921875,0.0002084909938275814,-0.003909357823431492,-0.0004159887321293354
1761341757727637000,0.630636962890625,0.0011738864704966545,-0.001201721839606762,-0.001641042996197939
1761341757737703000,0.640702880859375,-0.002306528389453888,-0.000056313350796699524,0.0021198224276304245
1761341757747770000,0.65077001953125,0.00020003924146294594,-0.0009066611528396606,0.0025784187018871307
1761341757757835800,0.660835693359375,0.00022380566224455833,-0.0006858790293335915,-0.00021578650921583176
1761341757767902000,0.67090185546875,0.0011505857110023499,-0.0010637817904353142,0.000411920715123415
1761341757777969000,0.680968994140625,0.0006411182694137096,0.0011607436463236809,0.0010517463088035583
1761341757788034800,0.691034912109375,-0.002293152268975973,0.00002117641270160675,0.00013455329462885857
1761341757798102000,0.70110205078125,0.0007697525434195995,-0.0012740883976221085,0.000021911226212978363
1761341757808168000,0.71116796875,0.00015802448615431786,-0.0009952550753951073,0.0020080972462892532
1761341757818233900,0.72123388671875,-0.0038589853793382645,0.0004026498645544052,0.0019026566296815872
1761341757828301000,0.731301025390625,0.0009448248893022537,-0.0011736750602722168,0.0026922840625047684
1761341757838367000,0.741366943359375,-0.0007202746346592903,0.0011991746723651886,-0.0003561624325811863
1761341757848434000,0.751433837890625,-0.000531456433236599,-0.002386505715548992,0.0004949835129082203
1761341757858500000,0.7615,0.001401493325829506,-0.0007591899484395981,-0.0007213870994746685
1761341757868566000,0.77156591796875,0.0008475556969642639,0.0007739914581179619,-0.001365073025226593
1761341757878633000,0.781633056640625,-0.00057555316016078,0.0005194619297981262,0.0004962887614965439
1761341757888699100,0.79169921875,-0.00016489392146468163,-0.0008544633165001869,0.0008092103525996208
1761341757898764800,0.801764892578125,-0.002936366479843855,-0.0008778609335422516,0.0029362766072154045
1761341757908832000,0.81183203125,0.0011827447451651096,-0.0003372393548488617,0.00023050466552376747
1761341757918898000,0.82189794921875,-0.0026440657675266266,-0.0001744600012898445,0.0017474601045250893
1761341757928964900,0.83196484375,-0.0008544214069843292,0.0011017266660928726,0.00041561294347047806
1761341757939030800,0.84203076171875,0.0007486925460398197,-0.00011025834828615189,0.0003797244280576706
1761341757949097000,0.852096923828125,0.0008517568930983543,0.0012761829420924187,-0.0017771697603166103
1761341757959164000,0.862163818359375,0.003031347878277302,0.00042523350566625595,0.0010091150179505348
1761341757969229800,0.872229736328125,-0.001519727986305952,0.0002883467823266983,-0.0012497780844569206
1761341757979296000,0.8822958984375,-0.0008995705284178257,-0.0015667146071791649,0.00013323593884706497
1761341757989363000,0.892363037109375,0.00032361969351768494,0.0010146880522370338,0.0013894489966332912
1761341757999428900,0.902428955078125,-0.003354707732796669,-0.0008893394842743874,-0.0004884148947894573
1761341758009496000,0.91249609375,-0.0017650667577981949,0.0009927162900567055,0.001272733323276043
1761341758019562000,0.92256201171875,-0.000008155591785907745,0.0012031104415655136,0.000013821758329868317
1761341758029628200,0.932628173828125,0.000875481404364109,-0.0000879904255270958,0.004112159833312035
1761341758039695000,0.942695068359375,0.0009628706611692905,-0.00048172473907470703,0.000031940173357725143
1761341758049761000,0.952760986328125,-0.00013861246407032013,-0.0009030364453792572,-0.00018617277964949608
1761341758059828000,0.962827880859375,0.001054561696946621,-0.0010977517813444138,0.00009080162271857262
1761341758069894100,0.97289404296875,-0.00005411216989159584,0.00163278728723526,0.0001294175162911415
1761341758079959800,0.982959716796875,0.00017138570547103882,0.0008766036480665207,0.0004894435405731201
1761341758090026800,0.99302685546875,0.0006616739556193352,0.0004931092262268066,0.0001400364562869072
1761341758100093000,1.003093017578125,-0.001110512763261795,-0.0005671130493283272,-0.00005247537046670914
1761341758110158800,1.013158935546875,0.002144669182598591,-0.0007783016189932823,0.001409599557518959
1761341758120225800,1.023225830078125,0.0005811275914311409,-0.00025019608438014984,-0.00024023838341236115
1761341758130292000,1.0332919921875,-0.0014998666010797024,-0.0008014710620045662,0.003213615156710148
1761341758140359000,1.04335888671875,0.0019160453230142593,-0.0006536571308970451,0.0009729582816362381
1761341758150424800,1.0534248046875,-0.0005050343461334705,-0.0013285018503665924,-0.00029204320162534714
1761341758160491000,1.063490966796875,0.0013291998766362667,0.0009263399988412857,0.0005977400578558445
1761341758170558000,1.073557861328125,-0.00006869295611977577,-0.00007074791938066483,0.00014846492558717728
1761341758180624100,1.0836240234375,0.00038312049582600594,-0.0011862702667713165,-0.001725638285279274
1761341758190690000,1.09368994140625,0.0010361275635659695,-0.0023503378033638,-0.00009338697418570518
1761341758200757000,1.103757080078125,0.001356690190732479,0.0015559997409582138,-0.000543590635061264
1761341758210823200,1.1138232421875,0.002252311445772648,-0.0003042183816432953,-0.0011681020259857178
1761341758220890000,1.12389013671875,0.0016303695738315582,0.0015417439863085747,0.0020399903878569603
1761341758230956000,1.1339560546875,-0.001277003437280655,0.0011670375242829323,0.0023784777149558067
1761341758241022000,1.14402197265625,0.0008143321610987186,0.0003513135015964508,0.0015599103644490242
1761341758251089000,1.1540888671875,-0.00024320883676409721,0.0009475946426391602,0.0018499288707971573
1761341758261154800,1.16415478515625,-0.0007636989466845989,-0.0012369286268949509,-0.0003245910629630089
1761341758271221800,1.1742216796875,0.00033778464421629906,0.0008035851642489433,0.00369917880743742
1761341758281288000,1.184287841796875,0.0011461498215794563,-0.001552332192659378,0.0005487846210598946
1761341758291353900,1.194353759765625,-0.002694128081202507,0.0006546294316649437,0.0017943447455763817
1761341758301420800,1.2044208984375,0.00097309285774827,0.002170049585402012,-0.001546654850244522
1761341758311487000,1.214487060546875,-0.003745762165635824,-0.00023851357400417328,-0.0021306858398020267
1761341758321553000,1.224552978515625,-0.0015321345999836922,-0.0009146258234977722,-0.003012539353221655
1761341758331620000,1.2346201171875,0.00009505683556199074,0.00010003801435232162,-0.001133945770561695
1761341758341686000,1.24468603515625,0.0003815772943198681,-0.000696045346558094,-0.00025371694937348366
1761341758351753000,1.2547529296875,0.001709961798042059,-0.0009748777374625206,0.0018435223028063774
1761341758361819100,1.264819091796875,0.0000294586643576622,-0.0020893439650535583,0.0034672580659389496
1761341758371885000,1.274885009765625,0.002404199680313468,-0.0013050427660346031,-0.0011165747418999672
1761341758381952000,1.284951904296875,0.0002385503612458706,-0.00085464958101511,0.0009150817058980465
1761341758392018200,1.29501806640625,-0.0019316598773002625,0.0003166086971759796,-0.0016980119980871677
1761341758402083800,1.305083740234375,-0.0006754333153367043,-0.00021385494619607925,0.00003498326987028122
1761341758412150800,1.31515087890625,-0.0006059249863028526,0.003323354758322239,-0.002025770489126444
1761341758422217000,1.325217041015625,-0.0006476873531937599,0.000328797847032547,0.00012333225458860397
1761341758432284000,1.335283935546875,0.001542496494948864,-0.0019021322950720787,-0.002463662065565586
1761341758442349800,1.345349853515625,0.0007686140015721321,-0.002221057191491127,0.001616581343114376
1761341758452416000,1.355416015625,-0.0028383713215589523,-0.002311338670551777,0.0023513473570346832
1761341758462483000,1.36548291015625,-0.002245924901217222,0.0008193962275981903,-0.000884717795997858
1761341758472548900,1.375548828125,-0.0013425801880657673,-0.00010072533041238785,-0.0011196085251867771
1761341758482615000,1.385614990234375,-0.0011992650106549263,0.0008586924523115158,0.0008817268535494804
1761341758492682000,1.395681884765625,-0.0017207120545208454,0.003127971664071083,-0.0007241596467792988
1761341758502748000,1.405747802734375,-0.0004947199486196041,0.0000933697447180748,-0.00012686289846897125
1761341758512815000,1.415815185546875,0.0004144832491874695,0.00041854195296764374,0.00045770080760121346
1761341758522881000,1.425881103515625,0.00028606271371245384,-0.0019887257367372513,0.0001760479062795639
1761341758532947000,1.435947021484375,0.00046129850670695305,0.000944480299949646,-0.000921973492950201
1761341758543014100,1.44601416015625,0.00008418690413236618,-0.001203620806336403,0.00119501119479537
1761341758553080000,1.456080078125,-0.0005437866784632206,-0.00010160543024539948,-0.002498793415725231
1761341758563146000,1.46614599609375,-0.0008625322952866554,-0.00017065741121768951,-0.0018245643004775047
1761341758573213000,1.476212890625,-0.00037623895332217216,-0.0007379110902547836,0.0005839988589286804
1761341758583278800,1.48627880859375,0.0005988194607198238,-0.0009741634130477905,0.00007840199396014214
1761341758593345800,1.496345703125,-0.0025610211305320263,0.0010660849511623383,-0.0006142859347164631
1761341758603412000,1.506411865234375,-0.001983996946364641,-0.00006549153476953506,0.0006464263424277306
1761341758613478000,1.516477783203125,-0.0007821125909686089,0.0015393290668725967,0.0018131565302610397
1761341758623544800,1.526544921875,0.002431996166706085,0.0007943930104374886,0.0007625538855791092
1761341758633611000,1.536611083984375,0.0009126625955104828,-0.001127343624830246,-0.002134699374437332
1761341758643677000,1.546677001953125,-0.0006966846995055676,-0.001244441606104374,-0.0001430818811058998
1761341758653743900,1.556743896484375,-0.0004588644951581955,-0.0017850631847977638,0.002025530207902193
1761341758663810000,1.56681005859375,0.0009408919140696526,0.0003198077902197838,0.00022091902792453766
1761341758673877000,1.576876953125,0.00004553701728582382,-0.001285811886191368,0.000677651260048151
1761341758683943700,1.586943603515625,-0.0005525825545191765,-0.0009640948846936226,0.0007585161365568638
1761341758694009600,1.597009521484375,-0.0016601914539933205,0.002293749712407589,0.0002016494981944561
1761341758704076500,1.60707666015625,0.0023242123425006866,0.0003594951704144478,-0.0019346647895872593
1761341758714142500,1.617142578125,-0.00010352535173296928,-0.0005579637363553047,-0.0008156043477356434
1761341758724209700,1.627209716796875,0.0005981861613690853,0.00033303163945674896,-0.0025946437381207943
1761341758734275600,1.637275634765625,-0.0016950620338320732,0.0012752581387758255,0.0031316853128373623
1761341758744341500,1.647341552734375,0.002037427853792906,0.0026914896443486214,-0.0010541491210460663
1761341758754408700,1.65740869140625,0.0011311541311442852,-0.00023452658206224442,-0.0007984857074916363
1761341758764474600,1.667474609375,0.0011712340638041496,-0.0010559242218732834,-0.0005504889413714409
1761341758774540500,1.67754052734375,-0.0005773976445198059,-0.0012455414980649948,0.002435713540762663
1761341758784607700,1.687607666015625,0.0005952003411948681,0.001654299907386303,-0.0023235087282955647
1761341758794673700,1.697673583984375,0.000029278453439474106,0.0011901110410690308,-0.0015858132392168045
1761341758804740600,1.70774072265625,-0.0005850116722285748,-0.001735115423798561,-0.0011232760734856129
1761341758814806800,1.717806884765625,-0.0017536063678562641,-0.0010850382968783379,-0.004027453251183033
1761341758824872700,1.727872802734375,-0.0006292187608778477,0.002889375202357769,0.0026390841230750084
1761341758834939600,1.737939697265625,0.002487744903191924,-0.0009394511580467224,0.0005232030525803566
1761341758845005800,1.748005859375,-0.0005900105461478233,-0.0011598393321037292,0.0004991376772522926
1761341758855071500,1.758071533203125,-0.002561016008257866,0.0025595305487513542,-0.0015837205573916435
1761341758865138400,1.768138427734375,0.00048047397285699844,-0.0012101447209715843,-0.0020743682980537415
1761341758875204600,1.77820458984375,0.0014290916733443737,0.0013108039274811745,0.0014047850854694843
1761341758885270500,1.7882705078125,0.0007052682340145111,-0.00012289546430110931,-0.0004540816880762577
1761341758895337500,1.79833740234375,0.00031964248046278954,0.0027764886617660522,-0.0008295876905322075
1761341758905403600,1.808403564453125,0.00020178686827421188,0.00009390246123075485,0.00027155037969350815
1761341758915470600,1.818470703125,-0.0015684161335229874,-0.0010203635320067406,0.0005431929603219032
1761341758925536500,1.82853662109375,-0.002487756311893463,-0.0010779593139886856,-0.0004951762966811657
1761341758935602700,1.838602783203125,0.0009597055613994598,-0.0021655941382050514,-0.00028265640139579773
1761341758945669600,1.848669677734375,0.00037094857543706894,-0.00022263918071985245,0.000026631634682416916
1761341758955735800,1.85873583984375,-0.002411788795143366,0.002078598365187645,0.003904193639755249
1761341758965802800,1.868802734375,-0.0005949316546320915,-0.00019489694386720657,-0.00014485139399766922
1761341758975868700,1.87886865234375,-0.0006220960058271885,0.0017566671594977379,-0.0000244765542447567
1761341758985934800,1.888934814453125,0.0012049353681504726,0.0002490459010004997,0.00039058877155184746
1761341758996001800,1.899001708984375,0.0013713832013309002,0.0012051202356815338,-0.00082780746743083
1761341759006067500,1.9090673828125,0.0003425274044275284,0.00013210903853178024,0.0025674444623291492
1761341759016133600,1.919133544921875,-0.0006761318072676659,-0.002377387136220932,0.003552814479917288
1761341759026200600,1.92920068359375,-0.0027748295105993748,0.001574743539094925,-0.002562940586358309
1761341759036266500,1.9392666015625,0.0014952830970287323,-0.0025246599689126015,-0.00030005257576704025
1761341759046332700,1.949332763671875,0.0006711245514452457,-0.0018302127718925476,0.0017511500045657158
1761341759056399600,1.959399658203125,-0.0008585951291024685,0.0018476126715540886,0.002534918487071991
1761341759066465500,1.969465576171875,-0.000575436744838953,-0.0005204817280173302,-0.004152615088969469
1761341759076532500,1.979532470703125,-0.000578632578253746,0.00038259662687778473,-0.0005192644894123077
1761341759086598700,1.9895986328125,0.0013132947497069836,0.0008576828986406326,-0.0013617747463285923
1761341759096664600,1.99966455078125,-0.00018846150487661362,0.0038651907816529274,-0.0004821326583623886
1761341759106731800,2.009731689453125,0.0013203597627580166,-0.0004395879805088043,-0.00010232487693428993
1761341759116797700,2.019797607421875,-0.0012746243737637997,-0.000348508358001709,-0.00031537748873233795
1761341759126863600,2.029863525390625,-0.0012963651679456234,-0.0009141266345977783,0.000313436146825552
1761341759136930800,2.039930908203125,-0.0007251170463860035,-0.001784181222319603,0.0019664601422846317
1761341759146996700,2.049996826171875,-0.00033580465242266655,-0.0013145441189408302,0.0014684456400573254
1761341759157063700,2.060063720703125,-0.0002599046565592289,0.0011605983600020409,0.0006924006156623363
1761341759167129600,2.070129638671875,0.0015348377637565136,0.00005097780376672745,0.003574694972485304
1761341759177195500,2.080195556640625,0.0000738273374736309,0.00016442779451608658,0.000325904693454504
1761341759187262500,2.090262451171875,0.00018972577527165413,0.00021145585924386978,0.0012788940221071243
1761341759197328600,2.10032861328125,0.0012259618379175663,0.000002398155629634857,-0.0014812066219747066
1761341759207394600,2.11039453125,-0.0008050044998526573,0.0015498297289013863,0.0005274079740047455
1761341759217461500,2.12046142578125,0.0025851994287222624,-0.00011597760021686554,0.002685100771486759
1761341759227527700,2.130527587890625,0.0007203719578683376,0.002688904292881489,0.00011021643877029419
1761341759237594600,2.1405947265625,-0.00005753757432103157,0.003786127083003521,-0.00039924634620547295
1761341759247660500,2.15066064453125,0.0014939499087631702,0.0004969853907823563,-0.0005748765543103218
1761341759257726700,2.160726806640625,0.0003213598392903805,0.00043866224586963654,0.0011596404947340488
1761341759267793700,2.170793701171875,-0.003195278812199831,-0.000932757742702961,0.0020246864296495914
1761341759277859600,2.180859619140625,0.0012873541563749313,-0.0008699074387550354,-0.00022355420514941216
1761341759287925800,2.19092578125,0.00013289833441376686,0.0016824249178171158,-0.00028354162350296974
1761341759297992700,2.20099267578125,-0.0009691175073385239,-0.0007791351526975632,-0.0030550933443009853
1761341759308058600,2.21105859375,0.0005334028974175453,0.0004039714112877846,0.000827000942081213
1761341759318125800,2.221125732421875,-0.0010844678618013859,-0.0026533380150794983,-0.0015448108315467834
1761341759328191500,2.23119140625,0.0003040316514670849,-0.0007354607805609703,0.0004987530410289764
1761341759338257700,2.241257568359375,-0.0006104977801442146,0.002895493060350418,-0.0019822479225695133
1761341759348324600,2.25132470703125,0.0006019175052642822,0.0017891302704811096,0.0036253510043025017
1761341759358390500,2.261390625,-0.0005544270388782024,0.0012567639350891113,-0.000756880734115839
1761341759368456700,2.271456787109375,0.0013499674387276173,0.001825912855565548,0.0048671322874724865
1761341759378523600,2.281523681640625,-0.001513197086751461,-0.0011845240369439125,-0.0010980824008584023
1761341759388589600,2.291589599609375,-0.0013457387685775757,-0.0009537395089864731,-0.000039046164602041245
1761341759398656500,2.301656494140625,-0.0024389666505157948,-0.000170770101249218,0.0016083852387964725
1761341759408722700,2.31172265625,-0.00042557762935757637,-0.0016561532393097878,0.001122171524912119
1761341759418788600,2.32178857421875,0.0002450062893331051,0.0018293922767043114,-0.0002331114374101162
1761341759428855600,2.33185546875,-0.002228792756795883,-0.00058725755661726,-0.0012862030416727066
1761341759438921700,2.341921630859375,0.0012743296101689339,0.0006710859015583992,-0.0002486351877450943
1761341759448987600,2.351987548828125,0.0013736914843320847,0.0007762322202324867,0.0011886698193848133
1761341759459054600,2.3620546875,-0.0023526037111878395,0.0007900800555944443,-0.003596498165279627
1761341759469120800,2.372120849609375,0.001264846883714199,0.0005364697426557541,0.00015981635078787804
1761341759479187700,2.382187744140625,-0.0013216151855885983,-0.0013378635048866272,-0.0023888288997113705
1761341759489253600,2.392253662109375,0.0033644374925643206,-0.0001886347308754921,-0.00139132933691144
1761341759499319600,2.402319580078125,-0.0007370971143245697,0.000010036863386631012,-0.0006325948052108288
1761341759509386500,2.412386474609375,-0.00048452243208885193,-0.0021733278408646584,0.0010759234428405762
1761341759519452700,2.42245263671875,0.0006976546719670296,0.000005404464900493622,-0.0031340019777417183
1761341759529518600,2.4325185546875,0.001443750225007534,0.0005178507417440414,0.002145979553461075
1761341759539585500,2.44258544921875,0.0009337547235190868,0.0009159930050373077,-0.0006029354408383369
1761341759549651700,2.452651611328125,-0.0016075624153017998,-0.0008177356794476509,-0.001072131097316742
1761341759559718700,2.46271875,0.0002025878056883812,-0.0006624730303883553,-0.002869232092052698
1761341759569784600,2.47278466796875,-0.0011924714781343937,-0.001025310717523098,-0.00009837420657277107
1761341759579850800,2.482850830078125,-0.0004870002157986164,-0.0005499366670846939,-0.0025950875133275986
1761341759589917700,2.492917724609375,-0.002043190412223339,0.00006672274321317673,0.0030630906112492085
1761341759599983600,2.502983642578125,-0.0004500872455537319,-0.0008992059156298637,0.00060685770586133
1761341759610049800,2.5130498046875,-0.0019705938175320625,0.0009775878861546516,-0.0010805628262460232
1761341759620116700,2.52311669921875,-0.0013767089694738388,-0.001246417872607708,-0.0008669770322740078
1761341759630182700,2.5331826171875,-0.0012409109622240067,-0.001039973460137844,0.0012236488983035088
1761341759640249900,2.543249755859375,0.0009221085347235203,-0.0032072532922029495,0.0013107340782880783
1761341759650315500,2.5533154296875,-0.00008490961045026779,0.0005403384566307068,-0.0002610767260193825
1761341759660381400,2.56338134765625,-0.000506754033267498,0.00020264927297830582,0.0010444051586091518
1761341759670448600,2.57344873046875,-0.00004377635195851326,0.0028602546080946922,-0.0012439503334462643
1761341759680514600,2.5835146484375,0.00029151560738682747,0.0007089534774422646,-0.000033011194318532944
1761341759690579700,2.593579833984375,0.0018963143229484558,-0.0009677736088633537,-0.00034243473783135414
1761341759700646700,2.603646728515625,0.002555180573835969,-0.00022848043590784073,-0.0007986342534422874
1761341759710712600,2.613712646484375,-0.0005648997612297535,0.0000812942162156105,-0.0023162481375038624
1761341759720778800,2.62377880859375,-0.002117256633937359,0.00131167471408844,-0.0025215777568519115
1761341759730845700,2.633845703125,0.0004325220361351967,-0.00015901494771242142,-0.0008080010302364826
1761341759740911600,2.64391162109375,0.0003358493559062481,0.0005403310060501099,-0.0017390423454344273
1761341759750978800,2.653978759765625,-0.0005292752757668495,0.0015182588249444962,-0.0013271425850689411
1761341759761044700,2.664044677734375,0.00036421511322259903,0.00043062400072813034,0.0026913010515272617
1761341759771110700,2.674110595703125,-0.000292372889816761,0.000058117322623729706,0.002503280993551016
1761341759781177900,2.684177734375,0.0013462700881063938,-0.002232201397418976,-0.0032957522198557854
1761341759791243800,2.694243896484375,0.001387676689773798,-0.0013242000713944435,-0.0003718193620443344
1761341759801310700,2.704310791015625,0.0009434614330530167,-0.0000911559909582138,0.0005046268925070763
1761341759811377000,2.714376953125,-0.0000698016956448555,0.0016411049291491508,0.00010056328028440475
1761341759821442800,2.72444287109375,0.00041009997949004173,0.00018222536891698837,-0.001819309312850237
1761341759831509800,2.734509765625,-0.00017352309077978134,-0.00037093088030815125,0.0015892498195171356
1761341759841576000,2.744575927734375,-0.0003207959234714508,-0.0019717570394277573,-0.0013205204159021378
1761341759851641600,2.7546416015625,-0.000317390076816082,0.0016400236636400223,-0.0003300909884274006
1761341759861708500,2.76470849609375,-0.0012660082429647446,0.000392865389585495,-0.004273433703929186
1761341759871774700,2.774774658203125,0.00007208017632365227,0.00018069148063659668,-0.0018915124237537384
1761341759881840600,2.784840576171875,-0.00198680954053998,-0.001550097018480301,-0.00042251264676451683
1761341759891907600,2.794907470703125,-0.0003854525275528431,0.000035245902836322784,0.001374505925923586
1761341759901973800,2.804973876953125,-0.0005399156361818314,-0.00030004605650901794,-0.002161906100809574
1761341759912040700,2.815040771484375,0.0014195619150996208,0.0004860321059823036,-0.00031161215156316757
1761341759922106600,2.825106689453125,-0.0006731501780450344,0.0014109481126070023,-0.00017925305292010307
1761341759932172800,2.8351728515625,0.00006347009912133217,0.0007190359756350517,-0.001112231519073248
1761341759942239700,2.84523974609375,-0.00039086537435650826,0.0009323554113507271,-0.00023072492331266403
1761341759952306000,2.855305908203125,-0.0006771311163902283,0.0007237326353788376,0.001336446963250637
1761341759962371800,2.865371826171875,-0.0011346619576215744,-0.00017242133617401123,0.0031559187918901443
1761341759972438800,2.875438720703125,-0.00006250618025660515,0.000689077191054821,-0.0020805010572075844
1761341759982505000,2.8855048828125,0.0010677394457161427,0.0027671419084072113,0.0022524623200297356
1761341759992572000,2.895572021484375,0.0005025425925850868,-0.003061973489820957,0.0023614009842276573
1761341760002637800,2.905637939453125,0.0019150832667946815,-0.0007791118696331978,0.0025925636291503906
1761341760012703700,2.915703857421875,0.0019179019145667553,0.00025266222655773163,-0.000016878824681043625
1761341760022770700,2.925770751953125,0.0017402693629264832,0.0018249927088618279,-0.0012371395714581013
1761341760032836600,2.935836669921875,0.002140994183719158,-0.002321179024875164,-0.000641300342977047
1761341760042902800,2.94590283203125,0.0013103540986776352,0.0013481248170137405,-0.0009755273349583149
1761341760052969700,2.9559697265625,0.0012286370620131493,0.000795275904238224,-0.0015781712718307972
1761341760063035600,2.96603564453125,-0.0015594265423715115,0.00014866050332784653,-0.0006902734749019146
1761341760073102600,2.9761025390625,0.0023822151124477386,-0.0016707703471183777,0.0009622904472053051
1761341760083168800,2.986168701171875,-0.0012721745297312737,-0.0011541172862052917,0.001515429001301527
1761341760093234700,2.996234619140625,-0.0009184163063764572,-0.0006927857175469398,-0.00006973184645175934
1761341760103302000,3.006302001953125,0.0013015950098633766,0.0017477348446846008,0.000737472902983427
1761341760113367800,3.016367919921875,0.0007586590945720673,-0.001887255348265171,-0.0023961379192769527
1761341760123433700,3.026433837890625,-0.00037691276520490646,0.00027150288224220276,0.0005256161093711853
1761341760133501000,3.0365009765625,0.00040377164259552956,0.00045417342334985733,-0.0007732589729130268
1761341760143566800,3.04656689453125,-0.0013137012720108032,-0.0019690366461873055,-0.0015698103234171867
1761341760153632800,3.0566328125,0.00013299239799380302,0.0014521237462759018,-0.002450629137456417
1761341760163700000,3.066699951171875,0.0011628367938101292,0.0017205700278282166,-0.0019933641888201237
1761341760173765600,3.076765625,0.0013794563710689545,-0.0006654057651758194,-0.0007974579930305481
1761341760183832600,3.08683251953125,0.0015688072890043259,-0.0004203943535685539,-0.000054702628403902054
1761341760193898800,3.096898681640625,0.0010699527338147163,0.0011439314112067223,-0.00004658941179513931
1761341760203964700,3.106964599609375,0.0017671682871878147,0.0003820005804300308,-0.0018077376298606396
1761341760214031600,3.117031494140625,0.000370577909052372,0.001165640540421009,0.0032542156986892223
1761341760224097800,3.127097900390625,0.0009721862152218819,-0.0012921905145049095,-0.0015120436437427998
1761341760234163700,3.137163818359375,0.0013153147883713245,0.0002658963203430176,-0.001475582830607891
1761341760244230700,3.147230712890625,0.002177912276238203,-0.0010278671979904175,-0.00023934338241815567
1761341760254296800,3.157296875,-0.001554978545755148,-0.0009867846965789795,-0.0002906806766986847
1761341760264363800,3.16736376953125,-0.0006897179409861565,0.0015749093145132065,-0.000686159823089838
1761341760274429700,3.1774296875,0.00036351708695292473,-0.0013265497982501984,-0.0006904718466103077
1761341760284496000,3.187495849609375,-0.0016769971698522568,-0.0020080525428056717,-0.002485975157469511
1761341760294562800,3.197562744140625,-0.001508813351392746,0.0003389650955796242,0.00257236510515213
1761341760304628700,3.207628662109375,0.0010339729487895966,0.00013736356049776077,0.00030814576894044876
1761341760314694700,3.217694580078125,-0.000031391624361276627,-0.0001133214682340622,-0.00002125650644302368
1761341760324761900,3.227761962890625,0.0026064692065119743,-0.001635851338505745,0.001105793286114931
1761341760334827800,3.237827880859375,-0.003023168072104454,-0.0008377581834793091,0.0008534514345228672
1761341760344894700,3.247894775390625,-0.00020181527361273766,0.0013689370825886726,-0.002051258459687233
1761341760354960600,3.257960693359375,0.0025287698954343796,-0.0003821663558483124,0.0020654015243053436
1761341760365026800,3.26802685546875,0.0016930699348449707,-0.0007371651008725166,-0.0018928544595837593
1761341760375093800,3.27809375,0.000669106375426054,-0.0004494898021221161,0.001991214696317911
1761341760385159700,3.28815966796875,-0.0018819360993802547,-0.001129928044974804,-0.0014863405376672745
1761341760395225900,3.298225830078125,0.0010801763273775578,-0.000423971563577652,-0.0003057043068110943
1761341760405292800,3.308292724609375,0.0009747152216732502,-0.00015019811689853668,0.001981950830668211
1761341760415358700,3.318358642578125,0.0034796465188264847,0.0018303394317626953,-0.0003893757238984108
1761341760425425000,3.3284248046875,0.001225546933710575,-0.00008873455226421356,-0.0005318545736372471
1761341760435491800,3.338491943359375,0.0019743703305721283,0.0017677322030067444,0.0022999895736575127
1761341760445557800,3.348557861328125,0.0004031052812933922,-0.0015612198039889336,0.003927979618310928
1761341760455624700,3.358624755859375,0.003198780585080385,0.0005724523216485977,-0.0001241695135831833
1761341760465691000,3.36869091796875,0.0004069888964295387,0.0023154905065894127,0.00008435593917965889
1761341760475756500,3.378756591796875,-0.0006689098663628101,0.0013018343597650528,0.000741500873118639
1761341760485823700,3.38882373046875,0.0005494863726198673,-0.0032734759151935577,-0.00009286729618906975
1761341760495889700,3.3988896484375,0.0021773758344352245,0.000987284816801548,0.0025202911347150803
1761341760505955600,3.40895556640625,0.0013533937744796276,-0.00037864968180656433,-0.00016071321442723274
1761341760516022800,3.419022705078125,-0.0022118762135505676,-0.0003801146522164345,-0.0010978560894727707
1761341760526088700,3.429088623046875,0.0010425071232020855,0.0006771599873900414,0.002757336013019085
1761341760536155600,3.43915576171875,0.0018698377534747124,0.0006889281794428825,0.00018524611368775368
1761341760546221800,3.449221923828125,-0.0005786721594631672,0.0005341982468962669,-0.001999611034989357
1761341760556287700,3.459287841796875,-0.00150004168972373,0.00023870449513196945,0.0011505400761961937
1761341760566354700,3.469354736328125,0.0012531341053545475,0.0007508303970098495,0.003119414672255516
1761341760576420900,3.4794208984375,0.00016513559967279434,0.0005784807726740837,0.0003908630460500717
1761341760586486800,3.48948681640625,-0.0025401036255061626,-0.0004500327631831169,-0.0005425750277936459
1761341760596553700,3.4995537109375,-0.0006192922592163086,-0.0013082129880785942,-0.0023051160387694836
1761341760606620000,3.509619873046875,0.0012044403702020645,0.0003200434148311615,-0.002405250910669565
1761341760616686800,3.519686767578125,0.00010562362149357796,-0.0004141787067055702,-0.0018200622871518135
1761341760626752800,3.529752685546875,0.0009258771315217018,0.002042321488261223,0.00006785290315747261
1761341760636818700,3.539818603515625,-0.0006928397342562675,-0.00020382646471261978,-0.0016806810162961483
1761341760646886000,3.549885986328125,-0.0035155238583683968,-0.0012821406126022339,0.005920246709138155
1761341760656951600,3.55995166015625,0.000340229831635952,0.0009492719545960426,-0.0007836837321519852
1761341760667017700,3.570017822265625,-0.001820126548409462,0.0001679006963968277,-0.001092077698558569
1761341760677084700,3.580084716796875,0.0015481757000088692,-0.00019367411732673645,-0.0002767574042081833
1761341760687151000,3.590151123046875,0.0010003633797168732,-0.0021550925448536873,0.00016958825290203094
1761341760697218300,3.60021826171875,0.000023928936570882797,0.00017251353710889816,-0.000044514425098896027
1761341760707284000,3.610283935546875,0.000244705006480217,0.0014447057619690895,-0.0003835344687104225
1761341760717350000,3.620349853515625,0.00010231137275695801,0.00022523384541273117,-0.001637252513319254
1761341760727417000,3.6304169921875,-0.000159477349370718,0.0025951815769076347,-0.0004750490188598633
1761341760737483000,3.64048291015625,-0.0008886614814400673,0.0047571491450071335,0.004333066754043102
1761341760747549200,3.650549072265625,0.0003587631508708,-0.0008274996653199196,0.0005194209516048431
1761341760757616000,3.6606162109375,0.00037141144275665283,-0.0011645229533314705,0.0013835066929459572
1761341760767682000,3.67068212890625,0.002206596080213785,-0.0019869068637490273,0.002703901380300522
1761341760777748200,3.680748291015625,-0.00044355494901537895,0.0012935623526573181,0.000010541640222072601
1761341760787815200,3.690815185546875,-0.002546919509768486,0.002884269692003727,-0.0020392932929098606
1761341760797881000,3.700881103515625,-0.0021407464519143105,-0.0016555041074752808,0.001990620046854019
1761341760807948000,3.710947998046875,0.0007858010940253735,0.0026630787178874016,0.0027328431606292725
1761341760818014200,3.72101416015625,-0.0007806080393493176,-0.001532682217657566,-0.0016154320910573006
1761341760828080000,3.731080078125,0.00020928867161273956,-0.001303117722272873,-0.003635439556092024
1761341760838147000,3.74114697265625,-0.000498712994158268,0.0016233017668128014,0.003614571411162615
1761341760848213200,3.751213134765625,0.001917573157697916,0.00006801541894674301,-0.001471267081797123
1761341760858279000,3.76127880859375,-0.00022075558081269264,0.0004927096888422966,0.0031707212328910828
1761341760868345900,3.771345947265625,0.0015172231942415237,-0.001178157515823841,0.0008817343041300774
1761341760878412000,3.781412109375,0.0013998765498399734,0.0026487447321414948,0.0021792668849229813
1761341760888478000,3.79147802734375,0.0007026609964668751,-0.0018703741952776909,-0.0005787024274468422
1761341760898545200,3.801545166015625,0.00044084247201681137,-0.0003791702911257744,-0.0003090016543865204
1761341760908611000,3.811611083984375,0.0023479319643229246,0.0008560037240386009,-0.000655478797852993
1761341760918678000,3.821677978515625,-0.0012232866138219833,0.0012009069323539734,0.0009808307513594627
1761341760928744200,3.831744140625,-0.001245390623807907,0.001527942717075348,0.0014495477080345154
1761341760938810000,3.84181005859375,0.0003014015965163708,-0.0008509764447808266,0.000812014564871788
1761341760948877000,3.851876953125,0.0011160625144839287,-0.000979074276983738,0.0007941713556647301
1761341760958943200,3.861943115234375,-0.00044572679325938225,0.0013150088489055634,0.00079695088788867
1761341760969009200,3.872009033203125,-0.0014377543702721596,0.0017198091372847557,-0.0003572632558643818
1761341760979076000,3.882076171875,0.000719637144356966,0.00017507746815681458,0.0006956332363188267
1761341760989142300,3.892142333984375,-0.0013504382222890854,0.0017679138109087944,0.000908686313778162
1761341760999209200,3.902209228515625,0.0007407157681882381,-0.0007015410810709,-0.0005482607521116734
1761341761009275100,3.912275146484375,0.0007985061965882778,-0.000836564227938652,0.000049619004130363464
1761341761019341000,3.922341064453125,-0.0003239018842577934,0.002544250339269638,-0.0007714396342635155
1761341761029408000,3.932407958984375,0.0014969012700021267,0.00028961896896362305,0.002910913433879614
1761341761039474000,3.942473876953125,0.0011360645294189453,0.0009251423180103302,-0.00024185702204704285
1761341761049540000,3.9525400390625,0.00017146719619631767,-0.0022924887016415596,0.00023671286180615425
1761341761059606000,3.96260595703125,-0.001486822497099638,0.00016377773135900497,0.001166581641882658
1761341761069673000,3.9726728515625,0.0011411849409341812,0.0027129556983709335,0.0004959977231919765
1761341761079739100,3.9827392578125,-0.0013312040828168392,0.0007479377090930939,0.0005219294689595699
1761341761089806000,3.99280615234375,-0.0005072220228612423,0.0022941678762435913,0.002622098196297884
1761341761099872000,4.0028720703125,-0.0010488610714673996,-0.0006156051531434059,-0.0002675764262676239
1761341761109938200,4.012938232421875,0.0003117476589977741,-0.00044170115143060684,-0.00014560390263795853
1761341761120005000,4.023005126953125,0.003574156668037176,0.0005257735028862953,-0.0023041358217597008
1761341761130071000,4.033071044921875,0.0008223121985793114,-0.0008406946435570717,0.0005198800936341286
1761341761140137200,4.04313720703125,-0.0014886697754263878,-0.0013407403603196144,0.001564911101013422
1761341761150204200,4.0532041015625,-0.0007251412607729435,0.0016065798699855804,0.0016658450476825237
1761341761160270000,4.06327001953125,0.0008667674846947193,0.00044637732207775116,0.001496272161602974
1761341761170337300,4.073337158203125,-0.0006765346042811871,0.001848265528678894,0.0014952067285776138
1761341761180403000,4.08340283203125,-0.0014988896436989307,0.0016872547566890717,0.00009735114872455597
1761341761190469000,4.09346923828125,0.001524064689874649,-0.0005639148876070976,0.00020813895389437675
1761341761200536000,4.1035361328125,0.003046149853616953,-0.0003267284482717514,-0.0021217437461018562
1761341761210602000,4.11360205078125,-0.0015395469963550568,-0.0013914601877331734,0.0016455636359751225
1761341761220668200,4.123668212890625,-0.0016738907434046268,0.0027325712144374847,0.00002609752118587494
1761341761230735000,4.133735107421875,-0.0019023898057639599,-0.001653921790421009,0.001945970579981804
1761341761240801000,4.143801025390625,-0.0011426536366343498,-0.00036961864680051804,0.00017348304390907288
1761341761250867200,4.1538671875,-0.002329624257981777,0.00012413132935762405,0.0016190474852919579
1761341761260934100,4.16393408203125,0.0029698689468204975,0.002612343057990074,0.0007536238990724087
1761341761271000000,4.174,0.00030031614005565643,0.000289001502096653,-0.002488241996616125
1761341761281066200,4.184066162109375,-0.000002614688128232956,-0.0010565295815467834,0.0020249332301318645
1761341761291133200,4.19413330078125,-0.0015365956351161003,-0.00028048455715179443,-0.0001210416667163372
1761341761301199000,4.20419921875,0.00023701880127191544,-0.0034235669299960136,-0.0003046281635761261
1761341761311266300,4.214266357421875,-0.0002287682145833969,-0.0015910454094409943,0.0005443878471851349
1761341761321332000,4.22433203125,0.001145307905972004,-0.00005054287612438202,0.0014079860411584377
1761341761331398000,4.23439794921875,0.0006057512946426868,-0.000604214146733284,0.001805861946195364
1761341761341465000,4.244465087890625,-0.0007621394470334053,-0.0012565851211547852,-0.0007415711879730225
1761341761351531000,4.254531005859375,0.0016418960876762867,0.0003133481368422508,0.0020009521394968033
1761341761361598000,4.264597900390625,-0.0004890277050435543,-0.00106805469840765,0.0006966236978769302
1761341761371664100,4.2746640625,-0.0011715958826243877,0.0007389001548290253,0.001544307917356491
1761341761381730000,4.28472998046875,-0.0008152145892381668,0.0003407727926969528,-0.00024539511650800705
1761341761391797000,4.294796875,-0.0008032303303480148,0.0011088280007243156,-0.0014957492239773273
1761341761401863200,4.30486328125,-0.0003373310901224613,0.0007424876093864441,0.001423331443220377
1761341761411929000,4.31492919921875,-0.0002819374203681946,-0.0029366686940193176,-0.001527717337012291
1761341761421996000,4.32499609375,-0.0002663657069206238,0.0006780968979001045,0.0005221860483288765
1761341761432062200,4.335062255859375,-0.0012948783114552498,0.0005667759105563164,-0.0015968908555805683
1761341761442128100,4.345128173828125,0.0012792237102985382,-0.0011892113834619522,0.00027819257229566574
1761341761452195000,4.355195068359375,0.0013061217032372952,0.0003990978002548218,-0.001353792380541563
1761341761462261200,4.36526123046875,0.00044608814641833305,-0.0015235403552651405,0.0028089690022170544
1761341761472328200,4.375328125,0.001779266633093357,0.00004000123590230942,0.0009495499543845654
1761341761482393900,4.385393798828125,-0.00019893934950232506,0.0011797016486525536,0.0009039556607604027
1761341761492460000,4.3954599609375,-0.002628274727612734,0.0011938167735934258,0.0035735080018639565
1761341761502527000,4.40552685546875,0.00015414366498589516,0.0004362789914011955,0.00015453575178980827
1761341761512593200,4.41559326171875,0.0013083573430776596,0.0001784851774573326,0.0009723929688334465
1761341761522659000,4.4256591796875,-0.0011398913338780403,0.0017076879739761353,-0.00076320581138134
1761341761532726000,4.43572607421875,0.0035163795109838247,0.0004658559337258339,0.0017801132053136826
1761341761542792200,4.445792236328125,-0.0016533741727471352,-0.0008675549179315567,-0.00008978275582194328
1761341761552858000,4.455858154296875,0.0007975324988365173,0.0019926801323890686,-0.00011162087321281433
1761341761562925000,4.465925048828125,0.0022679734975099564,0.001960587687790394,-0.0026422743685543537
1761341761572991200,4.4759912109375,0.0008748741820454597,0.00025296956300735474,0.0013860231265425682
1761341761583058200,4.48605810546875,-0.00028739264234900475,-0.0005616452544927597,-0.000328178983181715
1761341761593124000,4.4961240234375,0.0022777642589062452,-0.00013314280658960342,0.00020418688654899597
1761341761603190300,4.506190185546875,-0.0018914826214313507,0.0001415228471159935,-0.00136079965159297
1761341761613257200,4.51625732421875,-0.0004957197234034538,0.0007476583123207092,0.0024171601980924606
1761341761623323100,4.5263232421875,0.0006385813467204571,0.0016112737357616425,0.00031535327434539795
1761341761633389000,4.53638916015625,0.00014829309657216072,0.00040326453745365143,0.0009832745417952538
1761341761643456000,4.5464560546875,0.0005192412063479424,-0.002239304594695568,0.00047916825860738754
1761341761653522000,4.55652197265625,-0.0008379057981073856,-0.0008139805868268013,0.0023780018091201782
1761341761663589000,4.566589111328125,0.0005099414847791195,-0.00030673667788505554,0.0013636406511068344
1761341761673655000,4.576655029296875,-0.00046823732554912567,0.0004653139039874077,0.0007833372801542282
1761341761683721000,4.586720947265625,-0.003812354989349842,0.0004971716552972794,-0.0010310760699212551
1761341761693788400,4.596788330078125,-0.0010511893779039383,-0.0011172369122505188,-0.0006742123514413834
1761341761703854300,4.606854248046875,-0.00037989672273397446,0.001245175488293171,-0.00014479737728834152
1761341761713920300,4.616920166015625,0.0003801696002483368,-0.0011450117453932762,-0.00041883671656250954
1761341761723987500,4.626987548828125,0.00018100440502166748,0.00003831367939710617,0.002189206425100565
1761341761734053400,4.637053466796875,0.0012254961766302586,-0.0004330659285187721,-0.0004648999311029911
1761341761744119000,4.647119140625,0.0001966077834367752,-0.000881795771420002,0.0007866299711167812
1761341761754186200,4.657186279296875,0.0007188534364104271,0.0011736322194337845,-0.0008078045211732388
1761341761764252200,4.667252197265625,-0.0026066512800753117,-0.0019095046445727348,-0.00004224618896842003
1761341761774319000,4.677319091796875,0.00007674982771277428,0.00026496686041355133,0.0008504455909132957
1761341761784385300,4.68738525390625,0.0013076737523078918,0.0003159744665026665,0.0038399905897676945
1761341761794451200,4.697451171875,0.0003401474095880985,-0.0022662263363599777,-0.0026336214505136013
1761341761804518100,4.70751806640625,-0.000050650909543037415,0.0006176764145493507,0.000040967948734760284
1761341761814584300,4.717584228515625,0.0002763848751783371,-0.0007408019155263901,0.0002934355288743973
1761341761824650200,4.727650146484375,-0.0016405824571847916,0.000649389810860157,-0.0012554656714200974
1761341761834717200,4.73771728515625,-0.002344988752156496,0.0015364885330200195,-0.0028373836539685726
1761341761844783400,4.747783447265625,-0.0005277921445667744,-0.0008383095264434814,0.00003430573269724846
1761341761854850300,4.757850341796875,0.000196854118257761,-0.001348838210105896,-0.0013766372576355934
1761341761864916200,4.767916259765625,0.0035681386943906546,0.00025417376309633255,0.0028536608442664146
1761341761874982400,4.777982421875,-0.0008606980554759502,-0.0008403854444622993,0.0018211528658866882
1761341761885049300,4.78804931640625,-0.0005526905879378319,0.0014120517298579216,0.0005665975622832775
1761341761895115300,4.798115234375,0.0008103149011731148,-0.0010409858077764511,0.0008068145252764225
1761341761905181200,4.80818115234375,0.0005582473240792751,0.00048226211220026016,-0.0012722308747470379
1761341761915248000,4.818248046875,-0.0010795965790748596,0.0005243401974439621,-0.0008133682422339916
1761341761925314300,4.828314208984375,0.0003658668138086796,0.0004322696477174759,0.0009076930582523346
1761341761935380200,4.838380126953125,0.00024815509095788,-0.0002273954451084137,0.0000687967985868454
1761341761945447200,4.848447265625,-0.000222768634557724,0.001111302524805069,-0.0016379090957343578
1761341761955513300,4.858513427734375,0.0004664575681090355,0.0011941269040107727,-0.0009265788830816746
1761341761965580300,4.868580322265625,0.0011386489495635033,-0.0003749066963791847,0.0013574417680501938
1761341761975646200,4.878646240234375,-0.00011996086686849594,0.0007611978799104691,0.000047699082642793655
1761341761985712400,4.88871240234375,0.0016996366903185844,-0.0005937432870268822,0.0013903467915952206
1761341761995779300,4.898779296875,0.0014442396350204945,0.0031298883259296417,0.003453498240560293
1761341762005845200,4.90884521484375,-0.0011973590590059757,0.0007407525554299355,0.0024542417377233505
1761341762015911400,4.918911376953125,0.0017515593208372593,-0.0007042782381176949,0.002187926322221756
1761341762025978400,4.928978271484375,0.000556224025785923,-0.00433511845767498,-0.0006366870366036892
1761341762036044300,4.939044189453125,-0.002842501737177372,-0.000004818663001060486,-0.0003168415278196335
1761341762046111200,4.949111328125,-0.00007189996540546417,-0.0007365355268120766,-0.0013215094804763794
1761341762056177200,4.95917724609375,0.00139683298766613,-0.0013330839574337006,0.00020208489149808884
1761341762066243000,4.9692431640625,-0.0006022029556334019,0.0012502819299697876,-0.0014688693918287754
1761341762076310300,4.979310302734375,0.0023978480603545904,-0.0015108836814761162,-0.0005570030771195889
1761341762086376200,4.989376220703125,0.000015133526176214218,0.0017071077600121498,-0.002266921103000641
1761341762096442000,4.999442138671875,-0.0002802107483148575,-0.00014325696974992752,0.002545144408941269
1761341762106509300,5.00950927734375,0.00007893098518252373,0.0007049925625324249,-0.0014511733315885067
1761341762116575200,5.0195751953125,-0.00016554724425077438,0.00018700771033763885,0.0009206379763782024
1761341762126641200,5.02964111328125,-0.0002688206732273102,-0.0020109405741095543,-0.00031540682539343834
1761341762136708400,5.039708251953125,-0.0012600491754710674,-0.004551064223051071,0.003019403200596571
1761341762146774300,5.049774169921875,-0.0002383585087954998,0.002079213038086891,0.0014647007919847965
1761341762156841200,5.05984130859375,0.0012902962043881416,0.0002648010849952698,-0.0018858220428228378
1761341762166907400,5.069907470703125,0.00003890739753842354,-0.0006644977256655693,0.002360719721764326
1761341762176973300,5.079973388671875,-0.00016136234626173973,0.0020742975175380707,0.0024784314446151257
1761341762187040300,5.090040283203125,0.0016933898441493511,0.001037699170410633,-0.0014300965704023838
1761341762197106400,5.1001064453125,-0.0002760179340839386,0.0013772519305348396,0.0006149453110992908
1761341762207172000,5.110172119140625,-0.00030548637732863426,0.0016876757144927979,-0.0006614034064114094
1761341762217239000,5.120239013671875,-0.00196410296484828,0.0009611658751964569,0.000245935283601284
1761341762227305200,5.13030517578125,0.0025498047471046448,-0.00171554833650589,-0.0008146236650645733
1761341762237371100,5.14037109375,0.0005857236683368683,-0.00019408483058214188,-0.0003299284726381302
1761341762247438000,5.15043798828125,0.0010988973081111908,0.001035415567457676,0.004389295354485512
1761341762257504300,5.160504150390625,0.0003231186419725418,-0.0014277417212724686,-0.00029866723343729973
1761341762267571200,5.1705712890625,0.0006213909946382046,0.00046079792082309723,0.0019266856834292412
1761341762277637000,5.18063720703125,-0.0001980634406208992,-0.0011850353330373764,-0.0015444783493876457
1761341762287703300,5.190703369140625,-0.002561975736171007,-0.003946995362639427,-0.00046168360859155655
1761341762297770200,5.200770263671875,-0.0008815205655992031,0.0007870392873883247,-0.002514980733394623
1761341762307836400,5.21083642578125,-0.0004566158168017864,-0.0008166423067450523,-0.0020849178545176983
1761341762317902300,5.22090234375,0.000011567957699298859,-0.0003154352307319641,-0.00020472612231969833
1761341762327969300,5.23096923828125,0.00019038747996091843,0.0003161448985338211,0.0030558076687157154
1761341762338035500,5.241035400390625,-0.0002325223758816719,-0.0007118349894881248,-0.002460131421685219
1761341762348101000,5.25110107421875,-0.0010005896911025047,-0.00011170096695423126,-0.001198665238916874
1761341762358168300,5.261168212890625,0.00019437074661254883,-0.0010435404255986214,-0.0009659049101173878
1761341762368234200,5.271234130859375,-0.00026926910504698753,-0.002181209623813629,0.0018824785947799683
1761341762378301200,5.28130126953125,-0.0009441142901778221,0.0015655923634767532,0.002061976119875908
1761341762388367000,5.2913671875,-0.0005495869554579258,-0.0023727305233478546,0.0003641038201749325
1761341762398433300,5.301433349609375,-0.0006680977530777454,0.0008654072880744934,0.0011044624261558056
1761341762408500200,5.311500244140625,0.0001243562437593937,-0.0020500803366303444,0.0010259202681481838
1761341762418566100,5.321566162109375,-0.0029670405201613903,0.0001928340643644333,-0.0014417651109397411
1761341762428632300,5.33163232421875,-0.00009517185389995575,-0.0010188445448875427,-0.0004578246735036373
1761341762438699300,5.34169921875,-0.002751142717897892,-0.001761334016919136,0.0005507143214344978
1761341762448765200,5.35176513671875,0.001340464223176241,-0.003034350462257862,0.00027830665931105614
1761341762458831400,5.361831298828125,-0.0006419927813112736,0.0016277795657515526,-0.0020847157575190067
1761341762468898300,5.371898193359375,0.001081164926290512,-0.0011489931493997574,0.0012137452140450478
1761341762478964200,5.381964111328125,0.0017112689092755318,0.0007916530594229698,0.0006166649982333183
1761341762489031400,5.392031494140625,-0.0014244439080357552,-0.002711552195250988,0.0006026150658726692
1761341762499097300,5.402097412109375,0.0014176815748214722,0.0007431004196405411,-0.0012291069142520428
1761341762509163300,5.412163330078125,0.0009515406563878059,0.0011353455483913422,0.0015054349787533283
1761341762519230500,5.42223046875,0.0000026565976440906525,-0.0011959848925471306,0.0009360513649880886
1761341762529296100,5.432296142578125,-0.00023987703025341034,-0.0004989681765437126,-0.0015855259262025356
1761341762539362300,5.4423623046875,0.00357536762021482,0.0011700345203280449,-0.0016363924369215965
1761341762549429200,5.45242919921875,-0.00011449074372649193,0.0004389071837067604,-0.0015256013721227646
1761341762559495200,5.4624951171875,0.0014407956041395664,0.0006357152014970779,0.0019479594193398952
1761341762569561300,5.472561279296875,0.0007527950219810009,0.000641748309135437,0.0004504886455833912
1761341762579628300,5.482628173828125,0.002430586377158761,0.001712072640657425,-0.0010030651465058327
1761341762589694200,5.492694091796875,-0.002058368641883135,0.0006348732858896255,-0.0006685033440589905
1761341762599761200,5.50276123046875,-0.0034069926477968693,0.00038666650652885437,0.0025043869391083717
1761341762609827300,5.512827392578125,0.0018787523731589317,-0.0008330997079610825,0.0011557498946785927
1761341762619893200,5.522893310546875,0.0009051007218658924,-0.003202781081199646,-0.0027196817100048065
1761341762629960200,5.532960205078125,-0.0006010895594954491,0.0002771606668829918,0.0004191715270280838
1761341762640026400,5.5430263671875,0.0010948115959763527,-0.00039209146052598953,0.0010897554457187653
1761341762650092300,5.55309228515625,0.00005690380930900574,0.0013987701386213303,0.00036708544939756393
1761341762660159200,5.5631591796875,-0.0007734699174761772,0.0006597433239221573,0.0036688726395368576
1761341762670225200,5.57322509765625,0.00021323375403881073,0.0016000783070921898,0.0027264878153800964
1761341762680291000,5.583291015625,-0.0021583111956715584,-0.001634863205254078,-0.00005784723907709122
1761341762690358000,5.59335791015625,-0.001102194655686617,0.002337711863219738,-0.0014192094095051289
1761341762700424000,5.603423828125,-0.0013301614671945572,0.0006567239761352539,-0.0031774286180734634
1761341762710491000,5.613490966796875,-0.0007254877127707005,0.0014088265597820282,-0.0005251825787127018
1761341762720557000,5.62355712890625,0.0017797481268644333,-0.003886869177222252,-0.0002380935475230217
1761341762730623000,5.633623046875,0.0009538512676954269,-0.001064603216946125,0.0000225994735956192
1761341762740690000,5.64368994140625,0.002018583472818136,0.001416131854057312,0.000019403640180826187
1761341762750756000,5.653756103515625,0.00016008829697966576,0.0006958683952689171,0.0002027386799454689
1761341762760822000,5.663822021484375,0.0012242873199284077,0.0006881449371576309,0.0005252477712929249
1761341762770889000,5.673888916015625,-0.0009906557388603687,0.001435701735317707,0.0005826894193887711
1761341762780955100,5.683955078125,0.0009859423153102398,-0.0006551453843712807,-0.0012117484584450722
1761341762791020800,5.694020751953125,0.0023682639002799988,0.0005219262093305588,0.00015023024752736092
1761341762801087700,5.704087646484375,0.0005210954695940018,0.000654551200568676,0.001160633284598589
1761341762811154000,5.71415380859375,-0.0010512364096939564,0.0025595948100090027,0.0016741245053708553
1761341762821219800,5.7242197265625,0.0011658454313874245,-0.00018612481653690338,-0.0010699965059757233
1761341762831286800,5.734286865234375,0.000623736996203661,-0.00047585461288690567,-0.00006241165101528168
1761341762841353000,5.74435302734375,-0.0014388812705874443,-0.0010713376104831696,-0.0011047725565731525
1761341762851420000,5.754419921875,0.00001859152689576149,0.000256391242146492,0.0008836141787469387
1761341762861486000,5.764486083984375,0.00009049708023667336,-0.0002647889778017998,0.0014556613750755787
1761341762871552000,5.774552001953125,0.00181592907756567,0.00038680993020534515,0.0021870704367756844
1761341762881619000,5.784618896484375,0.0009259004145860672,0.00019000284373760223,0.002057108096778393
1761341762891685000,5.79468505859375,-0.0008671157993376255,-0.0005159573629498482,0.0024459869600832462
1761341762901751000,5.8047509765625,0.0013403785414993763,0.0012755515053868294,0.0009367731399834156
1761341762911818000,5.81481787109375,0.00251869298517704,-0.0014294227585196495,0.0007345853373408318
1761341762921884200,5.82488427734375,0.0005756509490311146,0.0011879317462444305,-0.000059036072343587875
1761341762931949800,5.83494970703125,0.0000029262155294418335,-0.0013698320835828781,0.003233702387660742
1761341762942017000,5.84501708984375,0.0011520804837346077,0.0019961372017860413,-0.0012430716305971146
1761341762952083000,5.8550830078125,0.0018341331742703915,0.0027689849957823753,0.000976374838501215
1761341762962150000,5.86514990234375,-0.0006023929454386234,-0.0002454463392496109,-0.0017032981850206852
1761341762972215800,5.8752158203125,0.001462204847484827,0.0013585230335593224,-0.0013816538266837597
1761341762982282000,5.885281982421875,-0.0005713845603168011,0.0010645100846886635,0.00009826477617025375
1761341762992349000,5.895348876953125,-0.0017950143665075302,-0.0006924876943230629,0.0025754356756806374
1761341763002414800,5.905414794921875,-0.0013385484926402569,0.002427671104669571,0.0002278592437505722
1761341763012481000,5.91548095703125,0.00022693397477269173,0.001631198450922966,-0.0014003738760948181
1761341763022548000,5.9255478515625,-0.0015485952608287334,0.0012820586562156677,-0.0004714629612863064
1761341763032614000,5.93561376953125,-0.0009622080251574516,0.0002026427537202835,0.002784125506877899
1761341763042680000,5.94568017578125,0.0002018599770963192,-0.0011153556406497955,0.0015609357506036758
1761341763052747000,5.9557470703125,-0.00035311514511704445,-0.0006059911102056503,0.0005934550426900387
1761341763062813000,5.96581298828125,-0.0008242279291152954,-0.001198277808725834,0.00015243515372276306
1761341763072880000,5.975880126953125,0.001759917475283146,0.00044345296919345856,-0.0023357667960226536
1761341763082946000,5.985946044921875,0.0009825406596064568,0.0009385347366333008,0.002201993018388748
1761341763093012000,5.996011962890625,-0.0006674579344689846,0.0014883512631058693,0.0020719068124890327
1761341763103079200,6.0060791015625,-0.0016432404518127441,0.000053173862397670746,0.0024394234642386436
1761341763113144800,6.016144775390625,0.0009614713490009308,0.001194923184812069,-0.000813113059848547
1761341763123211000,6.0262109375,-0.0023930463939905167,0.0010654935613274574,-0.0020040785893797874
1761341763133278000,6.03627783203125,0.0006498838774859905,0.00013201218098402023,-0.0008589569479227066
1761341763143343900,6.04634375,0.0007457579486072063,-0.0003028819337487221,0.0020305728539824486
1761341763153410000,6.05641015625,0.00044849468395113945,0.00143391452729702,0.0007852897979319096
1761341763163477000,6.06647705078125,0.0017281435430049896,-0.0010750489309430122,0.00030378950759768486
1761341763173543000,6.07654296875,0.0010517816990613937,0.0008853953331708908,-0.002810120116919279
1761341763183609000,6.086609130859375,0.001800662837922573,-0.0007665632292628288,0.003071205224841833
1761341763193676000,6.096676025390625,0.0006149443797767162,-0.0020909802988171577,-0.00048179132863879204
1761341763203742000,6.106741943359375,-0.0035718106664717197,0.0008880319073796272,0.0003240806981921196
1761341763213809000,6.116808837890625,-0.000583259854465723,0.0002866927534341812,-0.0015775267966091633
1761341763223875000,6.126875,0.0007776152342557907,0.0002305004745721817,0.0007498092018067837
1761341763233941000,6.13694091796875,0.0012064590118825436,0.0009516356512904167,0.0015383688732981682
1761341763244008200,6.14700830078125,0.00016702711582183838,-0.003385588526725769,-0.0004185214638710022
1761341763254073900,6.157073974609375,-0.00034806644544005394,0.0003300365060567856,-0.00007539475336670876
1761341763264139800,6.167139892578125,0.0000881594605743885,-0.0009261760860681534,0.0010769548825919628
1761341763274207000,6.17720703125,0.0006842841394245625,0.00039632245898246765,0.0007711430080235004
1761341763284273000,6.18727294921875,-0.0010702060535550117,0.001921781338751316,-0.0010374095290899277
1761341763294338800,6.1973388671875,0.0007308428175747395,-0.0007274020463228226,-0.00025689275935292244
1761341763304406000,6.207406005859375,0.0022232781630009413,-0.00083153136074543,-0.002007122151553631
1761341763314472000,6.217471923828125,0.000028455164283514023,-0.0033750412985682487,0.002431759610772133
1761341763324539000,6.227538818359375,0.0037560819182544947,-0.00034250039607286453,-0.000469753984361887
1761341763334605000,6.23760498046875,0.0013500233180820942,-0.00031981244683265686,0.0016575143672525883
1761341763344671000,6.2476708984375,0.00046665314584970474,0.0010117674246430397,-0.0016384138725697994
1761341763354738000,6.257738037109375,0.0010549970902502537,0.0013372479006648064,-0.00039874017238616943
1761341763364804000,6.26780419921875,-0.0012345225550234318,0.0003007464110851288,0.0007448210380971432
1761341763374870000,6.2778701171875,0.0003095199353992939,-0.002264736220240593,0.001697964034974575
1761341763384937000,6.28793701171875,-0.0016130157746374607,-0.001114250160753727,0.0008124625310301781
1761341763395003100,6.298003173828125,-0.0006154892034828663,-0.0008671320974826813,0.0015193098224699497
1761341763405068800,6.30806884765625,0.00048439623787999153,0.0016562128439545631,0.00014831405133008957
1761341763415135700,6.3181357421875,-0.0011910274624824524,-0.00012426543980836868,0.00027941400185227394
1761341763425202000,6.328201904296875,0.00017277710139751434,-0.00023878086358308792,0.00012202141806483269
1761341763435267800,6.338267822265625,-0.0006256219930946827,0.0003713304176926613,0.0007817652076482773
1761341763445334800,6.348334716796875,0.0003323173150420189,-0.0000899285078048706,0.0002829553559422493
1761341763455401000,6.35840087890625,-0.0016592848114669323,-0.0001465827226638794,0.00003814883530139923
1761341763465468000,6.368468017578125,-0.0011727255769073963,0.00020788423717021942,-0.0010825092904269695
1761341763475534000,6.3785341796875,0.002430487424135208,0.0010027289390563965,-0.0024254200980067253
1761341763485600000,6.38860009765625,0.00006879633292555809,0.0009332206100225449,-0.0016259392723441124
1761341763495667000,6.3986669921875,0.0010419311001896858,0.0013907281681895256,-0.00013005221262574196
1761341763505733000,6.408733154296875,0.0001191459596157074,-0.00010863225907087326,0.0014489353634417057
1761341763515799000,6.418799072265625,-0.0016738316044211388,0.00037181098014116287,-0.0032583647407591343
1761341763525866000,6.428865966796875,-0.0004535713233053684,-0.0022418154403567314,0.0013129515573382378
1761341763535932200,6.43893212890625,0.0010035294108092785,-0.00029106251895427704,0.0009261565282940865
1761341763545997800,6.448997802734375,0.001136154867708683,0.0019044466316699982,0.0004694247618317604
1761341763556065000,6.45906494140625,0.00009095855057239532,0.0003310898318886757,-0.0005521089769899845
1761341763566131000,6.469130859375,-0.0009506037458777428,0.00037875957787036896,-0.0021433476358652115
1761341763576198000,6.479197998046875,-0.00042846472933888435,-0.00005857832729816437,0.0009874398820102215
1761341763586263800,6.489263916015625,0.0009617055766284466,0.0015321271494030952,-0.0027290009893476963
1761341763596330000,6.499330078125,0.001043008640408516,-0.0012370981276035309,-0.0005428087897598743
1761341763606397000,6.50939697265625,-0.0010321266017854214,0.0005416274070739746,0.0010316520929336548
1761341763616462800,6.519462890625,0.003683870192617178,0.0003613913431763649,-0.0013901470229029655
1761341763626529000,6.529529052734375,-0.0022698924876749516,0.001907888799905777,-0.0010364791378378868
1761341763636596000,6.539595947265625,-0.00006700726225972176,-0.0011005289852619171,-0.003786965971812606
1761341763646662000,6.549661865234375,-0.0027924859896302223,0.0007708743214607239,0.0007838178426027298
1761341763656728000,6.55972802734375,0.00014655152335762978,-0.00032456591725349426,-0.0016814619302749634
1761341763666795000,6.569794921875,-0.002737652510404587,-0.00028994493186473846,-0.00015174224972724915
1761341763676861000,6.57986083984375,-0.0008891304023563862,-0.001065921038389206,0.0021191388368606567
1761341763686927000,6.589927001953125,-0.00008139386773109436,0.0011354479938745499,-0.002681475132703781
1761341763696994600,6.59999462890625,0.0001695803366601467,-0.0003232620656490326,0.000792904756963253
1761341763707060500,6.610060546875,-0.0005606585182249546,0.0013681119307875633,0.0018794741481542587
1761341763717127700,6.620127685546875,-0.0016706334426999092,0.0002755187451839447,0.0003036642447113991
1761341763727193600,6.630193603515625,0.0007536420598626137,0.001252366229891777,-0.0005512102507054806
1761341763737259300,6.64025927734375,-0.0002621919848024845,0.0005609840154647827,0.0031870808452367783
1761341763747326700,6.65032666015625,0.001154609490185976,-0.000285102054476738,0.001994783990085125
1761341763757392400,6.660392333984375,-0.0005987244658172131,0.0007579987868666649,-0.0013008401729166508
1761341763767458600,6.67045849609375,0.0017563090659677982,0.0009121960029006004,0.002045155968517065
1761341763777525500,6.680525390625,0.00048100482672452927,-0.0008129365742206573,0.0007952400483191013
1761341763787591400,6.69059130859375,-0.000227395910769701,-0.0003551393747329712,0.0008274647407233715
1761341763797657600,6.70065771484375,0.00143057806417346,0.00030966661870479584,0.00004197750240564346
1761341763807724500,6.710724609375,0.0026934491470456123,-0.0022775940597057343,-0.002823850139975548
1761341763817790500,6.72079052734375,-0.0006921570748090744,-0.001458379440009594,0.0008145575411617756
1761341763827856600,6.730856689453125,-0.0012269197031855583,-0.0009001800790429115,-0.001764714252203703
1761341763837923600,6.740923583984375,-0.0011690035462379456,-0.0007780632004141808,-0.0011386587284505367
1761341763847989500,6.750989501953125,0.0003343508578836918,0.0005886713042855263,-0.002400730736553669
1761341763858056400,6.761056396484375,-0.0016544200479984283,0.0009218528866767883,0.0022485428489744663
1761341763868122600,6.77112255859375,-0.0008344328962266445,0.0010483525693416595,-0.0005243406631052494
1761341763878188500,6.7811884765625,0.0000075194984674453735,0.0001158490777015686,-0.0018130922690033913
1761341763888255500,6.79125537109375,0.0003388170152902603,0.0003603268414735794,0.001306002028286457
1761341763898321400,6.8013212890625,-0.0005867020227015018,0.0019661802798509598,-0.00023312820121645927
1761341763908387300,6.81138720703125,0.0008277026936411858,-0.00230579636991024,-0.0015487298369407654
1761341763918454500,6.82145458984375,0.0025118289049714804,0.0006261011585593224,-0.0002164863981306553
1761341763928520400,6.8315205078125,0.000649746973067522,-0.0018242737278342247,-0.005301525816321373
1761341763938586400,6.84158642578125,0.0021917889825999737,-0.0001857941970229149,-0.0008499692194163799
1761341763948653600,6.851653564453125,0.0004266458563506603,-0.0007003173232078552,0.002325051464140415
1761341763958719500,6.861719482421875,0.00019337143748998642,0.00017281156033277512,-0.0014209812507033348
1761341763968785400,6.871785400390625,-0.00031662359833717346,-0.00015289336442947388,0.0012040967121720314
1761341763978852600,6.8818525390625,0.0004915711469948292,0.0023756949231028557,-0.0010870383121073246
1761341763988918500,6.89191845703125,0.0003096773289144039,-0.001774309203028679,0.001465335488319397
1761341763998985500,6.9019853515625,-0.0013847891241312027,0.003395448438823223,-0.0022591231390833855
1761341764009051600,6.9120517578125,-0.00025507621467113495,-0.0005359100177884102,0.002118314616382122
1761341764019117600,6.92211767578125,0.001122484914958477,-0.0005854768678545952,-0.0038355530705302954
1761341764029184500,6.9321845703125,-0.0007449234835803509,0.0013069650158286095,-0.0006056712009012699
1761341764039250700,6.942250732421875,-0.0001841466873884201,-0.002294146455824375,0.000030216295272111893
1761341764049316400,6.95231640625,0.00020653894171118736,-0.0004536360502243042,0.0010334290564060211
1761341764059383300,6.96238330078125,-0.0022904640063643456,0.0001385258510708809,0.00229811342433095
1761341764069449500,6.972449462890625,0.0004826853983104229,0.0003454536199569702,0.00009035319089889526
1761341764079515400,6.982515380859375,-0.0006619859486818314,0.00007159169763326645,0.0012591765262186527
1761341764089582300,6.992582275390625,0.00035134656354784966,-0.0011196397244930267,-0.00038612447679042816
1761341764099648500,7.0026484375,-0.0005246829241514206,0.0003741290420293808,0.001580879557877779
1761341764109714400,7.01271435546875,-0.0016722390428185463,0.0006604185327887535,-0.0034924428910017014
1761341764119781400,7.022781494140625,0.00033736182376742363,-0.0016452642157673836,-0.0003183414228260517
1761341764129847600,7.03284765625,-0.0014999527484178543,0.0012256233021616936,0.0023647937923669815
1761341764139914500,7.04291455078125,0.0002987128682434559,0.001476583071053028,-0.0018403655849397182
1761341764149980700,7.052980712890625,-0.0011726836673915386,-0.0013927062973380089,-0.0007841559126973152
1761341764160046600,7.063046630859375,0.00001852773129940033,0.0009856540709733963,-0.0009041107259690762
1761341764170113500,7.073113525390625,-0.0015101265162229538,0.0015473151579499245,-0.0007046395912766457
1761341764180179700,7.0831796875,0.0010032951831817627,0.0005201660096645355,0.00015530968084931374
1761341764190245400,7.093245361328125,-0.00003081001341342926,0.00015611201524734497,-0.0003296518698334694
1761341764200312600,7.1033125,0.0014932802878320217,-0.00030303094536066055,0.001833855640143156
1761341764210378500,7.11337841796875,-0.0010377881117165089,-0.0006255395710468292,0.0015347828157246113
1761341764220444400,7.1234443359375,0.0015790220350027084,-0.0016059083864092827,-0.00045286351814866066
1761341764230511400,7.133511474609375,-0.0011363369412720203,-0.0005960371345281601,0.00007896963506937027
1761341764240577500,7.14357763671875,0.002519174013286829,-0.00023462343961000443,0.0027505354955792427
1761341764250643500,7.1536435546875,-0.0008989931084215641,-0.002109754830598831,-0.0017043999396264553
1761341764260710400,7.16371044921875,-0.0011970666237175465,0.0008467817679047585,0.00023779692128300667
1761341764270776600,7.173776611328125,0.0008863243274390697,-0.0015087835490703583,0.001256456132978201
1761341764280843500,7.183843505859375,0.0015799077227711678,-0.0008185571059584618,0.0024746060371398926
1761341764290909400,7.193909423828125,0.0014496790245175362,0.0005369922146201134,0.00020133145153522491
1761341764300975600,7.2039755859375,-0.000021746382117271423,-0.002093088813126087,-0.00045636389404535294
1761341764311042600,7.21404248046875,-0.0003320048563182354,-0.00012075155973434448,0.00014843977987766266
1761341764321108500,7.2241083984375,-0.0005340622738003731,0.0014633452519774437,0.0004198090173304081
1761341764331174700,7.234174560546875,0.0003232094459235668,0.0016380483284592628,0.0006664176471531391
1761341764341241600,7.24424169921875,0.0012857373803853989,0.0011102966964244843,-0.0004194555804133415
1761341764351307500,7.2543076171875,0.0009725494310259819,0.0007771356031298637,-0.0011816523037850857
1761341764361373400,7.26437353515625,-0.00015950249508023262,-0.00008909590542316437,-0.0009600375778973103
1761341764371440400,7.2744404296875,-0.0028082821518182755,0.000010506249964237213,-0.0008292766287922859
1761341764381506600,7.284506591796875,0.0002293144352734089,0.00025255605578422546,-0.0008742902427911758
1761341764391572500,7.294572509765625,0.0011206744238734245,-0.0007780874148011208,-0.002715866081416607
1761341764401639400,7.304639404296875,0.0009005996398627758,-0.000017072074115276337,0.0004570595920085907
1761341764411705600,7.31470556640625,-0.000036300159990787506,0.000688931904733181,0.0019047539681196213
1761341764421771500,7.324771484375,0.0007511172443628311,0.0004199407994747162,-0.002556640189141035
1761341764431838500,7.33483837890625,-0.001654516439884901,-0.0023361649364233017,-0.0015627485699951649
1761341764441904600,7.344904541015625,0.0013916566967964172,0.0016935979947447777,0.00005194498226046562
1761341764451971600,7.3549716796875,0.0016499832272529602,0.0003092866390943527,-0.00010544806718826294
1761341764462037500,7.36503759765625,-0.0000891098752617836,-0.002413548529148102,0.0003984607756137848
1761341764472103700,7.375103759765625,0.0009535178542137146,0.0009241914376616478,-0.0027512595988810062
1761341764482170600,7.385170654296875,0.00007814541459083557,-0.0003347797319293022,0.00024933042004704475
1761341764492236500,7.395236572265625,-0.00043211597949266434,-0.0007971050217747688,0.0030885268934071064
1761341764502302500,7.405302490234375,-0.0019424008205533028,0.00035799480974674225,-0.0002071307972073555
1761341764512369400,7.415369384765625,0.0005817431956529617,-0.001293165609240532,0.002580665983259678
1761341764522435300,7.425435302734375,-0.00015850365161895752,0.0007137469947338104,0.003056600224226713
1761341764532501500,7.43550146484375,0.0011155526153743267,0.0004101470112800598,0.0009263376705348492
1761341764542568400,7.445568359375,0.0005518724210560322,0.0008205845952033997,-0.0016700117848813534
1761341764552634400,7.45563427734375,0.0014000888913869858,-0.0008968878537416458,-0.00041406508535146713
1761341764562700500,7.465700439453125,-0.0005096117965877056,0.0011856211349368095,-0.0019005658105015755
1761341764572767500,7.475767578125,0.0009857527911663055,-0.00020827725529670715,-0.00018975138664245605
1761341764582833400,7.48583349609375,0.0000033481046557426453,-0.00010721944272518158,-0.0014370149001479149
1761341764592900600,7.495900634765625,-0.00004751840606331825,0.0025689909234642982,0.002123099286109209
1761341764602966500,7.505966552734375,0.00011447397992014885,-0.0029395530000329018,0.0016467529349029064
1761341764613032700,7.51603271484375,-0.0004368005320429802,-0.0014734826982021332,0.0022297189570963383
1761341764623099600,7.526099609375,-0.0014434889890253544,-0.001335402950644493,-0.0008633635006844997
1761341764633165600,7.53616552734375,0.0009312517940998077,-0.0030169226229190826,-0.0008162255398929119
1761341764643231500,7.5462314453125,-0.0009732148610055447,-0.0003886781632900238,0.002871748525649309
1761341764653298700,7.556298583984375,-0.0002770642749965191,0.0006885705515742302,0.00104242330417037
1761341764663364400,7.5663642578125,-0.0015947390347719193,0.00036577507853507996,0.0015937224961817265
1761341764673430500,7.576430419921875,-0.00022081425413489342,-0.0003258483484387398,-0.0005716937594115734
1761341764683497500,7.58649755859375,-0.0017384430393576622,-0.0006204387173056602,-0.0013315733522176743
1761341764693563000,7.59656298828125,-0.001174385193735361,0.0013827905058860779,0.0000314321368932724
1761341764703629000,7.606629150390625,-0.0027494397945702076,-0.002704777754843235,-0.0007817256264388561
1761341764713696000,7.616696044921875,-0.0004756329581141472,-0.001270132139325142,-0.0015287422575056553
1761341764723762000,7.626761962890625,0.00018630176782608032,0.00012325216084718704,-0.0003754575736820698
1761341764733828000,7.636828125,-0.0011039995588362217,-0.002529256045818329,0.0009161755442619324
1761341764743895000,7.64689501953125,0.0012178807519376278,0.0005542179569602013,0.00117975240573287
1761341764753961000,7.6569609375,0.0010056267492473125,-0.0019504847005009651,-0.0008487771265208721
1761341764764028200,7.667028076171875,0.0015274090692400932,0.00044527649879455566,-0.00008357875049114227
1761341764774094000,7.677093994140625,0.0006464356556534767,-0.000905744731426239,0.0009286892600357533
1761341764784160300,7.68716015625,-0.0004293336533010006,-0.0019195051863789558,0.00010841013863682747
1761341764794227200,7.697227294921875,0.001775230746716261,-0.002787962555885315,0.0004468974657356739
1761341764804293000,7.707293212890625,0.001034698449075222,0.0025681862607598305,0.0027041668072342873
1761341764814359300,7.717359375,0.00016837241128087044,0.000646449625492096,0.0028596948832273483
1761341764824426200,7.72742626953125,-0.00024003535509109497,-0.00040093809366226196,0.0004883110523223877
1761341764834492200,7.7374921875,-0.0025125104002654552,-0.0015996266156435013,-0.001729303039610386
1761341764844558000,7.74755810546875,-0.0014374935999512672,0.001265152357518673,-0.0022335019893944263
1761341764854625000,7.757625,0.0028121122159063816,0.0017818063497543335,0.0009439149871468544
1761341764864691000,7.76769091796875,0.001801712904125452,-0.0006011547520756721,-0.00017376523464918137
1761341764874757000,7.777757080078125,0.000218996312469244,-0.0004714587703347206,-0.007874295115470886
1761341764884824000,7.787823974609375,-0.0009951703250408173,0.0015583047643303871,0.00014844583347439766
1761341764894890000,7.797889892578125,-0.0020444560796022415,0.002599867060780525,0.001142870169132948
1761341764904957200,7.807957275390625,-0.0004255804233253002,0.0012793811038136482,0.002337778452783823
1761341764915023000,7.818023193359375,-0.0004335702396929264,-0.0025864634662866592,0.0009452118538320065
1761341764925089000,7.828089111328125,0.0023690511006861925,0.00012520886957645416,0.00314014358446002
1761341764935156200,7.83815625,-0.0005527026951313019,-0.00043804943561553955,0.0015033646486699581
1761341764945222100,7.84822216796875,0.0014657163992524147,-0.0014067934826016426,-0.0016301176510751247
1761341764955288000,7.8582880859375,-0.0009036981500685215,0.0007040277123451233,-0.0010641957633197308
1761341764965355300,7.868355224609375,0.0026753502897918224,-0.00034218840301036835,-0.002523793838918209
1761341764975421200,7.878421142578125,-0.0004940778017044067,-0.0015999991446733475,-0.000411108136177063
1761341764985487000,7.888487060546875,0.0004906351678073406,-0.0017849914729595184,0.0017049824818968773
1761341764995554300,7.89855419921875,-0.00046810274943709373,-0.0007317112758755684,0.0005129510536789894
1761341765005620000,7.908619873046875,0.0000650486908853054,-0.0018585296347737312,-0.000026267021894454956
1761341765015686100,7.91868603515625,-0.0009562731720507145,-0.0003754151985049248,-0.00011281995102763176
1761341765025753000,7.928753173828125,-0.0004000444896519184,-0.000894700177013874,-0.0011043772101402283
1761341765035819000,7.938819091796875,-0.00013159774243831635,0.0005972031503915787,-0.0025749746710062027
1761341765045885200,7.94888525390625,-0.0013513611629605293,0.0004684031009674072,0.0024212286807596684
1761341765055952100,7.9589521484375,-0.0034392797388136387,-0.0009428057819604874,0.0012020333670079708
1761341765066018000,7.96901806640625,-0.0027324161492288113,0.001775701530277729,-0.0011545526795089245
1761341765076084200,7.979084228515625,-0.0020967195741832256,0.0005716858431696892,0.0007554665207862854
1761341765086151200,7.989151123046875,0.0002124374732375145,-0.0015226677060127258,-0.002058716956526041
1761341765096217000,7.999217041015625,-0.0016754772514104843,0.0003085220232605934,-0.00043898262083530426
1761341765106284000,8.009283935546875,0.00037114787846803665,0.0022714175283908844,0.00027357228100299835
1761341765116350200,8.01935009765625,0.0007117665372788906,0.00042398273944854736,0.001032041385769844
1761341765126416100,8.029416015625,-0.00022648274898529053,-0.00035909097641706467,-0.0006446358747780323
1761341765136483000,8.039483154296875,0.0001229243353009224,-0.0004552314057946205,0.0005868100561201572
1761341765146549000,8.049549072265625,-0.001277778297662735,0.00011818483471870422,-0.000019169878214597702
1761341765156615000,8.059614990234374,0.0006737858057022095,0.000557873398065567,-0.0008010738529264927
1761341765166682000,8.06968212890625,0.0004060603678226471,0.0023448141291737556,0.0031611337326467037
1761341765176748000,8.079748046875,0.0032559088431298733,0.00031735002994537354,-0.003040303010493517
1761341765186814000,8.08981396484375,-0.0026604230515658855,-0.0000548018142580986,0.0005811434239149094
1761341765196881200,8.099881103515624,-0.0012774430215358734,-0.0006718561053276062,-0.002739285584539175
1761341765206947000,8.109947021484375,-0.002366689033806324,-0.0017853006720542908,0.00038691796362400055
1761341765217013200,8.12001318359375,-0.0007349704392254353,-0.0026095490902662277,0.0005230056121945381
1761341765227080200,8.130080078125,-0.0008562975563108921,0.00007508974522352219,0.002164746169000864
1761341765237146000,8.14014599609375,-0.0005918457172811031,-0.0009707333520054817,-0.0010249223560094833
1761341765247212300,8.15021240234375,-0.0015560346655547619,0.0027495436370372772,-0.0013501616194844246
1761341765257279200,8.160279296875,-0.0025206319987773895,0.000824877992272377,0.0014381678774952888
1761341765267345200,8.17034521484375,0.0004179798997938633,0.00016801804304122925,0.0007050260901451111
1761341765277412000,8.180412109375,-0.0004089316353201866,-0.0009819352999329567,0.002324494533240795
1761341765287478300,8.190478271484375,0.0009316247887909412,0.00006344914436340332,-0.00042126188054680824
1761341765297544000,8.2005439453125,-0.0002702595666050911,0.0029420610517263412,-0.0006580166518688202
1761341765307611000,8.21061083984375,0.002577906707301736,0.00043185893446207047,0.0016234028153121471
1761341765317677000,8.220677001953124,0.0008556405082345009,-0.0005931910127401352,-0.0007569305598735809
1761341765327743000,8.230742919921875,-0.0009338431991636753,-0.0012538926675915718,0.001327401027083397
1761341765337810000,8.240809814453126,0.0017940327525138855,-0.0015148818492889404,0.0024294164031744003
1761341765347876000,8.2508759765625,-0.000146523118019104,0.002995547838509083,0.00010072393342852592
1761341765357942000,8.26094189453125,0.00032565556466579437,0.00153267290443182,-0.0027376729995012283
1761341765368009200,8.27100927734375,0.0012638764455914497,-0.0010000551119446754,-0.0010940390639007092
1761341765378075100,8.2810751953125,-0.00018408428877592087,-0.00028659403324127197,0.0022245263680815697
1761341765388141000,8.29114111328125,-0.002649189904332161,-0.00035895127803087234,0.0011654333211481571
1761341765398208300,8.301208251953126,0.0009798994287848473,0.0025002174079418182,-0.000615688506513834
1761341765408274200,8.311274169921875,-0.0028479918837547302,0.0005071451887488365,0.00019392138347029686
1761341765418340000,8.321340087890626,-0.0024866005405783653,-0.000626295804977417,0.0004927283152937889
1761341765428407300,8.3314072265625,0.0005517494864761829,-0.00041287951171398163,0.0033134883269667625
1761341765438473000,8.341472900390626,-0.0008123219013214111,0.0007541170343756676,0.0003696298226714134
1761341765448540000,8.351539794921875,0.0029387730173766613,-0.0020206980407238007,-0.00393820833414793
1761341765458606000,8.361606201171876,-0.002825905103236437,0.0006384681910276413,0.0015154127031564713
1761341765468673000,8.371673095703125,0.002249527722597122,0.0003092121332883835,0.00007292302325367928
1761341765478739000,8.381739013671876,0.00044283922761678696,0.000383780337870121,0.0017211535014212132
1761341765488806000,8.391805908203125,0.0013399277813732624,0.0018288223072886467,0.00026785628870129585
1761341765498872000,8.4018720703125,0.0028315645176917315,0.001728154718875885,0.0006225896067917347
1761341765508938000,8.41193798828125,-0.0003477749414741993,-0.0011648721992969513,-0.000772328581660986
1761341765519005200,8.422005126953126,-0.0021651163697242737,0.000119037926197052,-0.0007267887704074383
1761341765529071000,8.432071044921875,0.0016671610064804554,-0.0005568210035562515,0.0029317457228899
1761341765539137000,8.442136962890626,0.0004820539616048336,0.0006210952997207642,0.0007764501497149467
1761341765549204200,8.452204345703125,0.0021806862205266953,-0.0007283147424459457,0.0016435496509075165
1761341765559270100,8.462270263671876,0.0009998409077525139,0.0010733138769865036,0.0009330175817012787
1761341765569336000,8.472336181640625,0.0014697429724037647,-0.0011527612805366516,0.001298723742365837
1761341765579403300,8.4824033203125,0.00041939225047826767,0.0010036006569862366,-0.0004262058064341545
1761341765589469200,8.49246923828125,0.001691687386482954,0.000499233603477478,0.00022773444652557373
1761341765599535000,8.50253515625,0.0018831687048077583,0.0008734073489904404,-0.00005109887570142746
1761341765609602000,8.51260205078125,0.0007341373711824417,0.0038678469136357307,0.002247684635221958
1761341765619668000,8.52266796875,0.002190087456256151,-0.0007961476221680641,0.0007203612476587296
1761341765629734100,8.532734130859374,0.0021841139532625675,0.0001109270378947258,-0.0005550370551645756
1761341765639801000,8.542801025390625,0.0037034472916275263,0.0009152013808488846,0.0005887905135750771
1761341765649867000,8.552866943359374,0.0007753623649477959,0.0004609161987900734,-0.0023624124005436897
1761341765659933200,8.56293310546875,0.0002656332217156887,0.00008381251245737076,0.0023923958651721478
1761341765670000000,8.573000244140625,0.0014749513939023018,0.012560434639453888,0.0068727172911167145
1761341765680066000,8.583066162109375,-0.0008574449457228184,0.0035158079117536545,0.001443331129848957
1761341765690133500,8.593133544921875,0.000671908725053072,0.0019262256100773811,0.00047366926446557045
1761341765700199700,8.60319970703125,0.0020876452326774597,-0.0022410880774259567,0.00028032390400767326
1761341765710265600,8.613265625,0.0016900524497032166,-0.0011820700019598007,-0.0029490413144230843
1761341765720332500,8.62333251953125,-0.0004620482213795185,-0.005079073831439018,-0.00044220779091119766
1761341765730398700,8.633398681640625,0.0006639468483626842,-0.0020592622458934784,0.00012146309018135071
1761341765740464600,8.643464599609375,0.00158646609634161,0.0030971504747867584,-0.00045564398169517517
1761341765750531600,8.653531494140625,0.00028987787663936615,-0.0002174563705921173,-0.00016477657482028008
1761341765760597800,8.66359765625,0.0005460740067064762,-0.0013333214446902275,0.0033543240278959274
1761341765770663400,8.673663330078124,0.0001095193438231945,-0.0016633300110697746,-0.0004514046013355255
1761341765780730400,8.68373046875,-0.0026676245033740997,0.001257091760635376,-0.00246635265648365
1761341765790796500,8.693796630859374,0.0026216439437121153,0.001271403394639492,0.0026673725806176662
1761341765800862500,8.703862548828125,0.003655216656625271,-0.00154036283493042,0.0007949047721922398
1761341765810929700,8.7139296875,-0.00005616620182991028,0.0014214804396033287,0.0010763369500637054
1761341765820995600,8.72399560546875,0.0001909751445055008,0.0006073517724871635,0.0012478446587920189
1761341765831062500,8.7340625,-0.0009595924057066441,-0.00001134723424911499,-0.0006937216967344284
1761341765841128700,8.744128662109375,0.00037331972271203995,0.0007148971781134605,-0.001615175511687994
1761341765851194600,8.754194580078124,0.0019296621903777122,0.0006159599870443344,0.0010971808806061745
1761341765861261600,8.764261474609375,-0.00261235935613513,0.0014766938984394073,-0.0005497178062796593
1761341765871327700,8.77432763671875,0.0003023352473974228,0.0008959770202636719,0.00036060716956853867
1761341765881393700,8.7843935546875,-0.00010299775749444962,-0.0010577179491519928,-0.00008387397974729538
1761341765891460600,8.794460693359374,-0.0013041291385889053,-0.0021381694823503494,0.0008851145394146442
1761341765901526800,8.80452685546875,-0.0008335486054420471,-0.001966129057109356,0.0017029712907969952
1761341765911592400,8.814592529296876,-0.000420386902987957,0.0007607825100421906,-0.0004958915524184704
1761341765921659600,8.82465966796875,-0.0005002818070352077,-0.000169459730386734,-0.0003028125502169132
1761341765931725600,8.8347255859375,-0.001473644282668829,0.0003980165347456932,0.0014016292989253998
1761341765941791500,8.84479150390625,0.00038790563121438026,0.002034262754023075,0.004129238426685333
1761341765951858400,8.8548583984375,0.00018127216026186943,0.000766516663134098,-0.0015667579136788845
1761341765961924600,8.864924560546875,0.0017733094282448292,0.0008972771465778351,-0.0017419937066733837
1761341765971990500,8.874990478515626,-0.002627624198794365,0.000021000392735004425,-0.0017463397234678268
1761341765982057500,8.885057373046875,-0.001103231217712164,0.0010636281222105026,0.001539202407002449
1761341765992123600,8.89512353515625,-0.0006512664258480072,0.0025723017752170563,-0.0007540709339082241
1761341766002189600,8.905189453125,-0.0007830928079783916,0.001300908625125885,0.00003182794898748398
1761341766012256500,8.915256591796876,0.0025639438536018133,0.0005301181226968765,0.0019278423860669136
1761341766022322700,8.92532275390625,-0.0004345094785094261,-0.00043101608753204346,0.0003259507939219475
1761341766032389600,8.9353896484375,-0.00341680645942688,-0.0012982310727238655,-0.002875017933547497
1761341766042455600,8.94545556640625,0.0003260001540184021,-0.0012673381716012955,0.0018560881726443768
1761341766052521700,8.955521728515626,0.00038263527676463127,0.00015584193170070648,-0.0012799445539712906
1761341766062588700,8.965588623046875,0.0018548308871686459,0.0009374804794788361,-0.000574739184230566
1761341766072654600,8.975654541015626,0.0028134086169302464,-0.001920037902891636,-0.00001623528078198433
1761341766082720500,8.985720458984375,0.001063179224729538,-0.001994074322283268,-0.001731843687593937
1761341766092787500,8.995787353515626,0.0025593580212444067,-0.0008267806842923164,-0.001130716409534216
1761341766102853600,9.005853515625,0.0006975419819355011,-0.002002033405005932,-0.002390923909842968
1761341766112919600,9.01591943359375,0.0016712076030671597,-0.0009306101128458977,-0.0013676346279680729
1761341766122986500,9.025986572265625,-0.0008369577117264271,0.0011668950319290161,0.0020212382078170776
1761341766133052700,9.036052734375,-0.0005238624289631844,-0.0019201617687940598,0.001978137996047735
1761341766143118600,9.04611865234375,0.0008689709939062595,0.0008141053840517998,0.0013624145649373531
1761341766153185500,9.056185546875,-0.0004914673045277596,0.0025301529094576836,0.0021978821605443954
1761341766163251700,9.066251708984375,-0.000397990457713604,-0.001970590092241764,-0.0010192166082561016
1761341766173317600,9.076317626953125,0.0012765023857355118,0.0009319931268692017,0.0024196146987378597
1761341766183384600,9.086384521484375,-0.0009331223554909229,0.0015727495774626732,-0.0021080253645777702
1761341766193450800,9.09645068359375,-0.0008657248690724373,-0.0022423481568694115,-0.0008127628825604916
1761341766203516400,9.106516357421874,0.00040726596489548683,-0.0003344593569636345,0.0003273366019129753
1761341766213583600,9.11658349609375,0.000645217951387167,0.0010227113962173462,0.0011639711447060108
1761341766223649500,9.1266494140625,-0.002079728990793228,0.002898109145462513,-0.0016608438454568386
1761341766233715500,9.136715576171875,-0.0014321403577923775,0.001966482028365135,-0.0007774471305310726
1761341766243782400,9.146782470703124,-0.0015514497645199299,-0.0006617922335863113,0.0003274986520409584
1761341766253848600,9.1568486328125,0.0014431467279791832,-0.0004911273717880249,0.0024766498245298862
1761341766263915500,9.16691552734375,-0.0017981869168579578,-0.0022770436480641365,0.0001005777157843113
1761341766273981700,9.176981689453125,-0.0006498843431472778,0.0011277170851826668,0.0002822829410433769
1761341766284047600,9.187047607421874,-0.0013641444966197014,-0.0017985645681619644,0.003545188345015049
1761341766294114600,9.197114501953125,0.0026046375278383493,-0.0008641527965664864,0.0025831134989857674
1761341766304180700,9.2071806640625,-0.0005637248978018761,-0.0007677460089325905,-0.0016941893845796585
1761341766314246700,9.21724658203125,0.0013472307473421097,-0.0016659228131175041,0.0007076296024024487
1761341766324313600,9.227313720703124,-0.0012661293148994446,0.0022981930524110794,-0.0024098665453493595
1761341766334379800,9.2373798828125,0.0026009336579591036,0.0009721126407384872,0.0009359139949083328
1761341766344445700,9.24744580078125,0.0003220667131245136,-0.00029954686760902405,-0.0025142114609479904
1761341766354512600,9.2575126953125,-0.0008015693165361881,-0.0008900053799152374,-0.0018496578559279442
1761341766364578600,9.26757861328125,-0.001914770808070898,-0.00027534831315279007,-0.002189211081713438
1761341766374644500,9.27764453125,-0.0011125029996037483,-0.0007169656455516815,0.0031262822449207306
1761341766384711400,9.28771142578125,0.0003682142123579979,-0.00208955816924572,0.00206740852445364
1761341766394777600,9.297777587890625,0.00015303399413824081,-0.0008843839168548584,0.0029850159771740437
1761341766404843500,9.307843505859376,0.001679824199527502,0.00037875305861234665,0.002067557070404291
1761341766414910500,9.317910400390625,0.0002600252628326416,-0.0003290986642241478,-0.0007704854942858219
1761341766424976600,9.3279765625,0.0004914538003504276,0.0015617460012435913,0.001382147427648306
1761341766435042600,9.33804248046875,-0.0036362912505865097,0.002654056064784527,-0.00035913800820708275
1761341766445109500,9.348109619140626,0.0008367542177438736,0.0005672033876180649,-0.003156788647174835
1761341766455175700,9.35817578125,-0.0006833397783339024,0.0010229842737317085,-0.00012189708650112152
1761341766465241600,9.36824169921875,0.0023143142461776733,0.0006703818216919899,-0.0014990177005529404
1761341766475308500,9.37830859375,-0.0022295438684523106,0.0018981453031301498,0.001679503358900547
1761341766485374700,9.388374755859376,0.0022797202691435814,-0.0006531625986099243,-0.0003711311146616936
1761341766495440400,9.3984404296875,0.0012703766115009785,-0.0008843522518873215,-0.0018887687474489212
1761341766505507600,9.408507568359376,0.00032548699527978897,0.000036036595702171326,-0.001646154560148716
1761341766515573500,9.418573486328125,-0.00012955022975802422,0.0011177361011505127,-0.0021739667281508446
1761341766525640400,9.428640380859376,-0.00021636951714754105,-0.0004884162917733192,0.0021275714971125126
1761341766535706600,9.43870654296875,0.001983383670449257,0.00045343488454818726,-0.00267562223598361
1761341766545772500,9.4487724609375,0.0005434127524495125,0.0007170876488089561,0.0015390967018902302
1761341766555839500,9.458839599609375,-0.0008650184608995914,0.0003503868356347084,-0.0011299164034426212
1761341766565905700,9.46890576171875,0.000380542129278183,-0.0032965457066893578,-0.002496650442481041
1761341766575971600,9.4789716796875,-0.0007586246356368065,-0.002273254096508026,0.00046302052214741707
1761341766586038500,9.48903857421875,0.0006845421157777309,-0.000028741545975208282,-0.0006416589021682739
1761341766596104700,9.499104736328125,-0.0006162920035421848,-0.0003621922805905342,-0.0008923620916903019
1761341766606170600,9.509170654296875,0.00019916798919439316,0.0011595375835895538,-0.0010747886262834072
1761341766616237600,9.519237548828125,-0.00047722458839416504,0.0024161459878087044,0.0007004220969974995
1761341766626303700,9.5293037109375,0.0005630059167742729,0.000306922011077404,-0.00018747569993138313
1761341766636369700,9.53936962890625,0.0005716579034924507,0.0021180259063839912,-0.0006611323915421963
1761341766646436600,9.5494365234375,0.0005684620700776577,0.00002877693623304367,0.0016851122491061687
1761341766656502500,9.55950244140625,0.0012482698075473309,-0.0011051306501030922,0.002312309108674526
1761341766666568400,9.569568359375,-0.0001176656223833561,0.00035028625279664993,-0.0020329048857092857
1761341766676635400,9.579635498046875,-0.0014866986311972141,-0.0020410753786563873,0.00155980559065938
1761341766686701600,9.58970166015625,0.000053141266107559204,-0.0001225341111421585,0.0008471435867249966
1761341766696766700,9.5997666015625,0.00009779492393136024,-0.002107091248035431,-0.0015848977491259575
1761341766706833700,9.609833740234375,0.0017620041035115719,0.0010876376181840897,0.0011110198684036732
1761341766716899600,9.619899658203124,-0.001234814990311861,-0.0005286335945129395,-0.0019832500256597996
1761341766726965800,9.6299658203125,-0.0011280220933258533,0.0005283746868371964,-0.0021979007869958878
1761341766737032700,9.64003271484375,0.00030521396547555923,0.0020067123696208,0.00046553835272789
1761341766747098600,9.6500986328125,0.00028603896498680115,-0.00008546654134988785,-0.0016194507479667664
1761341766757164500,9.66016455078125,0.0010529966093599796,-0.001687777228653431,0.0002802778035402298
1761341766767231700,9.670231689453125,-0.00047006504610180855,-0.0002813618630170822,0.0002672281116247177
1761341766777297400,9.68029736328125,0.00093083456158638,-0.0016603004187345505,-0.0014340323396027088
1761341766787364600,9.690364501953125,-0.0012830509804189205,-0.0004253927618265152,-0.0006827549077570438
1761341766797430500,9.700430419921876,0.0015039807185530663,0.0022437646985054016,-0.0012297970242798328
1761341766807496400,9.710496337890625,-0.0015013967640697956,-0.00013230741024017334,-0.00009635556489229202
1761341766817563600,9.720563720703124,-0.0023538735695183277,0.00018997397273778915,0.001123813446611166
1761341766827629600,9.730629638671875,-0.000035591889172792435,-0.0006971247494220734,-0.0037939799949526787
1761341766837695500,9.740695556640626,-0.0008133072406053543,0.001194242388010025,-0.0003334544599056244
1761341766847762700,9.7507626953125,-0.00026389723643660545,-0.0008710389956831932,-0.0019276225939393044
1761341766857828600,9.76082861328125,-0.0011890693567693233,-0.001149662770330906,-0.0000616973266005516
1761341766867894500,9.77089453125,-0.00043672602623701096,-0.00009212177246809006,0.0004544234834611416
1761341766877961700,9.780961669921876,-0.0002825167030096054,-0.002837415784597397,-0.0022423788905143738
1761341766888027600,9.791027587890625,0.00044692307710647583,-0.0007399097084999084,0.002373145427554846
1761341766898093800,9.80109375,-0.00005203206092119217,0.0017348993569612503,-0.0022756927646696568
1761341766908160800,9.811160888671875,-0.0012922659516334534,-0.0004062829539179802,0.0011446047574281693
1761341766918226400,9.821226318359376,0.0012340913526713848,-0.0002453327178955078,-0.0025668228045105934
1761341766928292600,9.831292724609375,-0.00043491180986166,-0.0023614801466464996,0.001031374093145132
1761341766938359600,9.841359619140626,0.0005499226972460747,0.0003096889704465866,-0.0012103980407118797
1761341766948425500,9.851425537109375,-0.0007113502360880375,0.0005765371024608612,0.00016592349857091904
1761341766958491600,9.86149169921875,-0.0007600937969982624,-0.0021188780665397644,0.0001554340124130249
1761341766968558600,9.87155859375,0.0020135887898504734,0.00047397520393133163,0.00006355438381433487
1761341766978624500,9.88162451171875,-0.003124858718365431,0.0013973526656627655,0.0017452766187489033
1761341766988690700,9.891690673828125,0.0011758804321289062,0.001569659449160099,0.00004484783858060837
1761341766998757600,9.901757568359375,0.0012435242533683777,0.0016512321308255196,-0.0016562733799219131
1761341767008823600,9.911823486328124,-0.000002302229404449463,-0.0006236406043171883,0.0007443004287779331
1761341767018889700,9.9218896484375,-0.0014635492116212845,0.032339856028556824,0.012032287195324898
1761341767028956700,9.931956787109375,-0.00010240776464343071,-0.0053414758294820786,-0.0027527841739356518
1761341767039022600,9.942022705078125,0.0015258756466209888,0.003283352591097355,0.00012116692960262299
1761341767049088500,9.952088623046874,0.0008355844765901566,0.0006974237039685249,0.003018153365701437
1761341767059155700,9.96215576171875,-0.00023735221475362778,-0.0009532282128930092,0.0011355201713740826
1761341767069221400,9.972221435546874,0.00022736936807632446,-0.0016235457733273506,-0.0006919410079717636
1761341767079288600,9.98228857421875,-0.00016406970098614693,-0.004540260881185532,-0.003406723029911518
1761341767089354500,9.9923544921875,-0.0014594313688576221,-0.004132264293730259,0.000294538214802742
1761341767099420700,10.002420654296875,0.0007632635533809662,-0.006324390880763531,-0.002051149494946003
1761341767109487600,10.012487548828124,0.0012769871391355991,-0.006189901381731033,-0.004854659084230661
1761341767119553500,10.022553466796875,-0.0004312843084335327,0.0002726539969444275,0.0011226162314414978
1761341767129619700,10.03261962890625,0.0008022920228540897,-0.0003646407276391983,-0.0006068400107324123
