time,seconds_elapsed,z,y,x
1761338299818862300,0.0728623046875,1.0621043306112288,-0.10431582226008176,1.1339755347318947
1761338299828928500,0.082928466796875,0.7408838332653045,-0.2348052560986951,1.4237868944659828
1761338299838993700,0.09299365234375,-0.07301847445964812,-0.11953779518082737,1.6186583091810345
1761338299849059600,0.1030595703125,-0.8973977525353432,0.3015774931125343,1.7478545979365705
1761338299859125500,0.11312548828125,-1.5105530315101146,0.6436007591862231,2.007062145092338
1761338299869190400,0.1231904296875,-1.7809119411468506,0.9153749424483627,2.2983918004348873
1761338299879256600,0.133256591796875,-1.586685838598013,1.1228873736802487,2.397633826562017
1761338299889322500,0.143322509765625,-1.014658104303479,1.1773170291345565,2.281313239862025
1761338299899387600,0.1533876953125,-0.27921090913414953,1.1260304209463297,2.02015558155179
1761338299909453600,0.16345361328125,0.4091267443358898,0.9795925630759448,1.7364096593365073
1761338299919518700,0.173518798828125,1.0459686038464306,0.7077735177587717,1.5114841748803853
1761338299929584400,0.18358447265625,1.5174819539904594,0.3835409060500562,1.3568008320383727
1761338299939650600,0.193650634765625,1.8283733650237322,0.1576548694660887,1.149637579570338
1761338299949715700,0.2037158203125,1.9891665690481661,-0.06590777937134262,0.9916280879803001
1761338299959781600,0.21378173828125,1.9072312131613491,-0.2900555620198138,0.8319912874493748
1761338299969847600,0.22384765625,1.6282196259915829,-0.46617531358432024,0.6678143592707813
1761338299979912400,0.233912353515625,1.1574100402027367,-0.5083779766827822,0.4519261677511036
1761338299989978600,0.243978515625,0.6014578269183636,-0.4879865287022665,0.27323256537690754
1761338300000043500,0.25404345703125,-0.004932195705175399,-0.49106604574546214,0.2448791620738804
1761338300010109700,0.264109619140625,-0.7097633033365011,-0.5421042686631903,0.36202889307439323
1761338300020175600,0.274175537109375,-1.267642685291171,-0.47362044195849445,0.4376286161988973
1761338300030240500,0.284240478515625,-1.5799533154726026,-0.29850526432665064,0.47725306283980606
1761338300040306700,0.294306640625,-1.6244161420553922,-0.1053877806068398,0.6411559233173728
1761338300050371600,0.30437158203125,-1.462565537932515,0.007814055301400367,0.7975479697734117
1761338300060437800,0.314437744140625,-1.1949375145643948,0.08107217231937684,0.83867916771546
1761338300070503700,0.324503662109375,-0.7981435975790023,0.07403390314646531,0.7592880894839763
1761338300080568600,0.334568603515625,-0.4963648828059435,-0.006825315975397825,0.6420435198068618
1761338300090634500,0.344634521484375,-0.1907727472245693,0.039412493523815643,0.42179815599098797
1761338300100700700,0.35470068359375,0.18569032939374447,0.06554744445923716,0.1274649349182844
1761338300110765600,0.364765625,0.4706979421079158,0.08391631883727386,-0.02130202348679304
1761338300120831500,0.37483154296875,0.5497808311730623,0.16549688820336014,0.03706584819927811
1761338300130896600,0.384896728515625,0.31284839031994344,0.20534579124990848,0.14790069696456193
1761338300140962600,0.394962646484375,-0.2853554032385349,0.1825690555680543,0.2595923086896539
1761338300151028700,0.40502880859375,-1.0243705200225115,0.2737065943631343,0.2648312322564423
1761338300161093600,0.41509375,-1.67686412217319,0.41957258889600635,0.18387611957862973
1761338300171159600,0.42515966796875,-2.120273075339198,0.5879663675846531,0.13432488381564617
1761338300181225500,0.4352255859375,-2.3248037142813205,0.7071089163701981,0.16731369183436035
1761338300191290600,0.44529052734375,-2.301149282449484,0.780525523301959,0.2620985924221575
1761338300201356500,0.4553564453125,-1.9847668727844952,0.8370464519470929,0.180777861302346
1761338300211422700,0.465422607421875,-1.3516606926709414,0.8392876550026237,-0.08662994344383478
1761338300221487600,0.475487548828125,-0.615254297080636,0.7592775680899619,-0.3509956040151417
1761338300231553500,0.485553466796875,0.10693827971816063,0.5477721947643905,-0.6011470074035227
1761338300241618700,0.49561865234375,0.8002683346480131,0.3004324695295654,-0.8941793750107287
1761338300251684600,0.5056845703125,1.4262638059735298,0.09398980468735098,-1.1722073579706251
1761338300261750800,0.515750732421875,1.8830717544168232,-0.09363819650439545,-1.2247123289726674
1761338300271815400,0.5258154296875,2.231201885998249,-0.2830389247233979,-1.115783752220124
1761338300281881600,0.535881591796875,2.4525860445857046,-0.3539145967343822,-0.926308351329714
1761338300291947500,0.545947509765625,2.417515900248289,-0.4549498629538342,-0.7325431442908942
1761338300302012700,0.5560126953125,2.1166987239837645,-0.49835222069825974,-0.5209808531463146
1761338300312078600,0.56607861328125,1.741066837492585,-0.5125443025819957,-0.2738297275524586
1761338300322143500,0.5761435546875,1.3900889152646063,-0.5276879130369052,-0.049026554301753636
1761338300332209700,0.586209716796875,1.0228659606784583,-0.4301103860558942,0.2281172662347555
1761338300342275600,0.596275634765625,0.7285457452178001,-0.18247843640884384,0.45548882866874335
1761338300352340700,0.6063408203125,0.4525467838674783,-0.08399731165161356,0.6549355154100805
1761338300362406400,0.616406494140625,0.08110708836913108,-0.13163648498188704,0.764210348317027
1761338300372472600,0.62647265625,-0.2738409065335989,-0.20394600745458155,0.7262537618231028
1761338300382537700,0.636537841796875,-0.5001718738734722,-0.298224310227111,0.536211082438752
1761338300392603600,0.646603759765625,-0.5428232671201229,-0.48822070278432217,0.2779195541493594
1761338300402668800,0.656668701171875,-0.5653735371023416,-0.747324679967761,0.05219736635759473
1761338300412734500,0.666734375,-0.583118452629447,-1.0602999115377665,-0.17020963247157633
1761338300422800600,0.676800537109375,-0.6010463235080242,-1.3126250057034194,-0.4852045333009213
1761338300432865500,0.686865478515625,-0.6589402940720319,-1.4564403330504894,-0.8522286773793399
1761338300442931700,0.696931640625,-0.717538613513112,-1.5622767890065907,-1.1674182970631868
1761338300452997600,0.70699755859375,-0.8911164803087711,-1.713473458776623,-1.4480159113153814
1761338300463062500,0.7170625,-1.175580487665534,-1.8272076822452246,-1.780041588053107
1761338300473128400,0.72712841796875,-1.3911515760600566,-1.6662831069260835,-2.0768866458162663
1761338300483193600,0.737193603515625,-1.5486363861888646,-1.1969697510443627,-2.2385276988416907
1761338300493259800,0.747259765625,-1.4388158290326594,-0.4935087627224624,-1.8129910869747399
1761338300503325700,0.75732568359375,-1.058646299111843,0.08120508711719884,-0.8053893309235572
1761338300513390600,0.767390625,-0.7006617129921913,0.43447599738687276,0.07557254285663366
1761338300523456500,0.77745654296875,-0.5420937838017941,0.23168701448030768,0.18283523222357034
1761338300533522700,0.787522705078125,-0.37593291526436806,0.02673811359349638,-0.012732128866389393
1761338300543587600,0.797587646484375,-0.35625615489184853,-0.21994714805427937,-0.09965009547136723
1761338300553653800,0.80765380859375,-0.5720727424800396,-0.6773945999775082,-0.04544219300895929
1761338300563718700,0.81771875,-1.1233201390743255,-0.8316265457902103,-0.04346161365099251
1761338300573784600,0.82778466796875,-2.0050240633934737,-0.7983179312326013,-0.06071370415985584
1761338300583850500,0.8378505859375,-2.771805138981342,-0.6250578982144593,-0.06165032742284238
1761338300593915600,0.84791552734375,-3.319083631944656,-0.2744018283519894,0.04949292970448732
1761338300603981600,0.857981689453125,-3.4763983462035655,0.154813435495086,0.4186191606286913
1761338300614046500,0.86804638671875,-3.1488959921091793,0.5644746155012399,0.9151729170702397
1761338300624112600,0.878112548828125,-2.455856444558501,0.9856287745002656,1.2933363678656518
1761338300634178600,0.888178466796875,-1.470204654508829,1.3539984879687428,1.4929586303696036
1761338300644243700,0.89824365234375,-0.3035094840884209,1.4648641702637075,1.5195727887898682
1761338300654309600,0.9083095703125,0.7661188122868537,1.3763693097308278,1.3624734708473085
1761338300664375600,0.91837548828125,1.6453186448305843,1.17993824448362,1.2136892690464853
1761338300674440700,0.928440673828125,2.329754030165076,0.9916257498927414,1.0887482996478677
1761338300684506600,0.938506591796875,2.857835655227303,0.9203709241047501,1.0425897750630975
1761338300694572800,0.94857275390625,3.183134361797571,0.8137835036508738,0.9722370857466012
1761338300704637400,0.958637451171875,3.3788042334139345,0.660060091882199,0.8708440190654247
1761338300714703600,0.96870361328125,3.453679149395227,0.5327966343527659,0.6862232916645705
1761338300724768500,0.9787685546875,3.3432389990359543,0.43830326405744996,0.4672667986154556
1761338300734834700,0.988834716796875,3.0694091984182594,0.34547848456148056,0.3483885998545214
1761338300744900600,0.998900634765625,2.6076234615623948,0.1974189437733963,0.27565471448991447
1761338300754965500,1.008965576171875,2.162225964927673,0.010296280021592974,0.25338251253040506
1761338300765031700,1.01903173828125,1.7704916694194077,-0.1257576926089823,0.4322911276284605
1761338300775097600,1.02909765625,1.3044272323310375,-0.08305504409912973,0.6464515455074608
1761338300785162800,1.039162841796875,0.6292723010390997,0.07371668585687875,0.8321559034265578
1761338300795228400,1.049228515625,-0.3084288203120231,0.2830040178067982,0.9475770570687949
1761338300805293600,1.05929345703125,-1.3666121780872345,0.548282190113142,0.941514176833257
1761338300815359500,1.069359375,-2.2330121502906084,0.837384743990749,0.926238354833424
1761338300825425700,1.07942578125,-2.7220073811113834,1.006319241959974,0.8676953457761556
1761338300835490800,1.08949072265625,-2.7205285407304762,1.027952908553928,0.7772109919264912
1761338300845556500,1.099556396484375,-2.2182447892695665,1.0410909148074685,0.6201622351273894
1761338300855621600,1.10962158203125,-1.3631132300555706,0.9017358548048883,0.48877749641686674
1761338300865687600,1.1196875,-0.49615211683809757,0.6631750090323388,0.3806553406763822
1761338300875753700,1.129753662109375,0.2884714894324541,0.5671479994289577,0.23522872394146396
1761338300885818400,1.139818359375,0.956018868330121,0.5456853785529733,0.2227685256179422
1761338300895884500,1.149884521484375,1.5424965682595968,0.4439890180762857,0.3696393680781126
1761338300905950500,1.159950439453125,1.9831810648977755,0.327942133751139,0.5225378367973491
1761338300916015400,1.170015380859375,2.301803946965933,0.2658748960904777,0.5414944662017748
1761338300926081500,1.18008154296875,2.3743548039138314,0.13598134578578172,0.5227854914154857
1761338300936146400,1.190146484375,2.2514584920853373,-0.025328831317462025,0.5166755571678281
1761338300946212600,1.200212646484375,2.0920956131249664,-0.08064719750611112,0.5268245742058381
1761338300956278500,1.210278564453125,1.7153782694846391,0.019032197124976665,0.5385408405605703
1761338300966343400,1.220343505859375,1.2352660178214312,0.16353218226796015,0.6032496787711977
1761338300976409300,1.230409423828125,0.7435504221260547,0.1835467962927185,0.5807901558123528
1761338300986475500,1.2404755859375,0.30169746623039245,0.1105430627444759,0.4521353169897571
1761338300996540700,1.250540771484375,-0.04260813862681389,-0.0683004877607338,0.2775107541527599
1761338301006606600,1.260606689453125,-0.30115269182920457,-0.33081275728400794,0.07049996143323368
1761338301016671500,1.27067138671875,-0.5552262370973825,-0.6050426266025751,-0.10186914149401709
1761338301026737400,1.2807373046875,-0.816484725433588,-0.8472745621033012,-0.15755274253217502
1761338301036803600,1.290803466796875,-0.9887006562262773,-0.985681600666046,-0.1748878168830648
1761338301046868500,1.300868408203125,-1.1011153215289116,-1.0329045396119356,-0.2155366564019583
1761338301056934400,1.310934326171875,-1.2409206825822592,-1.070556955527514,-0.2624379439117387
1761338301067000300,1.321000244140625,-1.394336051315069,-1.162762214885652,-0.3789847771156579
1761338301077065500,1.3310654296875,-1.4667191504806278,-1.2828764947801827,-0.45490832536704834
1761338301087131400,1.34113134765625,-1.4818407317668199,-1.383245332980156,-0.43935949511211364
1761338301097196500,1.351196533203125,-1.5282131913632153,-1.4192349302500487,-0.3871772167257964
1761338301107262500,1.361262451171875,-1.6300941876918076,-1.4283685231678187,-0.3048212060078047
1761338301117328400,1.371328369140625,-1.6797183425605295,-1.3732885871112346,-0.29225374791752545
1761338301127393500,1.3813935546875,-1.7764473629534243,-1.3644801344946027,-0.38467268655896186
1761338301137459500,1.39145947265625,-1.854382835549116,-1.4480550742819904,-0.6429987747050822
1761338301147525600,1.401525634765625,-1.7790519924938677,-1.3879239923156796,-1.0282967535555363
1761338301157590300,1.41159033203125,-1.6777549335330724,-1.4992175446338951,-1.1383737696908414
1761338301167656400,1.421656494140625,-1.698746283635497,-1.8362367918752134,-0.9176002903476357
1761338301177721600,1.4317216796875,-1.8421499614417551,-2.0903484771966934,-0.6503953877624123
1761338301187787500,1.44178759765625,-2.12806533665061,-2.1206908623598513,-0.32944497606214135
1761338301197853400,1.451853515625,-2.436719782412052,-1.9912261319264768,0.08182184904236346
1761338301207918300,1.46191845703125,-2.782502474084496,-1.51584426978603,0.43756373426914213
1761338301217984500,1.471984619140625,-3.332460999912023,-0.8350977290321141,0.9579021247934549
1761338301228050400,1.482050537109375,-3.74021294876337,-0.035153877098113295,1.5041326430737971
1761338301238115600,1.492115478515625,-3.815253868961334,0.8139074222914874,1.9599819756180046
1761338301248181500,1.502181396484375,-3.224219820901751,1.4415036068119107,2.078715614809096
1761338301258246400,1.512246337890625,-2.0826421406030655,1.728722611965239,1.7504022365927696
1761338301268312600,1.5223125,-0.8013847714573145,1.8217402106195688,1.2549708352446556
1761338301278378500,1.53237841796875,0.6974246307671069,1.6747740180261432,0.7590617333821952
1761338301288443600,1.542443603515625,2.015612677425146,1.6295310008510946,0.4367923845704645
1761338301298509300,1.55250927734375,2.9341490795791145,1.45391198361665,0.2630072316996753
1761338301308574500,1.562574462890625,3.6154783155918118,1.1879602959629147,0.13432261879332363
1761338301318640400,1.572640380859375,4.238686786547303,0.9668146953716874,0.1291485771562904
1761338301328706600,1.58270654296875,4.449334447064995,0.5461885057695209,0.2393230623167008
1761338301338771500,1.592771484375,4.179230388972163,-0.08336962647363542,0.45283889868184923
1761338301348837400,1.60283740234375,3.562843872991204,-0.47364407856240864,0.5719502486115321
1761338301358903300,1.6129033203125,2.6923218524217605,-0.5707846023656428,0.7075977958656847
1761338301368968400,1.622968505859375,1.622579574277997,-0.5631482988009229,0.9832575153242796
1761338301379034600,1.63303466796875,0.4791793547272682,-0.3714655605919659,1.3538424206241964
1761338301389100500,1.6431005859375,-0.4972732298225164,0.04471980615169741,1.7555092043429612
1761338301399165400,1.65316552734375,-1.3257143505096434,0.5453036492263897,2.2258825906716284
1761338301409231400,1.6632314453125,-1.9534043507933616,1.010752182906121,2.626045837959647
1761338301419296500,1.673296630859375,-2.267968897381425,1.3937255182012915,2.874308066600561
1761338301429362400,1.683362548828125,-2.1944079866081476,1.6042213491581379,2.874074842366576
1761338301439428600,1.6934287109375,-1.7470429892927408,1.4995691345505415,2.6436358551859853
1761338301449493500,1.703493408203125,-1.079991284957528,1.0270314828600733,2.051840759626031
1761338301459559400,1.713559326171875,-0.3194067259222269,0.45215036842841655,1.1206110262461006
1761338301469624600,1.72362451171875,0.41521044816374775,-0.03405174280880019,0.24268409971501675
1761338301479690500,1.7336904296875,1.0269716424316166,-0.4605420934703201,-0.42141313872877506
1761338301489756700,1.743756591796875,1.4930571223080158,-0.8064718654632568,-0.8853064788557589
1761338301499821300,1.7538212890625,1.838043695166707,-1.0129419480353594,-1.122424359278381
1761338301509887500,1.763887451171875,2.0212866314083335,-1.1705099064029751,-1.2085894616894424
1761338301519953400,1.773953369140625,1.9869412942141293,-1.2570473492577672,-1.2773999630652366
1761338301530018600,1.7840185546875,1.8033645959734916,-1.238296033167094,-1.2790320943117142
1761338301540084500,1.79408447265625,1.4601935481041668,-1.1952417582079768,-1.2023304743599146
1761338301550149400,1.8041494140625,0.9947060341209173,-1.159940800789371,-1.070175993385911
1761338301560215600,1.814215576171875,0.5762485668599605,-1.0846999741051346,-0.8867085276734084
1761338301570281500,1.824281494140625,0.23259879556298255,-1.002392204709351,-0.70402096029222
1761338301580346600,1.8343466796875,-0.0339893633633852,-0.9435654833398759,-0.520513820156455
1761338301590412300,1.844412353515625,-0.2669377030164003,-0.9068141079172491,-0.3030770474879071
1761338301600478500,1.854478515625,-0.3891238207489252,-0.8743460358370095,-0.08208090183734894
1761338301610543600,1.864543701171875,-0.4497825798511505,-0.8261838432796299,0.12116576170884072
1761338301620609500,1.874609619140625,-0.5421966596543789,-0.8025410288203507,0.4085003560658544
1761338301630674400,1.88467431640625,-0.6696580874413252,-0.7737253417678177,0.6613230975553392
1761338301640740400,1.894740234375,-0.7279150460988283,-0.6638481590535491,0.8125533773340284
1761338301650806500,1.904806640625,-0.7448217572361231,-0.5905011832918972,0.9309659678772091
1761338301660871400,1.914871337890625,-0.7729244006484747,-0.6067202774912118,0.9954571447491645
1761338301670937600,1.9249375,-0.7748626752346753,-0.5418742227669805,0.9739235044635832
1761338301681003500,1.93500341796875,-0.7393138074696064,-0.4524980493549257,0.9388019952651113
1761338301691068400,1.945068359375,-0.6619236937969922,-0.47883214872479435,0.875783448228985
1761338301701134300,1.95513427734375,-0.5837549969673156,-0.6898683701686561,0.6851863498322666
1761338301711199500,1.965199462890625,-0.46755379886329174,-0.9360686978437006,0.3884498670101166
1761338301721265700,1.975265625,-0.2796966468244791,-1.0769735445715487,0.11359196545369922
1761338301731331600,1.98533154296875,-0.06989478948116302,-1.2236809400983153,0.0059906552495434875
1761338301741396500,1.995396484375,0.12586977468132973,-1.2623602148436008,0.010169457037840038
1761338301751462400,2.00546240234375,0.20038637874424456,-1.3227522858336567,-0.11229253676030784
1761338301761527600,2.015527587890625,0.13294599667787552,-1.4589447170868515,-0.37179760555792596
1761338301771593500,2.025593505859375,0.027584757018089292,-1.3461702785611152,-0.7566143402300775
1761338301781659400,2.035659423828125,-0.13061609242558478,-1.2159929428789764,-1.1416527182962746
1761338301791724500,2.045724609375,-0.07711714195013046,-1.1775756070055068,-1.243623219539225
1761338301801790500,2.05579052734375,0.36838966027796266,-0.6344073989052326,-1.05997608641088
1761338301811856400,2.0658564453125,0.7368857035398483,-0.2080718917455524,-0.5486733083225787
1761338301821921500,2.075921630859375,0.7757605008572339,-0.07475220291707664,0.42018845577202735
1761338301831987500,2.085987548828125,0.2529354811489582,-0.058260940712876616,1.3501108328804372
1761338301842052400,2.09605224609375,-0.9796773918151855,0.22792663903348145,2.0438386549562213
1761338301852118500,2.106118408203125,-2.661497090569138,0.7039105587203055,2.4962878236681223
1761338301862184400,2.116184326171875,-3.947410176566243,1.2724712744913995,2.6803978981330987
1761338301872249300,2.126249267578125,-4.62715418921411,1.9017755781039594,2.509117202363908
1761338301882315500,2.1363154296875,-5.0365012983024116,2.192215006608516,1.9529180285811423
1761338301892381200,2.146381103515625,-4.87147147962153,2.233645918149501,1.050404102075845
1761338301902446300,2.1564462890625,-3.886218918022513,2.045827198424935,0.12103793407808988
1761338301912512300,2.16651220703125,-2.3244015632212163,1.7476397861421107,-0.6541252219405025
1761338301922577400,2.176577392578125,-0.623969518455863,1.5896772754989563,-1.1389873715445398
1761338301932643000,2.18664306640625,0.9766858087837695,1.5620359659880398,-1.3767955723188816
1761338301942709200,2.196709228515625,2.343835162487626,1.6082205017969011,-1.3974892546489834
1761338301952774400,2.2067744140625,3.562975974938273,1.7451181587100029,-1.225967443600297
1761338301962840300,2.21684033203125,4.481864843791723,1.78687625637874,-0.846653069204092
1761338301972906200,2.22690625,4.903703770184516,1.5766849613264202,-0.5113288623776286
1761338301982971100,2.23697119140625,4.680687041959167,1.216979835024476,-0.429853525217995
1761338301993037300,2.247037353515625,4.0446114906460044,0.8204065750524401,-0.4590853918559849
1761338302003102200,2.257102294921875,3.2566718916952606,0.6106523562431335,-0.590980089382641
1761338302013168400,2.26716845703125,2.391245148438215,0.4566489584892988,-0.6553552751921117
1761338302023234300,2.277234375,1.5138602563619612,0.2265968517344445,-0.542908899576962
1761338302033299200,2.28729931640625,0.5030687643587589,-0.09589987609237433,-0.40181130675598975
1761338302043365000,2.297365234375,-0.48557694680988783,0.03766542152762413,-0.19296059439135715
1761338302053431300,2.307431396484375,-1.4195242685854434,0.4803968407582491,0.15099662628644145
1761338302063496400,2.317496337890625,-2.175083692935109,1.0395216196641326,0.5886110221637413
1761338302073562400,2.327562255859375,-2.626224701657891,1.6607415471509097,1.08792777704522
1761338302083627300,2.337627197265625,-2.715110022813082,2.1186149328686295,1.491089037105441
1761338302093693200,2.347693115234375,-2.481480130636692,2.229265657238662,1.6268214496314524
1761338302103759400,2.35775927734375,-1.928606594145298,2.010981364362687,1.413240804401785
1761338302113824300,2.36782421875,-1.0976900232553481,1.4761274686865509,0.9307203956183046
1761338302123890200,2.37789013671875,-0.29404198304116724,0.8794609676979481,0.4179191226005554
1761338302133956000,2.3879560546875,0.4242617696255445,0.4325514955976978,0.011125963178230449
1761338302144021200,2.398021240234375,0.9649398414105176,0.02044946177806705,-0.17952731325197963
1761338302154087400,2.40808740234375,1.3659113363415003,-0.14932729570157824,-0.2809353217739612
1761338302164152300,2.41815234375,1.5972756216734647,-0.08425028176568448,-0.3507762621760368
1761338302174218200,2.42821826171875,1.689761013147235,0.024159422211907804,-0.3080814316464588
1761338302184284200,2.4382841796875,1.682128910833597,0.11966668225750327,-0.20528923875708133
1761338302194349300,2.448349365234375,1.6353092919915913,0.10323712364528327,-0.14462215021792799
1761338302204415200,2.458415283203125,1.565123995131254,0.0033617680506780744,-0.1328817723352462
1761338302214481400,2.4684814453125,1.420168411707878,-0.152725340642035,-0.23038188669849186
1761338302224546300,2.47854638671875,1.2542676554113625,-0.38286907120309766,-0.32610216844025997
1761338302234612200,2.4886123046875,1.0698813943535088,-0.6562854687143117,-0.2882383565300144
1761338302244677400,2.498677490234375,0.7897229752361774,-0.7959612851038574,-0.07970178814847022
1761338302254743300,2.508743408203125,0.37072891688048837,-0.7710952855251729,0.1073614005010575
1761338302264809500,2.5188095703125,0.048913376250863075,-0.6690137251231819,0.28395002995263785
1761338302274874000,2.5288740234375,-0.10010931048095226,-0.582357770455256,0.36514552725758403
1761338302284940300,2.538940185546875,-0.27551556174755093,-0.6744798085093497,0.40782402770686893
1761338302295006200,2.549006103515625,-0.4522808264076709,-0.9183457749526948,0.36029527421481905
1761338302305071400,2.5590712890625,-0.5221797075420618,-1.1481826315216719,0.26057324601840226
1761338302315137000,2.569136962890625,-0.5376788899689913,-1.2876359642669557,0.17953681173268704
1761338302325202200,2.5792021484375,-0.4593681543201208,-1.4287668748356401,0.02055699553946033
1761338302335268400,2.589268310546875,-0.3422773138999939,-1.5401096731230615,-0.1948090170033276
1761338302345334300,2.599334228515625,-0.21946049704849718,-1.5182856715887785,-0.4487778963206336
1761338302355399400,2.6093994140625,-0.11380699644386767,-1.426091664277017,-0.6135938165225088
1761338302365465000,2.619465087890625,-0.10969430042803287,-1.3097159863889216,-0.6337167862925678
1761338302375530200,2.6295302734375,-0.4154840044081211,-1.1875113100863992,-0.49196606332510706
1761338302385596200,2.63959619140625,-0.8124971171021461,-0.9890940394580363,-0.3202865409640595
1761338302395662300,2.649662353515625,-1.1023381413221358,-0.709433340729773,-0.10264604415064676
1761338302405727200,2.659727294921875,-1.2543547491729259,-0.41650870781335975,0.0915508871026337
1761338302415793200,2.669793212890625,-1.241780514281988,-0.0717271377411671,0.10341803317014127
1761338302425859300,2.679859375,-0.9858376680105924,0.18323623250620438,-0.001977282289182767
1761338302435924200,2.68992431640625,-0.6191285081654787,0.0721127029926516,-0.042034576522558924
1761338302445990400,2.699990478515625,-0.42084407013654707,-0.2469977799293585,0.11070105718462728
1761338302456055000,2.710054931640625,-0.6723556559622287,-0.5296203058715909,0.4398843957690522
1761338302466121200,2.720121337890625,-1.1909323705762624,-0.503560931789875,0.9338662193633616
1761338302476187100,2.730187255859375,-1.7674200068891048,-0.2082298222536221,1.459273802910745
1761338302486252300,2.740252197265625,-2.1442577620387078,0.3133936396451667,1.8338234471231698
1761338302496318500,2.750318359375,-2.3391847063332794,0.8053842163570225,2.143375864637643
1761338302506384400,2.76038427734375,-2.4018974753558635,1.324835960239917,2.2490941010415555
1761338302516449300,2.77044921875,-2.2684482053309676,1.810292349410057,2.102220555167645
1761338302526515200,2.78051513671875,-2.01633222387135,2.034351134034246,1.7219611550062894
1761338302536580400,2.790580322265625,-1.7862959722727536,1.9004513437628745,1.1932441546499728
1761338302546646300,2.800646240234375,-1.455467688626051,1.5952653047643601,0.5542560403583571
1761338302556712200,2.810712158203125,-0.9783382521659135,1.472735634291172,-0.0033350444405339658
1761338302566777300,2.82077734375,-0.4435094909310341,1.5502406065151095,-0.3500484228255227
1761338302576843300,2.83084326171875,0.09645429510474204,1.6532177275173365,-0.45247514340337364
1761338302586909200,2.8409091796875,0.5158610259145497,1.7531339996442197,-0.5599708012759685
1761338302596974300,2.850974365234375,0.8318155655562877,1.8072846920266747,-0.868331817048788
1761338302607040300,2.861040283203125,1.145100593727827,1.839121553531289,-1.257577218350768
1761338302617105200,2.871105224609375,1.5212866069704294,1.765101208552718,-1.55837072147876
1761338302627171300,2.88117138671875,1.8175737385898827,1.6494067909270524,-1.7657373144991695
1761338302637237200,2.8912373046875,1.9509370838969944,1.5101209237031639,-1.8134975751921534
1761338302647302100,2.90130224609375,1.8837743497282267,1.4157158162131904,-1.7184624992355704
1761338302657368000,2.9113681640625,1.63973178460896,1.2753460992753505,-1.4860164100162685
1761338302667434200,2.921434326171875,1.2062842534869909,1.0805769028257577,-1.0905818717505782
1761338302677499400,2.93149951171875,0.6991489703416824,0.9834651667255908,-0.6317787309020757
1761338302687565300,2.9415654296875,0.1889513770163059,1.0049296872977167,-0.16182842882368711
1761338302697630200,2.951630126953125,-0.2704097630411386,1.1497788877371697,0.28706235328689217
1761338302707696000,2.961696044921875,-0.744986007887125,1.2812044699147342,0.7724180585615337
1761338302717762300,2.97176220703125,-1.1229600735902785,1.4920667960964142,1.1487000064592807
1761338302727827200,2.9818271484375,-1.180893791642785,1.4574039173856377,1.2888318960532545
1761338302737893400,2.991893310546875,-0.9041109864383935,1.1061446939982473,1.1531856274407357
1761338302747959300,3.001959228515625,-0.41188685669898983,0.8209858362451196,0.8416415977176278
1761338302758024200,3.012024169921875,0.08853577706515789,0.4923711369946599,0.5642454098552465
1761338302768090400,3.02209033203125,0.5695125366032123,0.14129538041539488,0.30091961372569204
1761338302778155300,3.0321552734375,0.9745587336272,-0.14123758581355214,0.021261326150223612
1761338302788221400,3.042221435546875,1.276203008365631,-0.3680196944544092,-0.26284550179932265
1761338302798287000,3.052287109375,1.4595581728100775,-0.683055475283414,-0.6139616269215941
1761338302808352300,3.062352294921875,1.556726169142127,-0.8727212111141532,-1.0291511784277856
1761338302818418200,3.072418212890625,1.5590613340914248,-1.0735905510697512,-1.4518394151262939
1761338302828484400,3.082484375,1.4317776009589434,-1.4601745511427522,-2.0160177510946986
1761338302838549200,3.09254931640625,1.264981357127428,-1.4451155136987566,-2.4788550428301095
1761338302848615200,3.102615234375,1.0378934339404104,-1.4935612724378704,-2.717917773710191
1761338302858680300,3.112680419921875,0.7903729635775089,-1.5024300769396126,-2.640807353761792
1761338302868746200,3.122746337890625,0.5910708729386329,-1.469014860202372,-2.432117987705022
1761338302878812400,3.1328125,0.28832477443814275,-1.4453116207927466,-2.1570264965884385
1761338302888877000,3.142876953125,0.010835282269120216,-1.349103555534035,-1.7963079554602503
1761338302898943200,3.152943115234375,-0.26324527823925015,-1.3062396885804832,-1.4518392689958215
1761338302909009200,3.163009033203125,-0.5155208341747523,-1.1076084829404949,-1.1199864646069704
1761338302919074300,3.17307421875,-0.7839017217367887,-0.9481671319164335,-0.7086292578052729
1761338302929140200,3.18314013671875,-1.1405658729076384,-0.8442990534238517,-0.3196357123725116
1761338302939205000,3.193205078125,-1.4038099821031094,-0.6391109734863042,0.11117942441925406
1761338302949271300,3.203271240234375,-1.3968740453600883,-0.4769035552823916,0.36492432225495575
1761338302959337200,3.213337158203125,-1.3251158000946044,-0.377364592035301,0.5731286082085222
1761338302969402400,3.22340234375,-1.2117495331555603,-0.26584077462516725,0.716543245800212
1761338302979468300,3.23346826171875,-1.0256067838191985,-0.1449956597054377,0.6905113442473113
1761338302989534500,3.243534423828125,-0.9505746314495801,-0.1817845175942406,0.6371295904107391
1761338302999599000,3.25359912109375,-0.9415063588529825,-0.2647927268769592,0.5956432954207063
1761338303009665300,3.263665283203125,-0.869650498431921,-0.287972746130079,0.4819433760805055
1761338303019730400,3.27373046875,-0.8168629110962152,-0.27132453979849813,0.3837769067630172
1761338303029796400,3.28379638671875,-0.7309241647869348,-0.2171536814108491,0.38410372756458816
1761338303039862300,3.2938623046875,-0.6471861433923244,0.07530600087493658,0.4655872845632955
1761338303049927200,3.30392724609375,-0.5092670344769954,0.23611674055606124,0.5610850461281836
1761338303059993300,3.313993408203125,-0.17000643804967402,0.33333369059637186,0.47128111229073255
1761338303070058200,3.324058349609375,0.2468476856678724,0.5233590535197407,0.1910378644341603
1761338303080124400,3.33412451171875,0.5095955357789993,0.4494430456984788,0.028481778923049567
1761338303090190000,3.344190185546875,0.4439525585234165,0.02801664562933147,0.01844820495825261
1761338303100255200,3.354255126953125,0.1048176343023777,-0.3531247980635613,0.049151276659965513
1761338303110321400,3.3643212890625,-0.5215402405947447,-0.24362433970719574,0.025229225134197623
1761338303120387300,3.37438720703125,-1.3436112417280672,0.20448183136433362,-0.17311317189335823
1761338303130452200,3.3844521484375,-2.1922557770103217,0.6132647306986153,-0.27548063656464217
1761338303140518100,3.39451806640625,-2.8488743501365184,0.9069905604626983,-0.16342033765763042
1761338303150583300,3.404583251953125,-3.201642662912607,1.2887789968222378,0.03711771538383327
1761338303160649200,3.414649169921875,-3.030147447609901,1.7949083177953957,0.4126042842533439
1761338303170715400,3.42471533203125,-2.43942787232697,2.106642901654541,0.923906258624047
1761338303180780300,3.4347802734375,-1.5356705216318367,2.33432528360337,0.9632139674659818
1761338303190846200,3.44484619140625,-0.5420680648386478,2.6297046527281402,0.47885209553427993
1761338303200912100,3.454912109375,0.38885610972344875,2.6404636548906564,-0.3262298864731565
1761338303210977300,3.464977294921875,1.3912848470509052,2.4104727037385105,-1.543522842567414
1761338303221043500,3.47504345703125,2.655349089333415,2.5083614155605436,-2.904771009403467
1761338303231108000,3.485108154296875,3.6682203102201223,2.8122657441854475,-3.480976321643591
1761338303241174300,3.49517431640625,3.922456352573633,2.377139027804881,-2.8273683285102247
1761338303251240200,3.505240234375,3.7698160598665473,2.0032418561518193,-1.902555914826691
1761338303261305300,3.515305419921875,3.41322205132246,2.052093857604265,-1.5693242233000695
1761338303271371300,3.525371337890625,3.0842391032814978,2.118668562752008,-1.6342738114640116
1761338303281437200,3.535437255859375,2.9188655857294794,1.9075705281183122,-1.4953637918151914
1761338303291502300,3.54550244140625,2.8093624239593744,1.5542469195470212,-1.200285889855027
1761338303301568300,3.555568359375,2.584993696603179,1.2190496270358562,-0.8255724333830178
1761338303311633400,3.56563330078125,2.1134365073174237,0.9517758239328861,-0.45872740873116996
1761338303321699300,3.57569921875,1.3929904819250105,0.793613114542514,-0.06433176679285242
1761338303331765200,3.58576513671875,0.5064987388074398,0.9624914253450929,0.36002580962367353
1761338303341830100,3.595830078125,-0.6651140142709017,1.3956386583462357,0.8840872392591088
1761338303351896300,3.605896240234375,-1.8916484441041945,1.6826105568706988,1.3676026504293084
1761338303361962200,3.615962158203125,-2.7681863639622923,1.8641303225815296,1.5988897788718341
1761338303372027100,3.626027099609375,-3.2384067516863344,2.0471338971093296,1.6116259263262152
1761338303382093300,3.63609326171875,-3.5101270128041504,1.9438982713013886,1.4073760040216148
1761338303392158200,3.646158203125,-3.3152877467930315,1.7033999546602367,1.0140511513862758
1761338303402224400,3.656224365234375,-2.6586153976529836,1.2117385733701287,0.38005693639181554
1761338303412290300,3.666290283203125,-1.9280325936496256,0.5110178236670792,-0.5425281931636855
1761338303422355200,3.676355224609375,-1.2458002713173628,-0.08102397666294127,-1.4859158722512422
1761338303432421000,3.686421142578125,-0.5782856256455182,-0.3062828212592751,-2.096842807652056
1761338303442487300,3.6964873046875,0.12150748781859874,-0.32279132685922085,-2.1414307219192383
1761338303452552200,3.70655224609375,0.7250538114488124,-0.3301364289250225,-1.6493953927502034
1761338303462618400,3.716618408203125,1.1542980456620453,-0.5349102289732546,-1.2748517398871482
1761338303472683300,3.726683349609375,1.382926184028387,-0.711951168769598,-1.1564607766538857
1761338303482749200,3.736749267578125,1.4259113392740488,-0.7542635393202305,-0.9893858620114624
1761338303492815400,3.7468154296875,1.356079678156972,-0.8743534154258668,-0.9066163203228265
1761338303502880300,3.75688037109375,1.2156161454558372,-0.7953325587462633,-0.9048447806056589
1761338303512946400,3.766946533203125,1.0174813450306652,-0.6015472222348675,-0.7928680683288722
1761338303523012000,3.77701220703125,0.8373352057605982,-0.6373913831520825,-0.5898930613309145
1761338303533077200,3.7870771484375,0.6231313140660524,-0.8331164190217852,-0.3898031813152134
1761338303543143200,3.79714306640625,0.34174247637093064,-1.0099815638598053,-0.27487251460365947
1761338303553208300,3.807208251953125,0.18788228648006916,-0.9749367000941187,-0.3047174351060763
1761338303563274500,3.8172744140625,0.17626257583498953,-0.80443305311203,-0.38589791750498115
1761338303573340200,3.827340087890625,0.17904957620501516,-0.593789411182329,-0.3855140692865476
1761338303583405300,3.8374052734375,-0.014676175606250763,-0.3171885018834844,-0.21754412376685067
1761338303593471200,3.84747119140625,-0.41964229313135143,0.1011613768171519,0.21942929819263515
1761338303603537400,3.857537353515625,-0.8949000905007124,0.6698095516759902,0.7397949420500546
1761338303613602000,3.86760205078125,-1.2938397873431444,0.9268510799042879,1.1585419668421149
1761338303623668200,3.877668212890625,-1.4502648592859506,0.8515826345607638,1.4682779242299495
1761338303633733400,3.8877333984375,-1.361172617381811,0.6434929879628122,1.521040084863454
1761338303643799300,3.89779931640625,-1.0881704997599124,0.3694106738887727,1.3932562932543455
1761338303653865200,3.907865234375,-0.80346333129704,0.17859160330444573,1.2510717819795012
1761338303663930000,3.91793017578125,-0.6322825887709855,0.25148981238529083,1.207806786879152
1761338303673996300,3.927996337890625,-0.5067343011289834,0.31305176740493623,1.1818906937256455
1761338303684062200,3.938062255859375,-0.28825054015815255,0.3163379860013723,1.1544831929706036
1761338303694127400,3.94812744140625,-0.13977087426185608,0.3695530780341476,1.141927370519191
1761338303704193300,3.958193359375,-0.07356734051406383,0.32600875453576444,1.0783040625229476
1761338303714258200,3.968258056640625,-0.023809330132603643,0.25407332607246935,0.8530671740300952
1761338303724324400,3.978324462890625,0.00447509958744049,0.19512754490058867,0.4157636250670999
1761338303734390300,3.988390380859375,0.06572831745147704,0.12414021094236523,-0.18950780532266945
1761338303744455400,3.998455322265625,0.13507365635633467,0.1015549427120015,-0.8075576879385858
1761338303754520000,4.00852001953125,0.238226572316885,-0.3013234818188473,-1.4767382940612732
1761338303764586200,4.018586181640625,0.5070592952996492,-0.605866729401797,-2.468849489383399
1761338303774652200,4.028652099609375,0.8582558287143707,-0.21265801395941525,-3.5315503245830535
1761338303784717300,4.03871728515625,0.978861399257183,0.10485318053979426,-3.847999954265356
1761338303794783200,4.048783203125,0.812279090437293,-0.16267229576930403,-3.28707287517786
1761338303804848000,4.05884814453125,0.3610673545658588,-0.7038100940205156,-2.2426032777175307
1761338303814914300,4.068914306640625,-0.5822703113675117,-0.9346501362826675,-1.4957599515259266
1761338303824980200,4.078980224609375,-1.983672647807002,-0.5432269525501877,-1.2953461002528666
1761338303835045400,4.08904541015625,-3.359742974591255,0.43577312452532346,-1.186549113990739
1761338303845111300,4.099111328125,-4.238279374790191,1.4719471142619847,-0.6489002538338303
1761338303855177200,4.10917724609375,-4.49309818546772,1.9657798482418058,0.22731621551755815
1761338303865242400,4.119242431640625,-4.060550818055868,2.347153931646794,1.0487740166559816
1761338303875308300,4.129308349609375,-3.3144834446728226,2.535656834243238,1.5946512645192443
1761338303885373400,4.13937353515625,-2.4696903241217134,2.5886755999863147,1.8246211728833615
1761338303895439000,4.149439208984375,-1.636078522798419,2.493712420222163,1.7793343165665865
1761338303905505500,4.159505615234375,-0.7548790408700704,2.304204286105931,1.3852046503543853
1761338303915570700,4.16957080078125,0.18853695099651813,2.0480746850907803,0.710648415607959
1761338303925636900,4.179636962890625,1.115156121841073,1.7655463219717145,0.019174911797605453
1761338303935702800,4.189702880859375,2.011155113494396,1.5536442774787544,-0.5158170041097327
1761338303945767700,4.199767578125,2.8035265574127433,1.492317994378507,-0.7534474006317555
1761338303955833600,4.20983349609375,3.2410791857659813,1.506665668682754,-0.8474361824057995
1761338303965898800,4.219898681640625,3.3631472300767897,1.3894813047602772,-0.9204823485899716
1761338303975964700,4.229964599609375,3.069738284242153,1.1113093832850456,-0.9653815207634121
1761338303986030800,4.24003076171875,2.3935090017169713,0.79428750667274,-1.0002404335029422
1761338303996095700,4.250095703125,1.5227993496209382,0.6634633244544267,-1.031634811937064
1761338304006161700,4.26016162109375,0.6371937416881323,0.7201207389608025,-0.9801535579595714
1761338304016227800,4.270227783203125,-0.39427988833785055,0.7694073324382305,-0.7562746599469333
1761338304026292700,4.280292724609375,-1.4251695809960365,0.9105162503708153,-0.4371692550588399
1761338304036359000,4.29035888671875,-2.0927537847727535,1.2332044091165064,-0.13590711150579154
1761338304046423600,4.300423583984375,-2.3731033425480126,1.5488647881172597,0.17389774639979003
1761338304056489700,4.31048974609375,-2.3287387156426904,1.7486664988413452,0.49263453717119987
1761338304066555600,4.3205556640625,-1.8052035018384456,1.867372665503621,0.8091353855840862
1761338304076620800,4.330620849609375,-0.9965548768579959,1.7330124181136488,1.026435928119719
1761338304086686700,4.340686767578125,-0.20779285560846328,1.381075879986584,0.9276881152503191
1761338304096752600,4.350752685546875,0.5336094485729932,0.8968987900372594,0.5766060750607401
1761338304106817800,4.36081787109375,1.2042243983477354,0.4738962266925722,0.17174495228007436
1761338304116883700,4.3708837890625,1.777158726093173,0.04864551909491419,-0.0788408970028162
1761338304126948900,4.380948974609375,2.191986312419176,-0.1628955100659281,-0.3978521208014339
1761338304137014500,4.3910146484375,2.467168112167716,-0.12304459772538393,-0.8222753645990043
1761338304147080700,4.401080810546875,2.590124629750848,-0.1288527360148728,-1.0589233624875545
1761338304157145900,4.411145751953125,2.684995455056429,-0.24711755211781708,-1.2170295924503356
1761338304167211800,4.421211669921875,2.709790873616934,-0.368528045835346,-1.3032950134307146
1761338304177276700,4.431276611328125,2.5709546498566866,-0.4691909350784495,-1.3475459508284926
1761338304187342600,4.441342529296875,2.3565777396827934,-0.5394506488818674,-1.3745019084237515
1761338304197408800,4.45140869140625,2.159854559621215,-0.6971411376506089,-1.4350506312802433
1761338304207473700,4.4614736328125,1.9800445204377173,-0.8702471491508186,-1.459030203413218
1761338304217539800,4.471539794921875,1.6993068401277065,-0.9584357202135025,-1.5244137990802527
1761338304227605800,4.481605712890625,1.1650602626949549,-1.0338920162793248,-1.606139603869617
1761338304237670700,4.491670654296875,0.4394458947539329,-1.0153369534131138,-1.680445195530355
1761338304247736600,4.501736572265625,-0.4111450984209776,-0.898892813398689,-1.687694143745303
1761338304257802800,4.511802734375,-1.216784020191431,-0.8205837582502513,-1.5464768700674176
1761338304267868000,4.521867919921875,-1.6877771458536386,-0.7705589136261493,-1.4363476853534578
1761338304277933800,4.531933837890625,-2.0628069747984408,-0.7623248998966068,-1.3713342381730675
1761338304287998700,4.541998779296875,-2.4051310504496097,-0.8300980210486799,-1.4106772375240921
1761338304298064600,4.552064697265625,-2.6732185080230235,-0.8002491915561258,-1.1538708332259207
1761338304308130800,4.562130859375,-3.0621798316866156,-0.8567040692277252,-0.9571703033875674
1761338304318195700,4.57219580078125,-3.3253678267806768,-1.1127635276161134,-1.1531851159840822
1761338304328261600,4.58226171875,-3.078672116804123,-1.369771372770518,-1.2838358413316309
1761338304338327600,4.59232763671875,-2.4186878666371108,-1.576800696660578,-1.4537909875854849
1761338304348392700,4.602392822265625,-1.5546587152183056,-1.8275167481943964,-1.8078898183129726
1761338304358459000,4.612458984375,-0.7396440623372793,-1.799708411553502,-2.051110691785812
1761338304368523800,4.622523681640625,-0.15345102456808088,-1.1979773937169462,-1.9646061282873153
1761338304378589700,4.632589599609375,0.22271745301783083,-0.3071050243623554,-1.4664917714655399
1761338304388655600,4.642655517578125,0.5773913071542978,0.4601128352075815,-0.8903601820487529
1761338304398720800,4.652720703125,0.8723585883468389,1.1748794997893273,-0.5305716517796739
1761338304408786700,4.66278662109375,0.8083809139549731,1.5397683123394845,-0.329616058312729
1761338304418852900,4.672852783203125,0.4447878403037786,1.484939136173576,-0.2576688480800949
1761338304428917800,4.682917724609375,-0.15923077701330185,1.2323890010803937,-0.44410482647567984
1761338304438983700,4.692983642578125,-0.9006991321682929,0.8613177005030215,-0.6385108156360686
1761338304449048800,4.703048828125,-1.5276257468640804,0.8671380772195756,-0.6785591867774724
1761338304459114800,4.71311474609375,-1.8208388778656721,1.0285397685311735,-0.779342670192942
1761338304469181000,4.723180908203125,-1.6824784549236296,1.1290190813682972,-0.8589888191640377
1761338304479245600,4.73324560546875,-1.2156237442404032,1.2561388561107218,-0.8649000159692019
1761338304489311700,4.743311767578125,-0.6218342599928379,1.4768430696099997,-0.7021911875817924
1761338304499377700,4.753377685546875,-0.1951777041852474,1.8279039939463138,-0.35196992894001305
1761338304509442800,4.76344287109375,0.08485387368202209,2.181629022925347,-0.009433488038153155
1761338304519508700,4.7735087890625,0.2844686835318804,2.4105098208785054,0.24018811818081884
1761338304529573600,4.78357373046875,0.5380974076420069,2.4262933732047673,0.27538720439383757
1761338304539639800,4.793639892578125,0.8439157531946897,2.1370584981843828,0.07448938726242631
1761338304549705700,4.803705810546875,1.2362947763472796,1.7631636646188795,-0.18619968542167917
1761338304559771000,4.81377099609375,1.6928519648998974,1.5366244613558053,-0.43999242272078987
1761338304569836500,4.82383642578125,2.109206322401762,1.3474633871115744,-0.6614085108164698
1761338304579902700,4.83390283203125,2.363082299271226,1.2401856463059782,-0.8014733265236019
1761338304589967600,4.843967529296875,2.384626607081294,1.1735749930620192,-0.9801050426427275
1761338304600033800,4.85403369140625,2.0509142924308774,1.0943404205664993,-1.1560087951026856
1761338304610099000,4.864098876953125,1.4791712202966212,1.1397808600097894,-1.2312591202676295
1761338304620164600,4.87416455078125,0.8161118004679679,1.2613320408396422,-1.1773655444514006
1761338304630230800,4.884230712890625,0.17377952684760092,1.3310843531101941,-1.0119386892769484
1761338304640295700,4.894295654296875,-0.322207754817605,1.4126163888931274,-0.8948495293572545
1761338304650361900,4.90436181640625,-0.582601735278964,1.4349834112629294,-0.8265840946435928
1761338304660427800,4.914427734375,-0.6752928784579039,1.4260225445635617,-0.8024326730750501
1761338304670492700,4.92449267578125,-0.5989531506210565,1.3945195911884307,-0.8272951655223966
1761338304680558600,4.93455859375,-0.6183031632572412,1.3951000214248894,-0.8059559518303722
1761338304690623700,4.944623779296875,-0.6568389378786087,1.3096131105363369,-0.6328039092313498
1761338304700690000,4.95468994140625,-0.6652583911776542,1.161097642674297,-0.3452073029372841
1761338304710755800,4.964755859375,-0.5862263555169105,1.0132703032068908,-0.1479384990911465
1761338304720820700,4.97482080078125,-0.41654783424735065,0.8817206562582403,-0.04521249417262151
1761338304730886700,4.98488671875,-0.1403928055524826,0.7313040309499949,0.0034884631702676414
1761338304740952800,4.994952880859375,0.20011399154365062,0.6214224643215537,-0.01344378426708281
1761338304751017700,5.005017822265625,0.5462257690399885,0.5276459735913201,-0.015249226253852248
1761338304761084000,5.015083984375,0.933980055001378,0.5102266732893884,0.014973861644882708
1761338304771148800,5.025148681640625,1.2308487859010695,0.46975415845178065,0.056400133543368425
1761338304781214700,5.035214599609375,1.4522756145864724,0.35669779771212484,0.2057743553929031
1761338304791280600,5.04528076171875,1.4120306979596613,0.30059653751747684,0.34579398025143887
1761338304801345800,5.055345703125,1.2100403911501167,0.38914650750476865,0.4031219874957576
1761338304811411700,5.06541162109375,0.9187199420273303,0.47474305278025564,0.36980939088277515
1761338304821477600,5.0754775390625,0.6269336289584636,0.4226881271006539,0.30072741562183947
1761338304831542800,5.085542724609375,0.28891338798105715,0.2772586790878325,0.20849895805120466
1761338304841608700,5.095608642578125,-0.12066577629745005,0.10228764090072363,0.015909626391343773
1761338304851673900,5.105673828125,-0.493103835183382,-0.05374496112577617,-0.17731661493256687
1761338304861739500,5.115739501953125,-0.7250970660686492,-0.16184391865376382,-0.2596965727817267
1761338304871805700,5.1258056640625,-0.8527677526921034,-0.2535641344413161,-0.13863587888255716
1761338304881870800,5.135870849609375,-0.9105348820060492,-0.2552081022560596,0.09615337592940777
1761338304891936800,5.145936767578125,-0.9067185385882854,-0.08812924209088087,0.2768241966607049
1761338304902002700,5.156002685546875,-0.8807797952115535,0.033170448195934295,0.3757909860430285
1761338304912067600,5.166067626953125,-0.8781535383611917,0.02647935305945575,0.3757065226299688
1761338304922133800,5.1761337890625,-0.912881152871251,-0.08701638547815382,0.27618746965974567
1761338304932198700,5.18619873046875,-0.9209376180768013,-0.2333916264411062,0.16251381727196276
1761338304942264800,5.196264892578125,-0.8797919532179832,-0.43750988519005474,-0.00817512314915657
1761338304952330800,5.206330810546875,-0.8629255740910768,-0.7318144646901636,-0.1612631961563602
1761338304962395600,5.216395751953125,-0.9629641574233769,-1.2464815315797924,-0.42447720247451215
1761338304972461800,5.2264619140625,-1.0041314495921134,-1.5694336750239133,-0.9015282764688134
1761338304982527700,5.23652783203125,-0.9618412908732891,-1.4033080239303408,-1.3880102092944084
1761338304992593000,5.246593017578125,-0.9564140051275491,-1.1859049708683043,-1.6911717567279934
1761338305002658800,5.256658935546875,-0.8966431347757577,-1.1166835506040602,-1.960798260436952
1761338305012723700,5.2667236328125,-0.6280857216030359,-1.2394795438632369,-2.230944111844897
1761338305022789600,5.27678955078125,-0.2820750663936138,-1.4717632821276783,-2.6734274745985864
1761338305032855800,5.286855712890625,0.10135551114976406,-1.7747458197325467,-3.6912878820747137
1761338305042920700,5.296920654296875,0.3982330098778009,-1.3025643610686064,-4.924109429353475
1761338305052986600,5.306986572265625,0.6577911240369081,-0.545172387529537,-5.5505321861803525
1761338305063052500,5.317052490234375,0.8601116857141256,-0.10541012030281126,-5.088132116818428
1761338305073117700,5.32711767578125,0.749092858684063,0.3088837244726717,-3.8888241320848462
1761338305083183900,5.337183837890625,0.2723182270109653,0.7267061817657202,-2.3203921814493835
1761338305093248800,5.347248779296875,-0.7954249862700701,0.7743397473391145,-0.7718971764925867
1761338305103314700,5.357314697265625,-2.0997703855365515,0.964693903825432,0.34720165509227663
1761338305113380600,5.367380615234375,-3.2597546601414678,1.373942374844849,1.0614484239857642
1761338305123445800,5.37744580078125,-3.923472836139798,1.8541551642730831,1.486832110313326
1761338305133511700,5.38751171875,-4.2035628661960365,2.1808676831640303,1.9005632797047494
1761338305143577900,5.397577880859375,-3.9051837307333943,2.26254555715844,2.279384317626059
1761338305153642800,5.407642822265625,-3.1709377280473707,2.336909016486257,2.346578762107342
1761338305163708700,5.417708740234375,-2.299343694332242,2.501026542627811,2.0591651111647487
1761338305173773800,5.42777392578125,-1.2964303883582353,2.507185649779439,1.6412575328715144
1761338305183839700,5.43783984375,-0.6937164238989353,2.3838613217972218,1.2793649795278905
1761338305193906000,5.447906005859375,-0.14685118791162965,2.3490919139720496,0.9065396748900413
1761338305203970600,5.457970458984375,0.5295037668198347,2.4370905154205857,0.6224047533571719
1761338305214036700,5.46803662109375,1.1341074905484914,2.412817805559933,0.4470268879348412
1761338305224102700,5.4781025390625,1.6404712047994137,2.1587987669579682,0.2887870033887215
1761338305234167800,5.488167724609375,1.996466662928462,1.9404193431444465,0.17652802183814345
1761338305244233700,5.498233642578125,2.276335159188509,1.985386465987563,0.23624940875871106
1761338305254298600,5.508298583984375,2.285475327977538,1.833860564263165,0.4251967123880982
1761338305264364800,5.51836474609375,2.088149505847692,1.5086507050201297,0.6671605715371668
1761338305274430700,5.5284306640625,1.8859306509792804,1.4061245426557958,0.8228535298131405
1761338305284496000,5.538495849609375,1.5869044497847555,1.5556557634316384,0.9451856318876146
1761338305294561500,5.5485615234375,1.2210609668582677,1.608019134005904,1.1800289915069937
1761338305304627700,5.558627685546875,0.8270704168558121,1.516813260948658,1.4300816106960177
1761338305314692600,5.568692626953125,0.3944833019554615,1.5259437851265072,1.547793359493464
1761338305324758800,5.5787587890625,0.06759352680146694,1.5044086835362016,1.4743679116681216
1761338305334823700,5.58882373046875,-0.06367430753111838,1.2871186623945832,1.3446286020770668
1761338305344889600,5.5988896484375,-0.02103051306903362,0.976901862687245,1.1321462734781205
1761338305354955800,5.608955810546875,0.22903905725479123,0.759919080863893,0.8853726028945297
1761338305365020700,5.619020751953125,0.7092366491138935,0.6931811479784548,0.6389894659984856
1761338305375086800,5.6290869140625,1.2747849582612514,0.618937661768496,0.49572753475047643
1761338305385152800,5.63915283203125,1.7445652010023593,0.6308344357892871,0.46516014519240706
1761338305395217700,5.6492177734375,2.0561773275256154,0.5999313845360651,0.37579924241472035
1761338305405283600,5.65928369140625,2.0923475420594215,0.38188502860181034,0.14901492355046794
1761338305415348700,5.6693486328125,1.9409978736847637,0.14389821985755116,-0.18795315975919366
1761338305425415000,5.679414794921875,1.6777806524962187,-0.14006236802171915,-0.5339234098929911
1761338305435480800,5.689480712890625,1.3517530471295118,-0.2479312431208789,-0.8311149430062621
1761338305445545700,5.699545654296875,0.937792306765914,-0.34917467219829557,-1.048470211403817
1761338305455611600,5.709611572265625,0.43449967052340505,-0.4555890376402065,-1.3440192380070686
1761338305465677800,5.719677734375,-0.00978022025823593,-0.5419446576546877,-1.6447990048706531
1761338305475742700,5.72974267578125,-0.3879407484441995,-0.5857900099262595,-1.8679232851237058
1761338305485808600,5.73980859375,-0.5597270556479692,-0.6544242779523134,-2.0303515430040657
1761338305495873800,5.749873779296875,-0.753233027228713,-0.6308653423842042,-2.007717101869732
1761338305505939700,5.759939697265625,-0.9236264187693596,-0.7126368129462003,-2.04952049998492
1761338305516005600,5.770005615234375,-1.0667717379003763,-0.8374979951068758,-2.2266456839986146
1761338305526070800,5.78007080078125,-1.1532312932133675,-1.1874972815610467,-2.3381857584238053
1761338305536136700,5.79013671875,-1.3922896401792764,-1.4536483642444014,-2.473215575638413
1761338305546202600,5.80020263671875,-1.5803823545396327,-1.5371920321106909,-2.629505623024702
1761338305556267800,5.810267822265625,-1.70991182077229,-1.443803115925938,-2.5553964307188988
1761338305566333700,5.820333740234375,-1.8314935428708792,-1.2966972226008773,-2.2539476785525676
1761338305576398600,5.830398681640625,-1.879174746978283,-1.4533501119501888,-2.081677825615555
1761338305586464800,5.84046484375,-1.82526253952682,-1.7805594744473694,-2.2610434820324183
1761338305596530700,5.85053076171875,-1.80305012319684,-1.9349419346466659,-2.530524439790845
1761338305606595800,5.860595947265625,-1.723067654943466,-1.5814368320286274,-2.6061551425755023
1761338305616661800,5.870661865234375,-1.5227870746612548,-0.8896906122241168,-2.1474445753812788
1761338305626728000,5.88072802734375,-1.3011071479976177,0.15080354226659984,-1.1431496788557618
1761338305636792600,5.89079248046875,-0.8979448650240898,1.3471524214662611,0.13665252304561434
1761338305646858800,5.900858642578125,-0.37695933570265766,2.093918298507482,1.271156246370077
1761338305656923600,5.910923583984375,0.09854396086037158,2.159772580426186,1.8833732215814292
1761338305666989800,5.92098974609375,0.48910161380469797,1.590793127786368,1.9852537795186043
1761338305677055700,5.9310556640625,0.7589309466093778,0.8366159515753387,1.8186165256410836
1761338305687120600,5.94112060546875,0.8460796532303094,0.08184135746043175,1.5380689610756932
1761338305697186800,5.951186767578125,0.8497744160950184,-0.440644018497318,1.2624464318223296
1761338305707252700,5.961252685546875,0.9351800784409046,-0.7269694358117879,1.1509360218830407
1761338305717318000,5.97131787109375,1.0260475133240223,-0.8519767484448849,1.203606631775573
1761338305727383600,5.981383544921875,0.9791723649024963,-0.8088824337363243,1.3314999481737613
1761338305737448700,5.99144873046875,0.7784691752940416,-0.4570241484772414,1.453611539365351
1761338305747514600,6.0015146484375,0.5952741698473691,0.051578832600452006,1.5362179263815283
1761338305757580800,6.011580810546875,0.49762102034687994,0.696548870845884,1.5770562788568436
1761338305767646000,6.02164599609375,0.3731675422042608,1.3677211622424423,1.3783227818861603
1761338305777711600,6.031711669921875,0.3238976076006889,1.7468837070778012,0.9814359989855438
1761338305787777500,6.041777587890625,0.41946050682365893,1.676067711098492,0.3189312904302031
1761338305797842700,6.0518427734375,0.5366565611839295,1.7893689499773084,-0.24308204952403903
1761338305807908900,6.061908935546875,0.49777708769142626,1.617381713373959,-0.9069335695784538
1761338305817973500,6.071973388671875,0.6441840389668941,1.4880546378456054,-1.3878329530313611
1761338305828039700,6.082039794921875,0.9436749350637197,1.381247729422152,-1.8363859910875557
1761338305838105600,6.092105712890625,1.3059417285472155,1.20248829527013,-2.2220703389070926
1761338305848170800,6.102170654296875,1.476359085485339,0.713192254871875,-2.550776077441871
1761338305858236700,6.112236572265625,1.3623895919561386,0.16558084015976637,-2.820354065833986
1761338305868302800,6.122302734375,0.8623995043903588,0.0018763517985120415,-2.8225995066732166
1761338305878367700,6.13236767578125,0.24218904620707032,-0.0991428766015917,-2.333729217406362
1761338305888433700,6.14243359375,-0.0900204626649618,-0.11450632208595052,-1.5397551605969666
1761338305898498600,6.15249853515625,-0.2623860310614109,-0.039033677673526106,-0.8888527731604874
1761338305908564500,6.162564453125,-0.4032581445634365,0.16978627422666176,-0.34656262653637676
1761338305918630700,6.172630615234375,-0.4563105203151703,0.5411674262044951,0.04255852733142674
1761338305928695600,6.182695556640625,-0.5268921230167151,1.0087967379894107,0.34662272269316013
1761338305938761700,6.19276171875,-0.4678285241514444,1.2952015772156416,0.5009451232682913
1761338305948827400,6.202827392578125,-0.3393441830575466,1.2573925094336271,0.42290348688438534
1761338305958892500,6.212892578125,-0.12799918792545795,0.9875250365756452,0.22636965538244694
1761338305968958700,6.222958740234375,0.25346447345912454,0.7839187459368259,0.10928084252262488
1761338305979023600,6.233023681640625,0.7493699220597744,0.5825631933668628,-0.08384476970471441
1761338305989089500,6.243089599609375,1.2317366746515035,0.27446795239076016,-0.2774771258777939
1761338305999155500,6.253155517578125,1.6052625287741422,0.10605451915357261,-0.6031348932851106
1761338306009220600,6.263220703125,1.832808717122674,0.15758973180800676,-0.9760844088245183
1761338306019286500,6.27328662109375,1.779970860904455,0.381059026106447,-1.1937979160752146
1761338306029352700,6.283352783203125,1.3273977735519409,0.7104930789157747,-1.1474789402317256
1761338306039417600,6.29341748046875,0.8054583045065402,1.0827904141567646,-0.7433412363547831
1761338306049483500,6.3034833984375,0.3861298996299505,1.2575805793516337,-0.2726699630580842
1761338306059548700,6.313548583984375,0.130005851572752,1.1917162874955682,0.028363120979443192
1761338306069614600,6.323614501953125,-0.09105448188781738,1.0161168517444281,0.18396125884512438
1761338306079680800,6.3336806640625,-0.4087824609428644,0.9088095195181667,0.20408895958922801
1761338306089745400,6.343745361328125,-0.7885416564971208,0.9654425302356481,0.31429997736774384
1761338306099811600,6.3538115234375,-1.2091986796289682,1.1889042257495224,0.4960742292962968
1761338306109877500,6.36387744140625,-1.7050813318759201,1.290633538647741,0.5935539949912577
1761338306119942700,6.373942626953125,-1.984166568803787,0.9047970690064132,0.682775050906837
1761338306130008600,6.384008544921875,-2.018632317507267,0.448333403956145,0.5354991713097319
1761338306140073500,6.394073486328125,-1.9082249003738163,-0.0015287439372390509,0.11931748522734269
1761338306150139600,6.4041396484375,-1.5820383050531148,-0.5214480322666466,-0.4482002425631508
1761338306160205600,6.41420556640625,-1.1204448758989571,-1.0016809146348387,-1.0057171113483607
1761338306170270700,6.424270751953125,-0.6502689118385314,-1.4026025060094893,-1.3802299306817352
1761338306180336600,6.434336669921875,-0.16458967369794844,-1.708685932239145,-1.5701017835438251
1761338306190402600,6.444402587890625,0.3835001356482506,-1.8950389633253215,-1.4774471729829906
1761338306200467700,6.4544677734375,0.7115747366726398,-1.920034142241627,-1.095583114103973
1761338306210533600,6.46453369140625,0.7385223648309707,-1.8795636001653968,-0.626421880044043
1761338306220598800,6.474598876953125,0.5122866745591164,-1.877395170085132,-0.24156927034091202
1761338306230664400,6.48466455078125,0.2396937222599983,-1.7985050271131098,-0.017631920139305292
1761338306240730600,6.494730712890625,0.05362871433496475,-1.5762809105701743,0.10347632096232846
1761338306250795500,6.50479541015625,-0.11197452031970023,-1.4489207512006164,0.17954512290330601
1761338306260861700,6.51486181640625,-0.170025142750144,-1.5703822079204022,0.30837036812305446
1761338306270927600,6.524927734375,-0.2942880667567253,-1.7244446423850952,0.22698853619946166
1761338306280992500,6.534992431640625,-0.3881915083348751,-1.6278624831169843,-0.1893131960660219
1761338306291058400,6.545058349609375,-0.3900730842977762,-1.4979276509538293,-0.6722383862581104
1761338306301123600,6.55512353515625,-0.4416255768805742,-1.5105457249864935,-0.7583773313146084
1761338306311189800,6.565189697265625,-0.707255119907856,-1.3534282868653535,-0.4590427217580378
1761338306321255700,6.575255615234375,-1.2584382190942764,-1.3654175614751876,-0.04310518316244706
1761338306331320600,6.585320556640625,-1.91806532638669,-1.284202628817409,0.33127507756613195
1761338306341386500,6.595386474609375,-2.5740631372660396,-1.0609573525331915,0.682734865026921
1761338306351452700,6.60545263671875,-3.206991038203239,-0.8079903802674263,1.0439645705476404
1761338306361517600,6.615517578125,-3.62023749281764,-0.4656285298891365,1.4288146595001219
1761338306371583700,6.625583740234375,-3.6536657151669263,-0.11345489507056772,1.7949124094486235
1761338306381648600,6.635648681640625,-3.38804493996799,0.3455537782873958,2.125440541104972
1761338306391714600,6.645714599609375,-2.9409219347149134,0.7411749251663684,2.381604482781142
1761338306401780500,6.655780517578125,-2.3220453554838896,1.1241892500590533,2.4763801771491765
1761338306411845600,6.665845703125,-1.586239848396182,1.5427974509023128,2.4225837050318715
1761338306421911800,6.675911865234375,-0.9222235662341117,1.8633344960287213,2.2430983677580953
1761338306431977500,6.6859775390625,-0.2764408598989248,2.0344303367502987,1.9608888613298534
1761338306442042600,6.696042724609375,0.4492167626619339,2.114222981519997,1.5082459236115215
1761338306452108500,6.706108642578125,1.1344634643793106,2.0751038540527222,0.9023406157650053
1761338306462173700,6.716173583984375,1.7469103028237818,1.9435607099100947,0.2597740219321102
1761338306472239600,6.726239501953125,2.320339720609784,1.7898467966221272,-0.2937741441515274
1761338306482305500,6.736305419921875,2.8530647875636816,1.7083083310984073,-0.7866991704355925
1761338306492370700,6.74637060546875,3.2855911121875048,1.5541063420325516,-1.2057160982102155
1761338306502436600,6.7564365234375,3.5593928557544943,1.2426362543284892,-1.5457902029775081
1761338306512502800,6.766502685546875,3.5263831510782238,0.9249038182940333,-1.7309264056198297
1761338306522567400,6.7765673828125,3.2442391111016273,0.7150031767513603,-1.778288899166882
1761338306532633600,6.786633544921875,2.7442314878791567,0.7592113709859549,-1.6218252487793563
1761338306542698500,6.796698486328125,1.9558049821943044,0.7494596461698413,-1.3708032000362873
1761338306552764700,6.8067646484375,0.8972568827599287,0.7081585715536027,-1.0499579657435416
1761338306562830600,6.81683056640625,-0.18880583106577395,0.744284873880446,-0.7766337765604258
1761338306572895500,6.8268955078125,-1.0428688842654228,0.7655422545079141,-0.4452419407468289
1761338306582961700,6.836961669921875,-1.6140625058233737,0.7306041390523315,-0.15310615665316582
1761338306593027600,6.847027587890625,-1.8665479051172733,0.651945832074806,0.12563976531773804
1761338306603092700,6.8570927734375,-1.9062661675214767,0.676021777254343,0.41146622013412415
1761338306613158700,6.86715869140625,-1.7344465425699949,0.7429490221668035,0.5429846316942945
1761338306623223600,6.8772236328125,-1.365419168910384,0.7455942029133439,0.5888246649144216
1761338306633289500,6.88728955078125,-0.8545692491561174,0.6708536539014428,0.6127768741164357
1761338306643355600,6.897355712890625,-0.26609189984202386,0.5165220471065491,0.555732396521233
1761338306653420800,6.9074208984375,0.2674842309832573,0.2077498932495713,0.3979730802999809
1761338306663486700,6.91748681640625,0.6779530375778675,-0.09149535752311348,0.10887995183784514
1761338306673552600,6.927552734375,0.9840525381594896,-0.3522450195543468,-0.28630689527709036
1761338306683617500,6.937617431640625,1.2242723301202059,-0.6331001156989484,-0.7424846925906836
1761338306693683700,6.94768359375,1.4347534018993378,-0.9375419122014195,-1.157597963990271
1761338306703748600,6.95774853515625,1.5378139634013175,-1.1500529554381966,-1.4648770297452807
1761338306713814500,6.967814453125,1.5159668732523917,-1.2780617879748344,-1.6991610019162295
1761338306723880400,6.97788037109375,1.4616864170104265,-1.4256855676941573,-1.7847236083894966
1761338306733945600,6.987945556640625,1.4149848715901374,-1.485058378639072,-1.774257890085131
1761338306744011500,6.998011474609375,1.2171055072307586,-1.577889222549647,-1.8023140640072524
1761338306754077700,7.00807763671875,0.9347644833773374,-1.6843335812710225,-1.8911751275040207
1761338306764142600,7.018142578125,0.8370441138595343,-1.8207284032285211,-1.8837674815960228
1761338306774208500,7.02820849609375,0.7534691740721464,-2.033607476060092,-1.885473408731073
1761338306784273700,7.038273681640625,0.7157786181032657,-2.2965827051863075,-1.9010821890123188
1761338306794339600,7.048339599609375,0.5806412488609553,-2.4552923809349534,-1.9311290983602403
1761338306804405800,7.05840576171875,0.24012802202403544,-2.478635847121477,-1.9350985865131018
1761338306814470700,7.068470703125,-0.33182606251239777,-2.269985644031316,-1.8672015467204153
1761338306824536600,7.07853662109375,-0.884141380599141,-1.9805195906035602,-1.6884382401108742
1761338306834602500,7.0886025390625,-1.4010077841639519,-1.7341446370139717,-1.3851882837414742
1761338306844667600,7.098667724609375,-1.8548785101115703,-1.4640087224781513,-1.014477194778621
1761338306854733800,7.10873388671875,-2.311660155069828,-1.0188558482542633,-0.6290113850805908
1761338306864798500,7.118798583984375,-2.676904503059387,-0.334131197649613,-0.23257636453546582
1761338306874864600,7.12886474609375,-2.987847352018952,0.47888723991289733,0.17798004727736114
1761338306884930600,7.1389306640625,-3.009425562098622,1.1152779946550726,0.5655137492906301
1761338306894995700,7.14899560546875,-2.4990531967282292,1.3768171996288001,0.929969504185766
1761338306905061000,7.15906103515625,-1.5261720409244297,1.5434828028179703,0.8737246160030364
1761338306915127000,7.169126953125,-0.5457201576054096,1.5263380451411008,0.5354285537589341
1761338306925192200,7.179192138671875,-0.02564648243188858,1.1795108859170227,0.17451503804791718
1761338306935258000,7.189258056640625,-0.030264205360412594,0.7617261302858591,0.13378953482992947
1761338306945324300,7.19932421875,-0.41215515224635596,0.36081169930435714,0.5766144044976681
1761338306955389000,7.209388916015625,-1.0570832875788212,0.2472290862008929,1.0838105509847402
1761338306965455000,7.219455078125,-1.5964958694726228,0.5773143329279496,1.1851997452083975
1761338306975520300,7.229520263671875,-2.008412536787987,1.0415643775381147,1.1062342719778417
1761338306985586200,7.239586181640625,-2.1506682136029003,1.343145670042932,1.2795818371489642
1761338306995652000,7.249652099609375,-1.9678975710481403,1.4687996100164948,1.725190053924918
1761338307005717000,7.259717041015625,-1.5316466729432343,1.4749031875886023,2.0442899058550594
1761338307015783200,7.269783203125,-0.913662658637762,1.466204186695814,2.014752845725417
1761338307025848000,7.27984814453125,-0.261460732910037,1.2773209064796567,1.8658610918968914
1761338307035914200,7.289914306640625,0.2915647792726755,1.042914038581401,1.6540367888152598
1761338307045980200,7.299980224609375,0.8078630275607108,0.8386029606740921,1.4090757936768232
1761338307056045000,7.310045166015625,1.2524620672941207,0.7431011439885944,1.1295075224723665
1761338307066111000,7.320111083984375,1.6286381436645985,0.7020476874578744,0.9090940355479716
1761338307076177200,7.33017724609375,2.043155348867178,0.6965951211404054,0.786204080395028
1761338307086242300,7.3402421875,2.460598086127639,0.6731156805492937,0.6843802941463887
1761338307096308000,7.350307861328125,2.7633482762813566,0.5760047116341069,0.5638776725213974
1761338307106373000,7.360373046875,2.8658582181632517,0.45696558669041837,0.3932924847356975
1761338307116439000,7.37043896484375,2.641062789827585,0.3764255576195195,0.24785463422071188
1761338307126505200,7.380505126953125,2.2258149322628973,0.2937886476009153,0.07639682831894606
1761338307136570000,7.390570068359375,1.8495424097806215,0.15188056038096545,-0.03640197746306657
1761338307146636000,7.400635986328125,1.4578917009025811,-0.03762209384255111,-0.017458262339141217
1761338307156702000,7.410701904296875,1.012481929308176,-0.13875391577165572,0.05088442059550434
1761338307166767000,7.42076708984375,0.45021687961518764,-0.1346160487819463,0.12998497318150476
1761338307176833300,7.430833251953125,-0.12734627697467804,-0.0738823247473687,0.16285685855597257
1761338307186898000,7.44089794921875,-0.6863871039241551,0.015033318480849265,0.21447324668783693
1761338307196964000,7.450964111328125,-1.1255424912989138,0.06442351846322417,0.29744649425502867
1761338307207030000,7.461030029296875,-1.368744513940811,0.024466332736611366,0.4821835780445486
1761338307217095200,7.47109521484375,-1.3950707953304051,-0.05498443979285657,0.580928833630681
1761338307227161000,7.4811611328125,-1.1367536211431026,-0.12360226814076304,0.5476859777856617
1761338307237227300,7.491227294921875,-0.7211129648685455,-0.21686638890206814,0.4915707073319703
1761338307247292200,7.501292236328125,-0.30519524521827696,-0.26255247366949913,0.5619964618846773
1761338307257358000,7.511358154296875,0.06600187369585037,-0.17611154999174178,0.7271731416903435
1761338307267423200,7.52142333984375,0.26301556113660335,-0.083093951337412,0.8923906649630516
1761338307277489200,7.5314892578125,0.33470658638477324,-0.069346507948637,1.0030276530686766
1761338307287555300,7.541555419921875,0.3717190969616174,-0.0931616102349013,1.056025449088961
1761338307297620000,7.551619873046875,0.3628103988409042,-0.17327734947912393,0.9843633576743304
1761338307307686100,7.56168603515625,0.3909662337452173,-0.3248817232672125,0.8459476243484765
1761338307317752000,7.571751953125,0.5068634804666042,-0.5245663834828883,0.6515287026412785
1761338307327817200,7.581817138671875,0.5562386290103197,-0.7522421895604581,0.3768733013870194
1761338307337883000,7.5918828125,0.5376338817834854,-0.8632885621845722,0.189094548346661
1761338307347949000,7.601948974609375,0.43838031134903427,-0.8892682951588183,0.10075131644522771
1761338307358014200,7.61201416015625,0.2752724006414413,-0.8397901976972818,0.16652336344057694
1761338307368080100,7.622080078125,0.19444062208235263,-0.7729038693170994,0.21763477945867923
1761338307378145300,7.632145263671875,0.23824761510491368,-0.7909983289342373,0.16600728541091084
1761338307388211000,7.6422109375,0.35779344746172426,-0.8929296672105789,0.05806375590665266
1761338307398277000,7.652277099609375,0.4214648323833942,-1.1057648278351873,-0.11450239482950418
1761338307408342000,7.662342041015625,0.29202772060930726,-1.3048812597088515,-0.3860873756624758
1761338307418408200,7.672408203125,0.17987901276648044,-1.3479258900567888,-0.6539852289479225
1761338307428473000,7.68247314453125,0.05564356128871441,-1.262015785320103,-0.7490223507311194
1761338307438539000,7.6925390625,-0.005864508119225502,-1.2070240390036255,-0.7575881536982954
1761338307448605200,7.702605224609375,0.13633505459427833,-1.199454772793129,-0.6407858478959649
1761338307458670000,7.712670166015625,0.2921434559434652,-1.2528183333858847,-0.5839174209874123
1761338307468736300,7.722736328125,0.362344534894824,-1.368643245523423,-0.5681641176689416
1761338307478802200,7.73280224609375,0.2104804872572422,-1.3891057494461536,-0.49739700233265755
1761338307488867000,7.7428671875,-0.19179624505341053,-1.3349541802808642,-0.41189909512605516
1761338307498933000,7.75293310546875,-0.7703875756472349,-1.283547525909543,-0.2701945859204978
1761338307508999200,7.762999267578125,-1.3605933561891317,-1.3380125449381768,-0.16462616978343575
1761338307519064000,7.77306396484375,-1.7040134103834628,-1.2517857754677533,-0.20131138463467357
1761338307529130000,7.7831298828125,-1.8700018449634312,-0.7983200501244515,-0.49812750856429333
1761338307539195100,7.793195068359375,-1.7892928160011767,-0.24390432569235562,-0.29027240137457844
1761338307549261000,7.803260986328125,-1.4594839385300873,-0.45029637459218497,0.5622178860830143
1761338307559327200,7.8133271484375,-1.2280956878006457,-0.7220354865409433,1.184477349217981
1761338307569392000,7.82339208984375,-1.4903905334472656,-0.8140783218789845,1.6148991027779875
1761338307579458000,7.8334580078125,-1.9712053804218768,-0.6963849855210632,2.0698463719159363
1761338307589524000,7.84352392578125,-2.4292455010086296,-0.3373560779802501,2.531769471415877
1761338307599589000,7.853589111328125,-2.8159885641008615,0.05649418676868081,2.9636805867508054
1761338307609655000,7.863655029296875,-3.149745886936784,0.5253231201343238,3.279568198636174
1761338307619720000,7.873719970703125,-3.464649456220865,1.0602752154879271,3.5295173574507235
1761338307629786000,7.8837861328125,-3.498457617798447,1.584285937849432,3.508194875697791
1761338307639852000,7.89385205078125,-3.173820590007305,1.9537126860901712,3.139426152974367
1761338307649917200,7.903917236328125,-2.433397944512963,2.140572497654706,2.5392794086545702
1761338307659983000,7.913983154296875,-1.5036515815585851,2.1783152222022415,1.8580768677614627
1761338307670049300,7.92404931640625,-0.410737686663866,2.002858409792185,1.1220999496296047
1761338307680114000,7.934114013671875,0.6976976024895906,2.0047752031989394,0.3279818081744015
1761338307690180000,7.94418017578125,1.7093126858353613,1.8476704784289002,-0.5400426964908838
1761338307700245200,7.954245361328125,2.634793208038807,1.6243556440398097,-1.3187684768944978
1761338307710311200,7.964311279296875,3.2888889846891165,1.2616412529192864,-1.9680793573558328
1761338307720377000,7.974377197265625,3.6627117759317156,0.7492633198801427,-2.5179618953377005
1761338307730442000,7.98444189453125,3.683687343943119,0.2570941351983696,-2.904960979017615
1761338307740508200,7.994508056640625,3.2553152163892984,-0.20405871058143674,-3.018806261645257
1761338307750573000,8.004572998046875,2.379812484797835,-0.466047011029534,-2.6155337962955234
1761338307760639200,8.01463916015625,1.3448369841307402,-0.35086310020927336,-1.7530369690105319
1761338307770705000,8.024704833984375,0.20388649581968782,0.04836282969601452,-0.7144462004557252
1761338307780770000,8.03477001953125,-0.9010551059991121,0.6076097736768424,0.3087954616673291
1761338307790836000,8.0448359375,-1.6828367668420074,1.0768179886836557,1.2609062166430056
1761338307800902100,8.054902099609375,-2.018158270254731,1.488224295324087,2.0629589504897594
1761338307810967300,8.06496728515625,-1.9388924258381126,1.733259232481569,2.5809078885942696
1761338307821033000,8.075032958984375,-1.5440426286578177,1.6450141089260577,2.7460315230384467
1761338307831098000,8.08509814453125,-1.022353334981203,1.610893228137493,2.617575238995254
1761338307841164000,8.0951640625,-0.5135866512417793,1.4543164727643132,2.2324691294550894
1761338307851230200,8.105230224609375,-0.04473579830527305,1.0749304944366216,1.6201748512238263
1761338307861295000,8.115295166015626,0.39899405737817284,0.6500789422243833,0.8667619373835623
1761338307871361000,8.125361083984375,0.706093090391159,0.24579744596257805,0.14899744269270448
1761338307881427000,8.135427001953126,0.9073661888420581,-0.0942606575179845,-0.45056792154256253
1761338307891492000,8.1454921875,0.9827595757395029,-0.27754560627043245,-0.8939126138333231
1761338307901558000,8.15555810546875,0.9454846148341893,-0.2993584288235754,-1.236831075181067
1761338307911623000,8.165622802734376,0.9368220004290342,-0.23763313646838066,-1.3860298491321503
1761338307921689000,8.175689208984375,0.9844073429465293,-0.11051577287875115,-1.4029570185355842
1761338307931755000,8.185755126953126,0.9631067807644605,0.06069909111261367,-1.2994151032574475
1761338307941820000,8.19581982421875,0.7823369566380978,0.05609145118668675,-1.1291020104113965
1761338307951885800,8.2058857421875,0.5697030907392502,-0.010326675159856677,-1.0848714582145214
1761338307961952000,8.215951904296874,0.4612836325526237,0.19032419973947107,-1.026622682863474
1761338307972017200,8.22601708984375,0.4813005846649408,0.24610139734521508,-0.8972554214552044
1761338307982083000,8.2360830078125,0.48312370843887326,0.1508396730259061,-0.7872178605474531
1761338307992148000,8.24614794921875,0.4125555497407913,0.07628828991055488,-0.7203894728995859
1761338308002214000,8.2562138671875,0.24025837040543555,-0.054232817707955835,-0.6527270455803722
1761338308012280000,8.266280029296874,-0.13966449127793312,-0.06952595616877079,-0.5545596994800492
1761338308022345000,8.276344970703125,-0.6216776081264018,-0.088822777312994,-0.6250086522452533
1761338308032411000,8.286410888671876,-0.8593272573381662,-0.12703458067700266,-0.7215342590205371
1761338308042476800,8.296476806640625,-0.8081494432866573,-0.04963416480608284,-0.8246060725688934
1761338308052542000,8.3065419921875,-0.6254477743148803,0.05840045878142118,-0.8683109934564679
1761338308062608100,8.316608154296874,-0.5124310514658689,0.21200703923739492,-0.8409274580989032
1761338308072673000,8.326673095703125,-0.44303369011282917,0.20458989484868942,-0.7347630122974514
1761338308082739000,8.336739013671876,-0.4597212055414915,0.11821575279682874,-0.8895185435928403
1761338308092804900,8.346804931640625,-0.5771867244929075,0.22491233271360395,-1.2424630897186695
1761338308102870000,8.3568701171875,-0.8289215976804495,0.2139876185953617,-1.4616690274842083
1761338308112936000,8.36693603515625,-1.0887614513903856,-0.4833095863997936,-1.8386735175028441
1761338308123002000,8.377002197265625,-1.108639871814847,-1.2101231009975075,-2.5878344729870557
1761338308133068000,8.387068115234374,-0.8385100947588682,-0.8462692575182765,-2.959562630037963
1761338308143133000,8.3971328125,-0.3159498634666204,0.025341800396889446,-1.7852509932644665
1761338308153198800,8.40719873046875,0.4428390443235635,0.31494251305498183,0.20635800049975514
1761338308163265000,8.41726513671875,1.1949380990862846,0.6582768617272376,1.7332615705691277
1761338308173330200,8.427330078125,1.5293138460814952,1.0785535072393715,2.6338962591990827
1761338308183395800,8.437395751953124,1.475311037737131,1.0107830164358018,3.2819264522001146
1761338308193462000,8.4474619140625,1.2545552401810884,0.4635558152683079,3.6779508461177346
1761338308203527000,8.45752685546875,0.9922077875643968,-0.10923150522187351,3.6878912253737446
1761338308213593000,8.467593017578125,0.7408581143021583,-0.5263220680437982,3.275321354846656
1761338308223659000,8.477658935546875,0.42293665850162504,-0.9288870427113026,2.442762277446687
1761338308233724000,8.487723876953124,-0.006354921984672546,-1.6205911769397556,0.9774756439872085
1761338308243789800,8.497789794921875,-0.5382751022964716,-2.5107690612241624,-1.0283819476209581
1761338308253855000,8.50785498046875,-0.9153922589093446,-2.5906606363236904,-2.489215693324804
1761338308263921000,8.5179208984375,-0.9112357237517833,-1.4395651860952376,-2.934914803254604
1761338308273987000,8.527987060546875,-0.7619540938228369,-0.4124211827713996,-2.515829851745069
1761338308284052000,8.538052001953124,-0.3598433657288551,0.15102394355162976,-1.898595632893592
1761338308294118000,8.548117919921875,0.17328852846026419,1.096801769178733,-0.5523687287744135
1761338308304184000,8.55818408203125,0.05859072065651416,1.1635685628324746,0.9362732805050908
1761338308314249000,8.5682490234375,-0.3023527152687311,0.8552789317954331,1.9687892591908573
1761338308324315100,8.578315185546876,-0.4462392081558704,0.9236594442561268,2.5690374180585143
1761338308334380000,8.588380126953124,-0.5402677374184132,0.901064093023166,2.9385788787201044
1761338308344446000,8.598446044921875,-0.5681307268559932,0.6424001512248069,3.017146219478547
1761338308354512000,8.608511962890624,-0.4165466652035713,0.42042533326782283,2.9281439939454197
1761338308364577000,8.618576904296875,-0.1447492471963167,0.26932423282675444,2.753444137382507
1761338308374643200,8.628643310546876,0.3218219703704119,0.24180370015129446,2.489248134289682
1761338308384708900,8.638708984375,0.9685252986818551,0.20066943346932528,2.064052298684418
1761338308394774000,8.64877392578125,1.4806775332063435,0.07448993525169789,1.567004402050376
1761338308404840000,8.65883984375,1.84544198872447,0.027601123631000517,1.0972686560381204
1761338308414905000,8.668905029296875,1.9921745186924933,0.09833557880669831,0.6368070804581045
1761338308424970800,8.678970703125,1.8449089047610758,0.038263241290301085,0.3096072895068675
1761338308435037000,8.689036865234375,1.4867080455422401,-0.1202596797145903,0.2147903132803738
1761338308445102000,8.69910205078125,0.9727227503716945,-0.20891499150618908,0.1905207452248782
1761338308455168000,8.70916796875,0.4205599924981594,-0.11517375475242733,0.17084822263605892
1761338308465234000,8.71923388671875,-0.2012163998275995,0.19680588990896938,0.1629751146407798
1761338308475298800,8.729298828125,-0.8496282856225967,0.3426914476588368,0.18119973997622726
1761338308485365000,8.739364990234375,-1.3392051157236098,0.35106750020757316,0.18169388016872107
1761338308495430000,8.749429931640625,-1.501855930313468,0.2550546652600169,0.19477292277663946
1761338308505496000,8.75949609375,-1.298499595847726,0.04548530149832368,0.18006262570507822
1761338308515562000,8.76956201171875,-0.8787281233787536,-0.21372677570208906,0.20896694088913498
1761338308525627000,8.779626953125,-0.4219926556497812,-0.44881081220954655,0.2429780046276748
1761338308535693000,8.789693115234375,0.010989596047997475,-0.6176683724850416,0.19887674136627465
1761338308545759000,8.799759033203125,0.4918839379996061,-0.5209072033882141,0.2639886439524591
1761338308555824000,8.80982421875,0.8626648773282766,-0.6033183600932359,0.4370571729864925
1761338308565890000,8.81989013671875,1.1132476578712462,-0.8407974750436842,0.5992214461684227
1761338308575955000,8.829954833984376,1.2530740617126226,-1.0674401386812329,0.6736907039582729
1761338308586020900,8.840020751953125,1.2522615762859581,-1.099211825995147,0.7036255312338471
1761338308596087000,8.850087158203126,1.1251689818114041,-1.086430231963843,0.7600664534453302
1761338308606152000,8.86015185546875,0.9059171590775251,-1.071965068759769,0.8034641350146382
1761338308616218000,8.870218017578125,0.6472247218370437,-1.0132887156464159,0.7937675744518637
1761338308626283800,8.88028369140625,0.3400198903620243,-0.8590889185376465,0.667680503758043
1761338308636349000,8.890348876953125,-0.018470891714096067,-0.6971966672301292,0.49691652533933517
1761338308646415000,8.9004150390625,-0.35457448541522024,-0.4645622158318758,0.42726694279089567
1761338308656480000,8.91047998046875,-0.6808867529422045,-0.4656606785930693,0.1742006018038839
1761338308666546000,8.9205458984375,-0.9419593633174895,-0.6048790335386991,-0.2861502982095815
1761338308676611800,8.93061181640625,-1.124613686016202,-0.75099109352082,-0.7709200750887394
1761338308686677000,8.940677001953125,-1.1482184334874153,-0.9746484577372669,-1.028119205031544
1761338308696743000,8.950742919921876,-1.079573936328292,-1.1132485346540808,-0.9413092288456857
1761338308706809000,8.96080908203125,-1.0969885969877242,-1.0460613966964185,-0.7113438505262136
1761338308716874000,8.9708740234375,-1.3110387594252824,-0.7671027087576687,-0.4308771326446906
1761338308726940000,8.98093994140625,-1.5202730460137128,-0.43368207053020597,-0.1611295963719487
1761338308737005000,8.991005126953125,-1.598666199249029,-0.15173457603901624,0.16655061677368357
1761338308747071000,9.001071044921876,-1.5928952146321533,0.058578153435885905,0.4956169870480895
1761338308757137200,9.01113720703125,-1.4177467375189066,0.16171309534832834,0.7420065536849201
1761338308767201800,9.021201904296875,-1.0973147602021693,-0.03979220442324877,1.0219080754317342
1761338308777268000,9.03126806640625,-0.7311965519875288,-0.29982889587953687,1.1189201505497097
1761338308787334000,9.041333984375,-0.1462783564597368,-0.12875950477346776,1.1395790538273751
1761338308797399000,9.05139892578125,0.4411450998872518,-0.025166005438566206,1.2782203395374119
1761338308807465000,9.06146484375,0.7114309442877769,-0.13851546737328171,1.6968971486374735
1761338308817529900,9.07152978515625,0.675544222870469,-0.2629993406541645,2.1501891979143024
1761338308827596000,9.081595947265624,0.4646265132397413,-0.10268654055781662,2.4358085127860307
1761338308837662000,9.091661865234375,-0.15388357076644896,0.13903196552805602,2.460865797153115
1761338308847727000,9.10172705078125,-0.9955167659819125,0.27486937279850243,2.4120003516972064
1761338308857793000,9.11179296875,-1.7049445537537335,0.41184754760190845,2.508793084976077
1761338308867859000,9.12185888671875,-2.2419804696440697,0.5551910196535289,2.597606509938836
1761338308877923800,9.131923828125,-2.5471377209395167,0.8108639629423617,2.561341310597956
1761338308887990000,9.141989990234375,-2.538698393896222,1.197359042622894,2.412393150407076
1761338308898055200,9.15205517578125,-2.28407247544229,1.4884167491562663,2.182301076968014
1761338308908121000,9.16212109375,-1.8131442317098379,1.6149122545205055,1.807608517153561
1761338308918187300,9.172187255859376,-1.0606991399884222,1.4761162166401742,1.29044400742501
1761338308928252000,9.182251953125,-0.1554717167407274,1.1459838063031433,0.6547923806123435
1761338308938318000,9.192318115234375,0.7424819161117077,0.7299794312827289,-0.0643102673470974
1761338308948384000,9.202384033203124,1.6042302631169556,0.4299073742970824,-0.7239053720660508
1761338308958449200,9.21244921875,2.2939397894620894,0.2520869014956057,-1.0931979725331067
1761338308968515000,9.22251513671875,2.586028300347924,0.13238350395690648,-1.0614565342269837
1761338308978580000,9.232580078125,2.5484265917062756,-0.0005007160637527704,-0.822915343002975
1761338308988646100,9.242646240234375,2.319821249693632,-0.1938430215153843,-0.38440994396954775
1761338308998712000,9.252712158203124,1.9006956739127634,-0.3544220713324845,0.14834449520930648
1761338309008777200,9.262777099609375,1.332255734977126,-0.4687378940813243,0.5104303791679442
1761338309018843100,9.272843017578126,0.6317120954066514,-0.43332850785218174,0.788628019606322
1761338309028908000,9.282907958984374,0.00019873744249343872,-0.1443988263234496,1.1530281718567013
1761338309038974000,9.292973876953125,-0.5147703080683946,0.021546134440973398,1.5532213758915663
1761338309049040100,9.3030400390625,-0.8692834186851978,0.0017183482252061367,1.7971128421023488
1761338309059105300,9.313105224609375,-1.1217892762452364,0.052178880852833384,1.864592094874382
1761338309069171200,9.323171142578126,-1.4001134656727314,0.20082579307481646,1.9091776710540056
1761338309079236900,9.33323681640625,-1.6774883915513752,0.442746324538812,2.0145295583635567
1761338309089302000,9.343302001953125,-2.081972863039374,0.6255144828755408,2.126159210768342
1761338309099368200,9.3533681640625,-2.396148702570796,0.7230693596333265,2.1396340477608145
1761338309109434000,9.36343408203125,-2.3721751217871905,0.7354686763487756,1.8831199774727225
1761338309119499300,9.373499267578126,-2.091726779812574,0.45410994153097267,1.0601064347922802
1761338309129565000,9.38356494140625,-1.4463573304533957,0.04845934887304902,-0.3257432354673743
1761338309139630000,9.393630126953125,-0.6403033981412649,-0.17982983986251055,-1.4642911926813422
1761338309149696000,9.403696044921874,0.0884521904349327,-0.237246475238353,-1.7763202294424174
1761338309159762200,9.41376220703125,0.6680237642377614,-0.17633286459222436,-1.4083056860871612
1761338309169827000,9.4238271484375,1.0555062475204466,-0.05580364722125232,-0.7706130549661815
1761338309179893000,9.43389306640625,1.1762287224411965,0.13738441751673816,-0.22552505778446794
1761338309189959200,9.443959228515626,1.1245376981705426,0.27606727734617886,0.057067164351046085
1761338309200024000,9.454024169921874,1.075727782294154,0.2975926612600684,0.2917528491906822
1761338309210090200,9.46409033203125,0.9654045363128184,0.21527751227542757,0.5443826253913343
1761338309220155000,9.47415478515625,0.9593021277844905,0.09901808117814362,0.6548299361437558
1761338309230221000,9.484220947265625,1.0436755244731903,-0.05056370074115693,0.629623160303384
1761338309240287000,9.494286865234375,1.1366881546914578,-0.24711707719378173,0.635790743022412
1761338309250352000,9.50435205078125,1.2177677705317735,-0.42753129281550645,0.7376813839621842
1761338309260418300,9.514418212890625,1.1609884832113981,-0.5534644881218671,0.8755206325743347
1761338309270483000,9.52448291015625,0.9250076439946889,-0.5840886128358542,1.070963052110374
1761338309280549000,9.534549072265625,0.4221364480346441,-0.4835243981942534,1.3008235087506472
1761338309290615000,9.544614990234376,-0.17750877650380134,-0.38461686471849676,1.4013038445010781
1761338309300680200,9.55468017578125,-0.7233557753592729,-0.3101316787071526,1.444581260691583
1761338309310746000,9.56474609375,-1.2261731953054666,-0.19419154269210992,1.4575933024778962
1761338309320812000,9.57481201171875,-1.6626088023275136,0.06425985233411192,1.5470394723862408
1761338309330877200,9.584877197265625,-1.7274515691161154,0.10524944984838366,1.7429986823379993
1761338309340943000,9.594943115234376,-1.4417068742990493,0.12320559697337448,1.8371762646824121
1761338309351008300,9.60500830078125,-1.0991922445118427,0.23109182506613432,1.7046885331660508
1761338309361074200,9.61507421875,-0.8065075212985277,0.307139876480028,1.527322380003333
1761338309371140000,9.62514013671875,-0.3694429687231779,0.37077728606685995,1.5242577317357062
1761338309381205000,9.635205078125,0.12690437842607497,0.24920864264555273,1.4218698087982833
1761338309391271200,9.645271240234376,0.5350543866842985,-0.3916657603166997,0.7025241458632051
1761338309401337000,9.655337158203125,1.0170020370811224,-0.9383730292633176,-0.7139118743833154
1761338309411402000,9.665402099609375,1.5889835941463708,-0.24540128625184296,-2.076036750988662
1761338309421468000,9.675468017578124,1.957003252068162,0.561543019028753,-2.516836690700054
1761338309431533000,9.685532958984375,1.9396131413280964,0.36481655103154476,-1.906255938388407
1761338309441599200,9.69559912109375,1.8235031286388634,0.38265140986442564,-0.5008397631976753
1761338309451665200,9.7056650390625,1.4710498731613157,0.7776801438082009,0.8680865370508283
1761338309461730000,9.71572998046875,0.9103747230082749,1.069842596713081,1.5187803232379258
1761338309471796000,9.7257958984375,0.3783212717056274,1.190615851972997,1.5778084123983978
1761338309481862100,9.735862060546875,-0.10978782393038272,1.1219953932765871,1.4015766700930892
1761338309491927000,9.745927001953126,-0.6540279721111059,1.0554465532224624,1.3253541388951242
1761338309501993200,9.7559931640625,-1.2300731253534554,1.1718055722367018,1.436974000558257
1761338309512058000,9.76605810546875,-1.8842665171593427,1.557239087100327,1.6986773100525139
1761338309522124000,9.7761240234375,-2.5602421171844005,1.784057984087616,1.7620330531537531
1761338309532190200,9.786190185546875,-2.8348621913969514,1.8338538422614334,1.701143846296519
1761338309542255000,9.796255126953126,-2.5936592336177826,1.9225442253664136,1.5021819473974405
1761338309552321300,9.8063212890625,-1.761184911891818,1.7022006618730723,1.3333372466035187
1761338309562387000,9.816386962890626,-0.5181114351898432,1.2301961672112345,1.1628480665381997
1761338309572452000,9.8264521484375,0.7717775687009095,0.7808607466056943,0.8539823161136358
1761338309582518000,9.83651806640625,1.7712568085730074,0.41207390370368957,0.5207995782952756
1761338309592583200,9.846583251953126,2.395733107507229,0.08773852574024349,0.3169049722343683
1761338309602649000,9.856649169921875,2.7275293594032526,-0.13543131068758665,0.26889212501980364
1761338309612715000,9.866715087890626,2.836780592238903,-0.18521957007683812,0.30888905823491514
1761338309622780200,9.8767802734375,2.751241658902168,-0.2936104597561061,0.42526378627493977
1761338309632846000,9.88684619140625,2.344775073686242,-0.5275390426181257,0.5053397049654275
1761338309642911200,9.8969111328125,1.5378805988967417,-0.7281525811817496,0.28631650335565206
1761338309652977000,9.906976806640625,0.6853577608764171,-0.8903849511638283,0.03221650847196579
1761338309663043000,9.91704296875,-0.12982991048395634,-0.9529631340213119,0.02236724156551063
1761338309673108200,9.927108154296874,-0.8561269999921322,-0.9470007184855639,0.25569552044682203
1761338309683174100,9.937174072265625,-1.4263853865265845,-0.8863979273542761,0.6746908939767629
1761338309693240000,9.947239990234374,-1.9492700274676082,-0.6726572692573071,1.1012268921446056
1761338309703305000,9.957304931640625,-2.39474234290421,-0.34157384180575606,1.4623293910890818
1761338309713371100,9.96737109375,-2.72607916059494,-0.09767463067993522,1.7843521447286008
1761338309723437000,9.97743701171875,-2.856543861851096,0.08890811750888825,2.0277695636868476
1761338309733502200,9.987502197265625,-2.621588858550787,0.2233126424320042,2.2880776194304224
1761338309743568100,9.997568115234374,-2.090550721770525,0.1864420245438814,2.477516779963672
1761338309753633000,10.007633056640625,-1.3314473412036896,0.0019954116009175777,2.5074007538348435
1761338309763699000,10.017698974609376,-0.595817190682888,-0.17285685904473067,2.4346593427509067
1761338309773765000,10.02776513671875,-0.02987374473810196,-0.2697013225108385,2.2577906177163123
1761338309783830300,10.037830322265625,0.3938216231763363,-0.35953926821574567,2.0755492597326635
1761338309793896200,10.047896240234374,0.7260814009308815,-0.4077273989319801,2.0582943196795878
1761338309803962000,10.057962158203125,0.8864104945749044,-0.4175311461962759,2.2155685557976366
1761338309814027000,10.068027099609376,0.9097487000644207,-0.4267345894798636,2.283727607527375
1761338309824093200,10.07809326171875,0.9180401430696249,-0.34775662209391595,2.2610243389405307
1761338309834158000,10.088157958984375,0.9038380147159099,-0.20995558660030364,2.1873789647541937
1761338309844224300,10.098224365234374,0.8182686862409114,-0.24186872821152208,1.9751231383875012
1761338309854290000,10.1082900390625,0.6982295174092054,-0.4314150023810565,1.6065204198807477
1761338309864355000,10.11835498046875,0.4943628953337669,-0.6299798647865653,1.1420134413674472
1761338309874421000,10.1284208984375,0.1988461635649204,-0.7503260537408292,0.743715841820836
1761338309884486100,10.138486083984375,-0.20242051492035387,-0.7716726470217108,0.4957368140354752
1761338309894552000,10.148552001953124,-0.6252402690440416,-0.8029230869404971,0.6239356161862611
1761338309904618200,10.1586181640625,-0.9685492640793323,-0.7495866335503757,0.8238291699122637
1761338309914683400,10.168683349609376,-1.1284089866459368,-0.5041290870666504,0.9518573647364973
1761338309924749000,10.1787490234375,-1.097031851607561,-0.26821049943119285,1.082909802752733
1761338309934815200,10.188815185546876,-0.9317097719818354,-0.2139969709455967,1.0275864863943307
1761338309944880000,10.198880126953124,-0.7647785035938024,-0.3133474258832633,0.7954457367971539
1761338309954946300,10.2089462890625,-0.6353922452241182,-0.4827162966817617,0.5494603670470416
1761338309965011200,10.21901123046875,-0.569651068291068,-0.6005266835480928,0.3814439703034237
1761338309975077000,10.2290771484375,-0.6471843898266554,-0.6064855919525027,0.3361336600458249
1761338309985143300,10.239143310546876,-0.9173632667213678,-0.6019779052697122,0.32137773373425005
1761338309995208200,10.249208251953124,-1.0232534986913204,-0.581930411888659,0.171336225348711
1761338310005274400,10.2592744140625,-0.8892267210394144,-0.4605139633543789,-0.09577475187536329
1761338310015340300,10.26934033203125,-0.5810837319314479,-0.12771496415659783,0.3538690405596047
1761338310025405200,10.2794052734375,-0.1231564240694046,0.00905219824463129,0.9681697632424533
1761338310035471000,10.28947119140625,0.3213233731985092,-0.4864196812443435,0.8708620661787688
1761338310045536300,10.299536376953125,0.7909504712045192,-0.8256086737401783,0.536095675898157
1761338310055602400,10.3096025390625,0.4567348832070827,-0.8173967257119715,0.9100593003835529
1761338310065668400,10.31966845703125,-0.7188982114285231,-0.897472571337223,1.3339907420761883
1761338310075733200,10.329733154296875,-1.6266653822869062,-0.5691882730849087,1.3274017190746963
1761338310085799200,10.339799072265626,-2.194522552898526,-0.010227964025735855,1.706347990810871
1761338310095865300,10.349865234375,-2.4277999783754347,0.2183830770753324,2.2216816318504513
1761338310105930200,10.35993017578125,-2.051927853387594,0.5270383996196091,2.433933804955333
1761338310115996200,10.36999609375,-1.2691869921237229,0.731125240316987,2.338907204566151
1761338310126061300,10.380061279296875,-0.5954600478082895,1.0238527797587216,2.026445475476235
