time,seconds_elapsed,z,y,x
1761338299818862300,0.0728623046875,1.3032218217849731,-0.6196424961090088,-0.26978859305381775
1761338299828928500,0.082928466796875,1.2331503629684448,-0.6067238450050354,-0.47627124190330505
1761338299838993700,0.09299365234375,1.1795576810836792,-0.4807600677013397,-0.580919623374939
1761338299849059600,0.1030595703125,1.1768842935562134,-0.240666925907135,-0.5546826124191284
1761338299859125500,0.11312548828125,1.221665620803833,0.0183382760733366,-0.41698548197746277
1761338299869190400,0.1231904296875,1.301345944404602,0.20277486741542816,-0.20322351157665253
1761338299879256600,0.133256591796875,1.376394271850586,0.2697390019893646,0.05045989155769348
1761338299889322500,0.143322509765625,1.4340989589691162,0.21690896153450012,0.27513909339904785
1761338299899387600,0.1533876953125,1.4948663711547852,0.09464403986930847,0.4349899888038635
1761338299909453600,0.16345361328125,1.5631905794143677,-0.03560228645801544,0.524094820022583
1761338299919518700,0.173518798828125,1.6170105934143066,-0.17113187909126282,0.5379450917243958
1761338299929584400,0.18358447265625,1.6602929830551147,-0.3143300712108612,0.48522695899009705
1761338299939650600,0.193650634765625,1.683059811592102,-0.452081561088562,0.3825754225254059
1761338299949715700,0.2037158203125,1.6914962530136108,-0.5501253008842468,0.2531183660030365
1761338299959781600,0.21378173828125,1.6730234622955322,-0.6090086102485657,0.12280723452568054
1761338299969847600,0.22384765625,1.6377331018447876,-0.5856291055679321,-0.0004678536206483841
1761338299979912400,0.233912353515625,1.5771899223327637,-0.5296303033828735,-0.0832412987947464
1761338299989978600,0.243978515625,1.4978083372116089,-0.49121639132499695,-0.1279158890247345
1761338300000043500,0.25404345703125,1.4371737241744995,-0.41347843408584595,-0.09693746268749237
1761338300010109700,0.264109619140625,1.3944789171218872,-0.30235809087753296,-0.010497840121388435
1761338300020175600,0.274175537109375,1.3580220937728882,-0.20173294842243195,0.1190420389175415
1761338300030240500,0.284240478515625,1.3422374725341797,-0.08608395606279373,0.26420700550079346
1761338300040306700,0.294306640625,1.350648283958435,0.027018629014492035,0.4017861783504486
1761338300050371600,0.30437158203125,1.400453805923462,0.07627809792757034,0.520805835723877
1761338300060437800,0.314437744140625,1.4945340156555176,0.007092108018696308,0.6046139001846313
1761338300070503700,0.324503662109375,1.4849590063095093,0.1532483696937561,0.5925028324127197
1761338300080568600,0.334568603515625,1.5002723932266235,0.246052086353302,0.572073757648468
1761338300090634500,0.344634521484375,1.5189532041549683,0.2179347276687622,0.4908994734287262
1761338300100700700,0.35470068359375,1.5072307586669922,0.11454042792320251,0.35540103912353516
1761338300110765600,0.364765625,1.5052056312561035,-0.03565698489546776,0.1767258495092392
1761338300120831500,0.37483154296875,1.4960438013076782,-0.16402800381183624,-0.029072850942611694
1761338300130896600,0.384896728515625,1.493571400642395,-0.2524352967739105,-0.20680102705955505
1761338300140962600,0.394962646484375,1.5077120065689087,-0.2798842191696167,-0.3019041121006012
1761338300151028700,0.40502880859375,1.5075892210006714,-0.22595244646072388,-0.3187912404537201
1761338300161093600,0.41509375,1.490947961807251,-0.12202524393796921,-0.25664690136909485
1761338300171159600,0.42515966796875,1.478803277015686,0.007741621695458889,-0.14699949324131012
1761338300181225500,0.4352255859375,1.5175576210021973,0.12653058767318726,0.026478290557861328
1761338300191290600,0.44529052734375,1.5860579013824463,0.1700490564107895,0.2404233068227768
1761338300201356500,0.4553564453125,1.667140245437622,0.1727292537689209,0.4782840609550476
1761338300211422700,0.465422607421875,1.7369470596313477,0.15026003122329712,0.6754701733589172
1761338300221487600,0.475487548828125,1.7914550304412842,0.1030629575252533,0.8013423681259155
1761338300231553500,0.485553466796875,1.8114290237426758,0.07613345980644226,0.845184862613678
1761338300241618700,0.49561865234375,1.7818876504898071,0.063123919069767,0.794893205165863
1761338300251684600,0.5056845703125,1.7235724925994873,0.06556855887174606,0.6737838983535767
1761338300261750800,0.515750732421875,1.6708141565322876,0.10312525182962418,0.47971588373184204
1761338300271815400,0.5258154296875,1.640986442565918,0.17812922596931458,0.2352239489555359
1761338300281881600,0.535881591796875,1.6139007806777954,0.25695478916168213,-0.0136268837377429
1761338300291947500,0.545947509765625,1.5952123403549194,0.3184165358543396,-0.22627520561218262
1761338300302012700,0.5560126953125,1.5840238332748413,0.36553263664245605,-0.37354347109794617
1761338300312078600,0.56607861328125,1.583362102508545,0.3766840100288391,-0.46090298891067505
1761338300322143500,0.5761435546875,1.6051644086837769,0.3788619339466095,-0.5092278718948364
1761338300332209700,0.586209716796875,1.6550334692001343,0.36741137504577637,-0.5306085348129272
1761338300342275600,0.596275634765625,1.741304874420166,0.36595115065574646,-0.527710497379303
1761338300352340700,0.6063408203125,1.8317404985427856,0.3269719183444977,-0.49285057187080383
1761338300362406400,0.616406494140625,1.9155571460723877,0.2560700476169586,-0.3985741436481476
1761338300372472600,0.62647265625,1.9787660837173462,0.1888793706893921,-0.2815820872783661
1761338300382537700,0.636537841796875,2.014871120452881,0.12352833151817322,-0.17355574667453766
1761338300392603600,0.646603759765625,2.036806583404541,0.049003586173057556,-0.07692867517471313
1761338300402668800,0.656668701171875,2.048069715499878,-0.03659520298242569,-0.008238829672336578
1761338300412734500,0.666734375,2.022784948348999,-0.13457626104354858,0.04364326596260071
1761338300422800600,0.676800537109375,1.9583810567855835,-0.2237013429403305,0.08957720547914505
1761338300432865500,0.686865478515625,1.9042104482650757,-0.27701088786125183,0.1400841325521469
1761338300442931700,0.696931640625,1.864579677581787,-0.34655746817588806,0.22788774967193604
1761338300452997600,0.70699755859375,1.815053105354309,-0.4582299590110779,0.34841272234916687
1761338300463062500,0.7170625,1.7192728519439697,-0.5485712885856628,0.5037099123001099
1761338300473128400,0.72712841796875,1.5368046760559082,-0.5440465211868286,0.6482776403427124
1761338300483193600,0.737193603515625,1.3491921424865723,-0.27631306648254395,0.6678515672683716
1761338300493259800,0.747259765625,1.3289285898208618,0.25645145773887634,0.4928644299507141
1761338300503325700,0.75732568359375,1.4917380809783936,0.7099659442901611,0.2669453024864197
1761338300513390600,0.767390625,1.6663713455200195,0.9433915615081787,0.10702391713857651
1761338300523456500,0.77745654296875,1.7829523086547852,0.9381440281867981,-0.013486786745488644
1761338300533522700,0.787522705078125,1.8510042428970337,0.6414377689361572,-0.09342299401760101
1761338300543587600,0.797587646484375,1.827317476272583,0.13847126066684723,-0.15095046162605286
1761338300553653800,0.80765380859375,1.7067062854766846,-0.42287689447402954,-0.17633391916751862
1761338300563718700,0.81771875,1.4995254278182983,-0.8544592261314392,-0.12099236249923706
1761338300573784600,0.82778466796875,1.2540701627731323,-1.003920078277588,0.021618518978357315
1761338300583850500,0.8378505859375,1.0199271440505981,-0.8784492611885071,0.24116100370883942
1761338300593915600,0.84791552734375,0.8293948173522949,-0.5752484798431396,0.46666786074638367
1761338300603981600,0.857981689453125,0.7214241623878479,-0.14522647857666016,0.6445754766464233
1761338300614046500,0.86804638671875,0.7023156881332397,0.3635375499725342,0.759194552898407
1761338300624112600,0.878112548828125,0.7656900882720947,0.8751150965690613,0.8281850814819336
1761338300634178600,0.888178466796875,0.8691864013671875,1.2968933582305908,0.8601410984992981
1761338300644243700,0.89824365234375,0.9636902213096619,1.5325945615768433,0.8668690919876099
1761338300654309600,0.9083095703125,1.0337625741958618,1.5587599277496338,0.8652666807174683
1761338300664375600,0.91837548828125,1.0767041444778442,1.42238187789917,0.8825660347938538
1761338300674440700,0.928440673828125,1.1208041906356812,1.1979657411575317,0.886880099773407
1761338300684506600,0.938506591796875,1.1644939184188843,0.9011149406433105,0.8709402680397034
1761338300694572800,0.94857275390625,1.2029786109924316,0.590035080909729,0.8233989477157593
1761338300704637400,0.958637451171875,1.2206958532333374,0.29008859395980835,0.7388896346092224
1761338300714703600,0.96870361328125,1.2126442193984985,0.01592089608311653,0.6076874732971191
1761338300724768500,0.9787685546875,1.1709740161895752,-0.21977178752422333,0.4421994686126709
1761338300734834700,0.988834716796875,1.1088305711746216,-0.3845207095146179,0.253418892621994
1761338300744900600,0.998900634765625,1.0277711153030396,-0.4707229733467102,0.04084458202123642
1761338300754965500,1.008965576171875,0.9307809472084045,-0.569839358329773,-0.17963673174381256
1761338300765031700,1.01903173828125,0.8317017555236816,-0.7024213671684265,-0.3970057964324951
1761338300775097600,1.02909765625,0.752355694770813,-0.7997317314147949,-0.581013560295105
1761338300785162800,1.039162841796875,0.6759474277496338,-0.8261614441871643,-0.6997631192207336
1761338300795228400,1.049228515625,0.5970786213874817,-0.7296553254127502,-0.7247474193572998
1761338300805293600,1.05929345703125,0.5456873178482056,-0.49892890453338623,-0.6475098729133606
1761338300815359500,1.069359375,0.5173625946044922,-0.15990673005580902,-0.4992561340332031
1761338300825425700,1.07942578125,0.5141170024871826,0.24072138965129852,-0.29859867691993713
1761338300835490800,1.08949072265625,0.536052405834198,0.6077163815498352,-0.09631851315498352
1761338300845556500,1.099556396484375,0.5447566509246826,0.8597073554992676,0.06409379094839096
1761338300855621600,1.10962158203125,0.5206379294395447,1.0067163705825806,0.17909026145935059
1761338300865687600,1.1196875,0.4849163889884949,1.0939133167266846,0.23767341673374176
1761338300875753700,1.129753662109375,0.44158899784088135,1.0972175598144531,0.2441759556531906
1761338300885818400,1.139818359375,0.409449964761734,1.023913025856018,0.1908016800880432
1761338300895884500,1.149884521484375,0.3981086015701294,0.9198201298713684,0.09372416138648987
1761338300905950500,1.159950439453125,0.39688780903816223,0.775046706199646,-0.018084397539496422
1761338300916015400,1.170015380859375,0.40022513270378113,0.6005719900131226,-0.14453411102294922
1761338300926081500,1.18008154296875,0.41175317764282227,0.4056304395198822,-0.25333330035209656
1761338300936146400,1.190146484375,0.43250662088394165,0.21171198785305023,-0.3593153655529022
1761338300946212600,1.200212646484375,0.4608815312385559,0.025981800630688667,-0.4502713680267334
1761338300956278500,1.210278564453125,0.5055301189422607,-0.1137508973479271,-0.5166385173797607
1761338300966343400,1.220343505859375,0.5588012933731079,-0.21196189522743225,-0.5658105611801147
1761338300976409300,1.230409423828125,0.599456787109375,-0.2287227362394333,-0.6003757119178772
1761338300986475500,1.2404755859375,0.630013108253479,-0.20402857661247253,-0.6214902997016907
1761338300996540700,1.250540771484375,0.6468677520751953,-0.16597966849803925,-0.6231321096420288
1761338301006606600,1.260606689453125,0.6422961354255676,-0.14283625781536102,-0.6061810851097107
1761338301016671500,1.27067138671875,0.6253158450126648,-0.14464586973190308,-0.5584052801132202
1761338301026737400,1.2807373046875,0.603706955909729,-0.16928435862064362,-0.4843153655529022
1761338301036803600,1.290803466796875,0.5746113061904907,-0.22759892046451569,-0.40175625681877136
1761338301046868500,1.300868408203125,0.5531430840492249,-0.29979854822158813,-0.32333362102508545
1761338301056934400,1.310934326171875,0.5347365140914917,-0.3440631330013275,-0.23913004994392395
1761338301067000300,1.321000244140625,0.5135159492492676,-0.3738125264644623,-0.16563399136066437
1761338301077065500,1.3310654296875,0.48406749963760376,-0.4077833592891693,-0.12238449603319168
1761338301087131400,1.34113134765625,0.4548467695713043,-0.42178359627723694,-0.10226724296808243
1761338301097196500,1.351196533203125,0.43829673528671265,-0.41074806451797485,-0.10003754496574402
1761338301107262500,1.361262451171875,0.43758511543273926,-0.3896675109863281,-0.10011397302150726
1761338301117328400,1.371328369140625,0.44094622135162354,-0.37005412578582764,-0.09402752667665482
1761338301127393500,1.3813935546875,0.4417845606803894,-0.33921870589256287,-0.06325443089008331
1761338301137459500,1.39145947265625,0.3981199264526367,-0.3182219862937927,-0.046501275151968
1761338301147525600,1.401525634765625,0.3109157979488373,-0.3560154438018799,-0.059870343655347824
1761338301157590300,1.41159033203125,0.189952552318573,-0.4675760269165039,-0.09580988436937332
1761338301167656400,1.421656494140625,0.029355674982070923,-0.6035444736480713,-0.1528279036283493
1761338301177721600,1.4317216796875,-0.15577320754528046,-0.6783246994018555,-0.23738136887550354
1761338301187787500,1.44178759765625,-0.31104058027267456,-0.6237264275550842,-0.35404646396636963
1761338301197853400,1.451853515625,-0.45908859372138977,-0.49137642979621887,-0.44245463609695435
1761338301207918300,1.46191845703125,-0.5444314479827881,-0.300201416015625,-0.3943880498409271
1761338301217984500,1.471984619140625,-0.5352891087532043,-0.07583381235599518,-0.1605769246816635
1761338301228050400,1.482050537109375,-0.3978683352470398,0.09661492705345154,0.28037944436073303
1761338301238115600,1.492115478515625,-0.1504725068807602,0.12514057755470276,0.7924340963363647
1761338301248181500,1.502181396484375,0.06177743896842003,0.045432429760694504,1.2532624006271362
1761338301258246400,1.512246337890625,0.17854051291942596,-0.038783781230449677,1.629474401473999
1761338301268312600,1.5223125,0.20784248411655426,-0.09138493984937668,1.809342384338379
1761338301278378500,1.53237841796875,0.19480173289775848,-0.14973759651184082,1.8390330076217651
1761338301288443600,1.542443603515625,0.16708089411258698,-0.18794730305671692,1.7068980932235718
1761338301298509300,1.55250927734375,0.13626743853092194,-0.13151085376739502,1.4489095211029053
1761338301308574500,1.562574462890625,0.13531428575515747,0.07962401211261749,0.988272488117218
1761338301318640400,1.572640380859375,0.12563788890838623,0.30451634526252747,0.4326561987400055
1761338301328706600,1.58270654296875,0.09630396962165833,0.4967811107635498,-0.10039706528186798
1761338301338771500,1.592771484375,0.03104369156062603,0.5343909859657288,-0.5472522974014282
1761338301348837400,1.60283740234375,-0.06369160115718842,0.3962687849998474,-0.8850319385528564
1761338301358903300,1.6129033203125,-0.17605367302894592,0.1900140345096588,-1.0708706378936768
1761338301368968400,1.622968505859375,-0.270749032497406,-0.0032864483073353767,-1.0811355113983154
1761338301379034600,1.63303466796875,-0.32492613792419434,-0.16140249371528625,-0.9426254630088806
1761338301389100500,1.6431005859375,-0.32102540135383606,-0.2957286238670349,-0.7207775115966797
1761338301399165400,1.65316552734375,-0.24501873552799225,-0.3476819396018982,-0.45313751697540283
1761338301409231400,1.6632314453125,-0.10286026448011398,-0.2860737144947052,-0.1665843427181244
1761338301419296500,1.673296630859375,0.09905293583869934,-0.14304982125759125,0.09572950005531311
1761338301429362400,1.683362548828125,0.3445527255535126,0.04444178193807602,0.30082565546035767
1761338301439428600,1.6934287109375,0.5840326547622681,0.17857027053833008,0.4559018015861511
1761338301449493500,1.703493408203125,0.7195907831192017,0.21953155100345612,0.5791499614715576
1761338301459559400,1.713559326171875,0.7719295024871826,0.21035650372505188,0.675151526927948
1761338301469624600,1.72362451171875,0.742240309715271,0.11217853426933289,0.7233397960662842
1761338301479690500,1.7336904296875,0.6620920896530151,-0.019378919154405594,0.7047640681266785
1761338301489756700,1.743756591796875,0.5622959733009338,-0.11819151788949966,0.6084287166595459
1761338301499821300,1.7538212890625,0.4569464921951294,-0.15713538229465485,0.42786285281181335
1761338301509887500,1.763887451171875,0.33873116970062256,-0.1339096873998642,0.20556321740150452
1761338301519953400,1.773953369140625,0.21876199543476105,-0.07021427154541016,-0.019047893583774567
1761338301530018600,1.7840185546875,0.11876295506954193,-0.008438258431851864,-0.19852283596992493
1761338301540084500,1.79408447265625,0.03372887149453163,0.03318962827324867,-0.3136000335216522
1761338301550149400,1.8041494140625,-0.042246051132678986,0.0613754577934742,-0.3571919798851013
1761338301560215600,1.814215576171875,-0.1029912456870079,0.07337754219770432,-0.3404720425605774
1761338301570281500,1.824281494140625,-0.1516706496477127,0.07577358931303024,-0.2834457457065582
1761338301580346600,1.8343466796875,-0.17474465072155,0.06159795820713043,-0.19907377660274506
1761338301590412300,1.844412353515625,-0.18971002101898193,0.04352814331650734,-0.11347845196723938
1761338301600478500,1.854478515625,-0.19628676772117615,0.03509430214762688,-0.03020133264362812
1761338301610543600,1.864543701171875,-0.18357069790363312,0.0497981496155262,0.013864129781723022
1761338301620609500,1.874609619140625,-0.15756091475486755,0.09291001409292221,0.029234301298856735
1761338301630674400,1.88467431640625,-0.1284019649028778,0.16004323959350586,0.03643202781677246
1761338301640740400,1.894740234375,-0.0706607922911644,0.2420007288455963,0.04567888379096985
1761338301650806500,1.904806640625,-0.004579508677124977,0.3156978487968445,0.06007992476224899
1761338301660871400,1.914871337890625,0.0519522950053215,0.36586037278175354,0.08767129480838776
1761338301670937600,1.9249375,0.11948233842849731,0.411034494638443,0.14356039464473724
1761338301681003500,1.93500341796875,0.19717969000339508,0.41736772656440735,0.23058512806892395
1761338301691068400,1.945068359375,0.27225473523139954,0.3898088037967682,0.34080883860588074
1761338301701134300,1.95513427734375,0.31417641043663025,0.3348402976989746,0.4517430365085602
1761338301711199500,1.965199462890625,0.32041993737220764,0.24757036566734314,0.5491558909416199
1761338301721265700,1.975265625,0.29882216453552246,0.13447129726409912,0.6071960926055908
1761338301731331600,1.98533154296875,0.27991557121276855,0.014894305728375912,0.5925574898719788
1761338301741396500,1.995396484375,0.2831316590309143,-0.012654921971261501,0.49795445799827576
1761338301751462400,2.00546240234375,0.29365646839141846,0.0838196873664856,0.383949875831604
1761338301761527600,2.015527587890625,0.2699052393436432,0.25539910793304443,0.2543347477912903
1761338301771593500,2.025593505859375,0.16743716597557068,0.47755202651023865,0.1810099184513092
1761338301781659400,2.035659423828125,0.021949931979179382,0.7300015687942505,0.14792770147323608
1761338301791724500,2.045724609375,-0.16738243401050568,0.9120100140571594,0.0726369246840477
1761338301801790500,2.05579052734375,-0.33331459760665894,0.9748967885971069,-0.09989418089389801
1761338301811856400,2.0658564453125,-0.3747331500053406,0.8816901445388794,-0.36210477352142334
1761338301821921500,2.075921630859375,-0.3069472312927246,0.5935837030410767,-0.6953979730606079
1761338301831987500,2.085987548828125,-0.20115715265274048,0.20421169698238373,-0.9901915192604065
1761338301842052400,2.09605224609375,-0.09413471072912216,-0.18571336567401886,-1.0459418296813965
1761338301852118500,2.106118408203125,0.07044918090105057,-0.35135719180107117,-0.8980774283409119
1761338301862184400,2.116184326171875,0.3114871382713318,-0.2846968173980713,-0.653810441493988
1761338301872249300,2.126249267578125,0.5579618811607361,-0.10692629963159561,-0.2907249629497528
1761338301882315500,2.1363154296875,0.7392910122871399,0.17378762364387512,0.17662325501441956
1761338301892381200,2.146381103515625,0.8275542855262756,0.47106271982192993,0.6900514364242554
1761338301902446300,2.1564462890625,0.81208336353302,0.5983237624168396,1.167737603187561
1761338301912512300,2.16651220703125,0.7485049366950989,0.5830038785934448,1.5465818643569946
1761338301922577400,2.176577392578125,0.6856797337532043,0.47578009963035583,1.7890821695327759
1761338301932643000,2.18664306640625,0.6162418127059937,0.3460303544998169,1.8574753999710083
1761338301942709200,2.196709228515625,0.5815479755401611,0.20082999765872955,1.6807854175567627
1761338301952774400,2.2067744140625,0.6171752214431763,0.08284929394721985,1.2944360971450806
1761338301962840300,2.21684033203125,0.6964500546455383,0.07613947987556458,0.7842852473258972
1761338301972906200,2.22690625,0.7540425062179565,0.09434511512517929,0.2552240192890167
1761338301982971100,2.23697119140625,0.7473061680793762,0.09742952883243561,-0.2273504137992859
1761338301993037300,2.247037353515625,0.6684220433235168,0.031720031052827835,-0.6168308258056641
1761338302003102200,2.257102294921875,0.5563236474990845,-0.09589725732803345,-0.8861519694328308
1761338302013168400,2.26716845703125,0.4251334071159363,-0.2497648447751999,-1.0351372957229614
1761338302023234300,2.277234375,0.262109637260437,-0.49658769369125366,-1.0425478219985962
1761338302033299200,2.28729931640625,0.08281474560499191,-0.7652623057365417,-0.9495779275894165
1761338302043365000,2.297365234375,-0.07267523556947708,-0.9514901638031006,-0.7663284540176392
1761338302053431300,2.307431396484375,-0.18036094307899475,-1.0009626150131226,-0.5659253001213074
1761338302063496400,2.317496337890625,-0.21475057303905487,-0.8594757318496704,-0.3901980221271515
1761338302073562400,2.327562255859375,-0.13852424919605255,-0.5158749222755432,-0.2511295974254608
1761338302083627300,2.337627197265625,0.011094347573816776,-0.08630259335041046,-0.16407711803913116
1761338302093693200,2.347693115234375,0.19234083592891693,0.30788731575012207,-0.10701223462820053
1761338302103759400,2.35775927734375,0.31382477283477783,0.5661938786506653,-0.07002153992652893
1761338302113824300,2.36782421875,0.3340408504009247,0.6802921891212463,-0.025863396003842354
1761338302123890200,2.37789013671875,0.3050675392150879,0.6526593565940857,0.005428981967270374
1761338302133956000,2.3879560546875,0.2302180677652359,0.5057857036590576,0.033210545778274536
1761338302144021200,2.398021240234375,0.1341901421546936,0.3098047375679016,0.04819926619529724
1761338302154087400,2.40808740234375,0.04668080806732178,0.11452952027320862,0.04121991991996765
1761338302164152300,2.41815234375,-0.025350620970129967,0.01129812840372324,0.010405929759144783
1761338302174218200,2.42821826171875,-0.07886844128370285,-0.017985723912715912,-0.06256574392318726
1761338302184284200,2.4382841796875,-0.11580394208431244,-0.02045135572552681,-0.17183485627174377
1761338302194349300,2.448349365234375,-0.1468460112810135,0.014238446019589901,-0.28282982110977173
1761338302204415200,2.458415283203125,-0.17140701413154602,0.07652337849140167,-0.37828734517097473
1761338302214481400,2.4684814453125,-0.21481174230575562,0.1367877721786499,-0.4531429409980774
1761338302224546300,2.47854638671875,-0.27546268701553345,0.14885397255420685,-0.49911460280418396
1761338302234612200,2.4886123046875,-0.3416512906551361,0.11399851739406586,-0.5245664119720459
1761338302244677400,2.498677490234375,-0.3857928216457367,0.054180290549993515,-0.4993054270744324
1761338302254743300,2.508743408203125,-0.403143048286438,0.03698239102959633,-0.4561254680156708
1761338302264809500,2.5188095703125,-0.399584025144577,0.0486338771879673,-0.3933131694793701
1761338302274874000,2.5288740234375,-0.3814481794834137,0.02536078169941902,-0.3170820474624634
1761338302284940300,2.538940185546875,-0.37180715799331665,-0.0239420086145401,-0.21000628173351288
1761338302295006200,2.549006103515625,-0.36927396059036255,-0.06417278945446014,-0.09104500710964203
1761338302305071400,2.5590712890625,-0.36999472975730896,-0.09426268190145493,0.0032390104606747627
1761338302315137000,2.569136962890625,-0.3883220851421356,-0.12778468430042267,0.06295506656169891
1761338302325202200,2.5792021484375,-0.4313402473926544,-0.1644628643989563,0.09633070230484009
1761338302335268400,2.589268310546875,-0.4986361861228943,-0.19639630615711212,0.08726370334625244
1761338302345334300,2.599334228515625,-0.5808966159820557,-0.20372027158737183,0.05848333612084389
1761338302355399400,2.6093994140625,-0.6449378728866577,-0.20927615463733673,0.015618696808815002
1761338302365465000,2.619465087890625,-0.7022810578346252,-0.23040685057640076,-0.017006350681185722
1761338302375530200,2.6295302734375,-0.7595981359481812,-0.234126478433609,-0.011089072562754154
1761338302385596200,2.63959619140625,-0.819629430770874,-0.23000656068325043,0.02046233043074608
1761338302395662300,2.649662353515625,-0.8598844408988953,-0.22461898624897003,0.055272772908210754
1761338302405727200,2.659727294921875,-0.8802396655082703,-0.14329013228416443,0.0831155776977539
1761338302415793200,2.669793212890625,-0.9092859625816345,0.03210059553384781,0.08870182186365128
1761338302425859300,2.679859375,-0.9413934946060181,0.20034073293209076,0.03277983516454697
1761338302435924200,2.68992431640625,-0.9917344450950623,0.22810019552707672,-0.04995205998420715
1761338302445990400,2.699990478515625,-1.0471251010894775,0.13123460114002228,-0.16383343935012817
1761338302456055000,2.710054931640625,-1.0932202339172363,0.02238188311457634,-0.2625666856765747
1761338302466121200,2.720121337890625,-1.1062736511230469,-0.03833240270614624,-0.3123489022254944
1761338302476187100,2.730187255859375,-1.0793720483779907,-0.04638153687119484,-0.33596768975257874
1761338302486252300,2.740252197265625,-1.0053435564041138,-0.020649166777729988,-0.32119035720825195
1761338302496318500,2.750318359375,-0.8864331245422363,0.04174124076962471,-0.24646338820457458
1761338302506384400,2.76038427734375,-0.7404674887657166,0.10448101162910461,-0.11004448682069778
1761338302516449300,2.77044921875,-0.5923267602920532,0.143119215965271,0.05805929750204086
1761338302526515200,2.78051513671875,-0.45580145716667175,0.1677175760269165,0.2561044991016388
1761338302536580400,2.790580322265625,-0.36285579204559326,0.1701892614364624,0.46555599570274353
1761338302546646300,2.800646240234375,-0.3237025737762451,0.10953662544488907,0.6509056687355042
1761338302556712200,2.810712158203125,-0.31521615386009216,0.010090997442603111,0.8026765584945679
1761338302566777300,2.82077734375,-0.31580284237861633,-0.10503825545310974,0.8908079862594604
1761338302576843300,2.83084326171875,-0.31874537467956543,-0.21906043589115143,0.9144698977470398
1761338302586909200,2.8409091796875,-0.3178551197052002,-0.25897011160850525,0.89711993932724
1761338302596974300,2.850974365234375,-0.339468777179718,-0.23359845578670502,0.8349074125289917
1761338302607040300,2.861040283203125,-0.38720399141311646,-0.20189879834651947,0.7210748195648193
1761338302617105200,2.871105224609375,-0.4572046399116516,-0.18056155741214752,0.5435165762901306
1761338302627171300,2.88117138671875,-0.546744167804718,-0.13833314180374146,0.32379215955734253
1761338302637237200,2.8912373046875,-0.6341216564178467,-0.06919055432081223,0.08933757990598679
1761338302647302100,2.90130224609375,-0.7276790738105774,-0.04788946360349655,-0.12242603302001953
1761338302657368000,2.9113681640625,-0.8076335191726685,-0.06503729522228241,-0.3038024604320526
1761338302667434200,2.921434326171875,-0.8561960458755493,-0.0765325129032135,-0.43096914887428284
1761338302677499400,2.93149951171875,-0.8731657266616821,-0.04551254212856293,-0.512814462184906
1761338302687565300,2.9415654296875,-0.8670948147773743,-0.003066069446504116,-0.5430221557617188
1761338302697630200,2.951630126953125,-0.8170740008354187,0.05724893882870674,-0.5109169483184814
1761338302707696000,2.961696044921875,-0.6942815184593201,0.16988828778266907,-0.41542765498161316
1761338302717762300,2.97176220703125,-0.5275623202323914,0.29852962493896484,-0.26722806692123413
1761338302727827200,2.9818271484375,-0.392448365688324,0.35244274139404297,-0.08849597722291946
1761338302737893400,2.991893310546875,-0.29682090878486633,0.3431885242462158,0.0627681091427803
1761338302747959300,3.001959228515625,-0.21449340879917145,0.3227079212665558,0.15601377189159393
1761338302758024200,3.012024169921875,-0.1460360437631607,0.28604552149772644,0.1825188845396042
1761338302768090400,3.02209033203125,-0.09054269641637802,0.2407403439283371,0.15944045782089233
1761338302778155300,3.0321552734375,-0.040318138897418976,0.1973622441291809,0.10832080990076065
1761338302788221400,3.042221435546875,-0.014849534258246422,0.09453625977039337,0.058216631412506104
1761338302798287000,3.052287109375,-0.02465289644896984,-0.025839416310191154,-0.0031772181391716003
1761338302808352300,3.062352294921875,-0.07619840651750565,-0.14060631394386292,-0.07799126207828522
1761338302818418200,3.072418212890625,-0.17777509987354279,-0.25282126665115356,-0.11638312041759491
1761338302828484400,3.082484375,-0.3190452456474304,-0.257021963596344,-0.18465925753116608
1761338302838549200,3.09254931640625,-0.4816077947616577,-0.21393732726573944,-0.25305190682411194
1761338302848615200,3.102615234375,-0.6141476035118103,-0.11554595828056335,-0.3174248933792114
1761338302858680300,3.112680419921875,-0.7277002334594727,-0.05109453573822975,-0.3674321174621582
1761338302868746200,3.122746337890625,-0.814055323600769,-0.05845900624990463,-0.3628949820995331
1761338302878812400,3.1328125,-0.8637840151786804,-0.04183262214064598,-0.3324443995952606
1761338302888877000,3.142876953125,-0.8941726088523865,-0.03366370499134064,-0.2545183300971985
1761338302898943200,3.152943115234375,-0.9237797856330872,-0.02369176410138607,-0.1648569107055664
1761338302909009200,3.163009033203125,-0.9141219258308411,0.015387584455311298,-0.06431450694799423
1761338302919074300,3.17307421875,-0.8838617205619812,0.050718411803245544,0.06289856880903244
1761338302929140200,3.18314013671875,-0.8076367378234863,0.07412850856781006,0.23038525879383087
1761338302939205000,3.193205078125,-0.7295749187469482,0.09109124541282654,0.38863298296928406
1761338302949271300,3.203271240234375,-0.6458895206451416,0.0359526090323925,0.5153628587722778
1761338302959337200,3.213337158203125,-0.556657612323761,-0.017870942130684853,0.5941148996353149
1761338302969402400,3.22340234375,-0.4714251160621643,-0.025192437693476677,0.6196849942207336
1761338302979468300,3.23346826171875,-0.38226833939552307,0.03207511454820633,0.5810886025428772
1761338302989534500,3.243534423828125,-0.29267969727516174,0.1254926472902298,0.5478586554527283
1761338302999599000,3.25359912109375,-0.2179812341928482,0.2341373711824417,0.5178568363189697
1761338303009665300,3.263665283203125,-0.16345351934432983,0.3286164700984955,0.4977448284626007
1761338303019730400,3.27373046875,-0.139531672000885,0.36787092685699463,0.5018793344497681
1761338303029796400,3.28379638671875,-0.1360529512166977,0.3941681385040283,0.5431114435195923
1761338303039862300,3.2938623046875,-0.09015762805938721,0.42367544770240784,0.6098926067352295
1761338303049927200,3.30392724609375,-0.021160602569580078,0.39913955330848694,0.6513922810554504
1761338303059993300,3.313993408203125,0.026101455092430115,0.25189071893692017,0.6321983337402344
1761338303070058200,3.324058349609375,0.04049038141965866,-0.04987674206495285,0.5737260580062866
1761338303080124400,3.33412451171875,0.012992444448173046,-0.4998660087585449,0.5197959542274475
1761338303090190000,3.344190185546875,-0.027424007654190063,-1.0312690734863281,0.43083420395851135
1761338303100255200,3.354255126953125,-0.08848177641630173,-1.4139822721481323,0.29434216022491455
1761338303110321400,3.3643212890625,-0.2026292234659195,-1.5262689590454102,0.14571282267570496
1761338303120387300,3.37438720703125,-0.3564091920852661,-1.3290081024169922,0.02564474754035473
1761338303130452200,3.3844521484375,-0.5063803195953369,-0.8518245220184326,-0.030347390100359917
1761338303140518100,3.39451806640625,-0.6512259244918823,-0.2652049958705902,0.0025242725387215614
1761338303150583300,3.404583251953125,-0.7158880233764648,0.34224873781204224,0.09774719178676605
1761338303160649200,3.414649169921875,-0.5909274220466614,0.8605307936668396,0.2606295943260193
1761338303170715400,3.42471533203125,-0.34738054871559143,1.0672996044158936,0.49958381056785583
1761338303180780300,3.4347802734375,-0.08942064642906189,0.9047368168830872,0.8263633251190186
1761338303190846200,3.44484619140625,0.1757035255432129,0.5092648863792419,1.2044894695281982
1761338303200912100,3.454912109375,0.3609151840209961,0.06461366266012192,1.4863475561141968
1761338303210977300,3.464977294921875,0.25461453199386597,-0.11418630182743073,1.4547661542892456
1761338303221043500,3.47504345703125,-0.053042344748973846,-0.06722012907266617,1.132961392402649
1761338303231108000,3.485108154296875,-0.3124822974205017,-0.03130192309617996,0.7115079164505005
1761338303241174300,3.49517431640625,-0.4048426151275635,-0.023331880569458008,0.32041046023368835
1761338303251240200,3.505240234375,-0.43244341015815735,-0.010691137984395027,0.0032914108596742153
1761338303261305300,3.515305419921875,-0.49205106496810913,-0.009647977538406849,-0.23492062091827393
1761338303271371300,3.525371337890625,-0.5800099968910217,0.007309233769774437,-0.4268506169319153
1761338303281437200,3.535437255859375,-0.6758790016174316,-0.0031569888815283775,-0.6142005324363708
1761338303291502300,3.54550244140625,-0.7685092687606812,-0.0963963121175766,-0.82606440782547
1761338303301568300,3.555568359375,-0.8707642555236816,-0.21899545192718506,-1.0470701456069946
1761338303311633400,3.56563330078125,-0.9799957871437073,-0.33959832787513733,-1.2259008884429932
1761338303321699300,3.57569921875,-1.0965628623962402,-0.4422602653503418,-1.3827197551727295
1761338303331765200,3.58576513671875,-1.1605721712112427,-0.5291909575462341,-1.4936658143997192
1761338303341830100,3.595830078125,-1.1417875289916992,-0.5356743931770325,-1.5289814472198486
1761338303351896300,3.605896240234375,-1.0675482749938965,-0.35657161474227905,-1.4553437232971191
1761338303361962200,3.615962158203125,-0.962254524230957,-0.10648347437381744,-1.2801151275634766
1761338303372027100,3.626027099609375,-0.8402509093284607,0.06870142370462418,-1.0086555480957031
1761338303382093300,3.63609326171875,-0.7189531922340393,0.14160917699337006,-0.6637454628944397
1761338303392158200,3.646158203125,-0.6198093295097351,0.11214101314544678,-0.31717923283576965
1761338303402224400,3.656224365234375,-0.5758280158042908,0.021121621131896973,-0.059596434235572815
1761338303412290300,3.666290283203125,-0.6272290349006653,-0.029732126742601395,0.08617605268955231
1761338303422355200,3.676355224609375,-0.7662180662155151,-0.017329521477222443,0.16378456354141235
1761338303432421000,3.686421142578125,-0.9333435297012329,0.005890878848731518,0.17889781296253204
1761338303442487300,3.6964873046875,-1.0443449020385742,0.03126254677772522,0.10811793059110641
1761338303452552200,3.70655224609375,-1.1430505514144897,0.04869361221790314,-0.02069498971104622
1761338303462618400,3.716618408203125,-1.2449759244918823,0.04993011802434921,-0.19135327637195587
1761338303472683300,3.726683349609375,-1.315805435180664,0.003858117386698723,-0.36677074432373047
1761338303482749200,3.736749267578125,-1.3801761865615845,-0.06385168433189392,-0.5173168778419495
1761338303492815400,3.7468154296875,-1.4631695747375488,-0.1211962029337883,-0.637648344039917
1761338303502880300,3.75688037109375,-1.543115258216858,-0.15755820274353027,-0.7074726819992065
1761338303512946400,3.766946533203125,-1.5907843112945557,-0.1999243050813675,-0.7508952617645264
1761338303523012000,3.77701220703125,-1.6214343309402466,-0.2609090805053711,-0.7561036348342896
1761338303533077200,3.7870771484375,-1.6613950729370117,-0.33757859468460083,-0.7117559909820557
1761338303543143200,3.79714306640625,-1.7159923315048218,-0.3999581038951874,-0.6423191428184509
1761338303553208300,3.807208251953125,-1.7885987758636475,-0.47350820899009705,-0.5711867213249207
1761338303563274500,3.8172744140625,-1.8631510734558105,-0.5324508547782898,-0.5399843454360962
1761338303573340200,3.827340087890625,-1.9305399656295776,-0.5540246963500977,-0.5628823041915894
1761338303583405300,3.8374052734375,-1.9659767150878906,-0.4819816052913666,-0.6048875451087952
1761338303593471200,3.84747119140625,-1.9215075969696045,-0.28278037905693054,-0.6320221424102783
1761338303603537400,3.857537353515625,-1.8023871183395386,-0.013519348576664925,-0.6267562508583069
1761338303613602000,3.86760205078125,-1.646674633026123,0.2442573457956314,-0.5674933195114136
1761338303623668200,3.877668212890625,-1.4991858005523682,0.40357136726379395,-0.4740763306617737
1761338303633733400,3.8877333984375,-1.3932337760925293,0.43910351395606995,-0.35732176899909973
1761338303643799300,3.89779931640625,-1.3047447204589844,0.39534619450569153,-0.25545692443847656
1761338303653865200,3.907865234375,-1.1985621452331543,0.35172680020332336,-0.16948138177394867
1761338303663930000,3.91793017578125,-1.0718244314193726,0.31978780031204224,-0.1094508096575737
1761338303673996300,3.927996337890625,-0.9407244324684143,0.28984934091567993,-0.06199119985103607
1761338303684062200,3.938062255859375,-0.817604660987854,0.22182928025722504,-0.029461754485964775
1761338303694127400,3.94812744140625,-0.6827298402786255,0.13447187840938568,-0.0005878345109522343
1761338303704193300,3.958193359375,-0.5296239256858826,0.060593925416469574,0.013620130717754364
1761338303714258200,3.968258056640625,-0.3808538615703583,-0.0010994188487529755,0.03829668089747429
1761338303724324400,3.978324462890625,-0.2638542652130127,-0.08308696001768112,0.07483579218387604
1761338303734390300,3.988390380859375,-0.18078291416168213,-0.19260652363300323,0.14077068865299225
1761338303744455400,3.998455322265625,-0.08296500146389008,-0.274162620306015,0.18244516849517822
1761338303754520000,4.00852001953125,-0.05670851096510887,-0.31609320640563965,0.16059380769729614
1761338303764586200,4.018586181640625,-0.24485310912132263,-0.3213502764701843,0.032541293650865555
1761338303774652200,4.028652099609375,-0.5734438300132751,-0.3001202940940857,-0.1832980215549469
1761338303784717300,4.03871728515625,-0.9086655378341675,-0.35901984572410583,-0.458996444940567
1761338303794783200,4.048783203125,-1.1453009843826294,-0.5708520412445068,-0.775472104549408
1761338303804848000,4.05884814453125,-1.3157261610031128,-0.8320463299751282,-1.0823256969451904
1761338303814914300,4.068914306640625,-1.483474612236023,-0.9455471634864807,-1.2689805030822754
1761338303824980200,4.078980224609375,-1.6933695077896118,-0.826583743095398,-1.261082649230957
1761338303835045400,4.08904541015625,-1.8778256177902222,-0.5485829710960388,-1.0374525785446167
1761338303845111300,4.099111328125,-1.9766629934310913,-0.2794761657714844,-0.6521437168121338
1761338303855177200,4.10917724609375,-1.9468803405761719,-0.0825231522321701,-0.2821992039680481
1761338303865242400,4.119242431640625,-1.8104928731918335,0.10863854736089706,0.05648138001561165
1761338303875308300,4.129308349609375,-1.6322298049926758,0.2706834375858307,0.3532704710960388
1761338303885373400,4.13937353515625,-1.4538723230361938,0.3360946774482727,0.6305907368659973
1761338303895439000,4.149439208984375,-1.3072806596755981,0.29583168029785156,0.9232087731361389
1761338303905505500,4.159505615234375,-1.2165648937225342,0.15680213272571564,1.185691237449646
1761338303915570700,4.16957080078125,-1.186752438545227,-0.03303235024213791,1.3694307804107666
1761338303925636900,4.179636962890625,-1.1689941883087158,-0.250576376914978,1.3764902353286743
1761338303935702800,4.189702880859375,-1.165877342224121,-0.4660002589225769,1.174828290939331
1761338303945767700,4.199767578125,-1.1630398035049438,-0.5256076455116272,0.7953356504440308
1761338303955833600,4.20983349609375,-1.18692147731781,-0.44056013226509094,0.30522143840789795
1761338303965898800,4.219898681640625,-1.2300119400024414,-0.29209262132644653,-0.22403442859649658
1761338303975964700,4.229964599609375,-1.301224708557129,-0.13757677376270294,-0.6827061176300049
1761338303986030800,4.24003076171875,-1.4125107526779175,-0.059311795979738235,-1.0085406303405762
1761338303996095700,4.250095703125,-1.5470452308654785,-0.0864981934428215,-1.2146302461624146
1761338304006161700,4.26016162109375,-1.6487289667129517,-0.09735643118619919,-1.2637157440185547
1761338304016227800,4.270227783203125,-1.7183197736740112,-0.009788342751562595,-1.1524916887283325
1761338304026292700,4.280292724609375,-1.7330225706100464,0.11582764238119125,-0.9124647378921509
1761338304036359000,4.29035888671875,-1.709228277206421,0.19736884534358978,-0.574442982673645
1761338304046423600,4.300423583984375,-1.6472203731536865,0.21827572584152222,-0.20937557518482208
1761338304056489700,4.31048974609375,-1.5259857177734375,0.21971260011196136,0.1061343252658844
1761338304066555600,4.3205556640625,-1.3558249473571777,0.21045517921447754,0.32305917143821716
1761338304076620800,4.330620849609375,-1.1812307834625244,0.17864587903022766,0.4547725319862366
1761338304086686700,4.340686767578125,-1.052367091178894,0.14737051725387573,0.5296151041984558
1761338304096752600,4.350752685546875,-0.9778969287872314,0.11706110835075378,0.5547370314598083
1761338304106817800,4.36081787109375,-0.9414174556732178,0.07582924515008926,0.5357431173324585
1761338304116883700,4.3708837890625,-0.9329470992088318,0.03541156277060509,0.46481946110725403
1761338304126948900,4.380948974609375,-0.9553525447845459,0.02809532731771469,0.36278605461120605
1761338304137014500,4.3910146484375,-0.9883208274841309,0.06547316908836365,0.24114187061786652
1761338304147080700,4.401080810546875,-1.0256223678588867,0.11351845413446426,0.09987235814332962
1761338304157145900,4.411145751953125,-1.0521353483200073,0.1483217179775238,-0.06274730712175369
1761338304167211800,4.421211669921875,-1.0771608352661133,0.16824962198734283,-0.2229665368795395
1761338304177276700,4.431276611328125,-1.113498330116272,0.15257661044597626,-0.3746657371520996
1761338304187342600,4.441342529296875,-1.1653192043304443,0.08134505152702332,-0.5310335159301758
1761338304197408800,4.45140869140625,-1.2128028869628906,0.025147128850221634,-0.6847663521766663
1761338304207473700,4.4614736328125,-1.251271367073059,0.01579703763127327,-0.8558624386787415
1761338304217539800,4.471539794921875,-1.302348256111145,0.014069775119423866,-1.0208688974380493
1761338304227605800,4.481605712890625,-1.3715553283691406,-0.0012689679861068726,-1.1466683149337769
1761338304237670700,4.491670654296875,-1.4388513565063477,-0.015886761248111725,-1.1875187158584595
1761338304247736600,4.501736572265625,-1.4685319662094116,0.056032173335552216,-1.1279070377349854
1761338304257802800,4.511802734375,-1.4650040864944458,0.15843424201011658,-1.0268969535827637
1761338304267868000,4.521867919921875,-1.4142591953277588,0.2003960758447647,-0.8987264633178711
1761338304277933800,4.531933837890625,-1.2991136312484741,0.13904713094234467,-0.7489111423492432
1761338304287998700,4.541998779296875,-1.2713693380355835,0.372528076171875,-0.6705238819122314
1761338304298064600,4.552064697265625,-1.245922565460205,0.5934823155403137,-0.48984259366989136
1761338304308130800,4.562130859375,-1.185034990310669,0.6558210253715515,-0.19753989577293396
1761338304318195700,4.57219580078125,-1.1261953115463257,0.6616373658180237,0.14474257826805115
1761338304328261600,4.58226171875,-1.0840502977371216,0.6583142280578613,0.4914592504501343
1761338304338327600,4.59232763671875,-1.1036041975021362,0.6110366582870483,0.736707329750061
1761338304348392700,4.602392822265625,-1.1784228086471558,0.5393257141113281,0.8613017201423645
1761338304358459000,4.612458984375,-1.2881078720092773,0.5048059821128845,0.8963375687599182
1761338304368523800,4.622523681640625,-1.3248951435089111,0.5297943949699402,0.857873797416687
1761338304378589700,4.632589599609375,-1.2608526945114136,0.596678614616394,0.7484188675880432
1761338304388655600,4.642655517578125,-1.1572126150131226,0.592512845993042,0.575677216053009
1761338304398720800,4.652720703125,-1.0139107704162598,0.4878902733325958,0.37120869755744934
1761338304408786700,4.66278662109375,-0.8941521644592285,0.3686160743236542,0.18112291395664215
1761338304418852900,4.672852783203125,-0.8680233955383301,0.19713740050792694,0.07022146135568619
1761338304428917800,4.682917724609375,-0.9628630876541138,0.08836246281862259,0.06622565537691116
1761338304438983700,4.692983642578125,-1.0726733207702637,0.10939528793096542,0.15923458337783813
1761338304449048800,4.703048828125,-1.1537426710128784,0.19299457967281342,0.2969719171524048
1761338304459114800,4.71311474609375,-1.2281417846679688,0.31522759795188904,0.4370095431804657
1761338304469181000,4.723180908203125,-1.3102734088897705,0.40987953543663025,0.5330908298492432
1761338304479245600,4.73324560546875,-1.377485990524292,0.4378339350223541,0.5745518207550049
1761338304489311700,4.743311767578125,-1.4039716720581055,0.4462481737136841,0.5632954239845276
1761338304499377700,4.753377685546875,-1.3687907457351685,0.46382471919059753,0.5274648070335388
1761338304509442800,4.76344287109375,-1.273498296737671,0.5050286054611206,0.5073963403701782
1761338304519508700,4.7735087890625,-1.155261516571045,0.5176993012428284,0.5108977556228638
1761338304529573600,4.78357373046875,-1.0698262453079224,0.45297810435295105,0.5282583236694336
1761338304539639800,4.793639892578125,-1.0454699993133545,0.35480010509490967,0.5405353903770447
1761338304549705700,4.803705810546875,-1.0540038347244263,0.24531516432762146,0.5365329384803772
1761338304559771000,4.81377099609375,-1.0846116542816162,0.14428935945034027,0.4726450741291046
1761338304569836500,4.82383642578125,-1.1239694356918335,0.06656447052955627,0.35480794310569763
1761338304579902700,4.83390283203125,-1.1833717823028564,-0.020549766719341278,0.20190644264221191
1761338304589967600,4.843967529296875,-1.2766809463500977,-0.1489575356245041,0.05737589672207832
1761338304600033800,4.85403369140625,-1.4002878665924072,-0.30156201124191284,-0.05146438628435135
1761338304610099000,4.864098876953125,-1.5008821487426758,-0.4415718615055084,-0.10871915519237518
1761338304620164600,4.87416455078125,-1.5729321241378784,-0.5204785466194153,-0.11468091607093811
1761338304630230800,4.884230712890625,-1.6253492832183838,-0.5503730773925781,-0.11141374707221985
1761338304640295700,4.894295654296875,-1.6640655994415283,-0.5045648217201233,-0.10180415958166122
1761338304650361900,4.90436181640625,-1.6884480714797974,-0.35401099920272827,-0.10279911756515503
1761338304660427800,4.914427734375,-1.7199090719223022,-0.1443585455417633,-0.13810153305530548
1761338304670492700,4.92449267578125,-1.7612165212631226,0.0636305958032608,-0.20638631284236908
1761338304680558600,4.93455859375,-1.7740628719329834,0.2515406310558319,-0.26474839448928833
1761338304690623700,4.944623779296875,-1.7731761932373047,0.37625032663345337,-0.26144182682037354
1761338304700690000,4.95468994140625,-1.7605311870574951,0.41328752040863037,-0.2010282427072525
1761338304710755800,4.964755859375,-1.7448043823242188,0.4024982750415802,-0.10454058647155762
1761338304720820700,4.97482080078125,-1.7404747009277344,0.41212549805641174,-0.02296794392168522
1761338304730886700,4.98488671875,-1.7448409795761108,0.44096434116363525,0.04213036596775055
1761338304740952800,4.994952880859375,-1.756948709487915,0.47116342186927795,0.07405699044466019
1761338304751017700,5.005017822265625,-1.7709194421768188,0.47907620668411255,0.049493588507175446
1761338304761084000,5.015083984375,-1.768596887588501,0.455181360244751,-0.008101155050098896
1761338304771148800,5.025148681640625,-1.754068374633789,0.39234915375709534,-0.1141362413764
1761338304781214700,5.035214599609375,-1.7219420671463013,0.32959312200546265,-0.24533239006996155
1761338304791280600,5.04528076171875,-1.6689574718475342,0.2925828993320465,-0.37229275703430176
1761338304801345800,5.055345703125,-1.6083725690841675,0.28860822319984436,-0.48321086168289185
1761338304811411700,5.06541162109375,-1.5505502223968506,0.30398106575012207,-0.5579599142074585
1761338304821477600,5.0754775390625,-1.4939695596694946,0.3095088601112366,-0.5873846411705017
1761338304831542800,5.085542724609375,-1.4636356830596924,0.2860725224018097,-0.5753463506698608
1761338304841608700,5.095608642578125,-1.4570173025131226,0.2772758901119232,-0.5142452120780945
1761338304851673900,5.105673828125,-1.4646531343460083,0.27177858352661133,-0.4380303919315338
1761338304861739500,5.115739501953125,-1.4707902669906616,0.24213062226772308,-0.36951929330825806
1761338304871805700,5.1258056640625,-1.446186900138855,0.21519862115383148,-0.31433141231536865
1761338304881870800,5.135870849609375,-1.3887414932250977,0.18049070239067078,-0.2770546078681946
1761338304891936800,5.145936767578125,-1.3003644943237305,0.15607191622257233,-0.2648831605911255
1761338304902002700,5.156002685546875,-1.1968376636505127,0.1532149761915207,-0.27056199312210083
1761338304912067600,5.166067626953125,-1.1005750894546509,0.15653753280639648,-0.2664735019207001
1761338304922133800,5.1761337890625,-1.0079931020736694,0.17007587850093842,-0.2565717101097107
1761338304932198700,5.18619873046875,-0.9293070435523987,0.17082741856575012,-0.22090667486190796
1761338304942264800,5.196264892578125,-0.8654771447181702,0.125979945063591,-0.1643822342157364
1761338304952330800,5.206330810546875,-0.8190732002258301,0.039373427629470825,-0.07395912706851959
1761338304962395600,5.216395751953125,-0.8119862675666809,-0.09365460276603699,0.02625592052936554
1761338304972461800,5.2264619140625,-0.8131439089775085,-0.20979319512844086,0.1112469807267189
1761338304982527700,5.23652783203125,-0.8137441277503967,-0.23874594271183014,0.1810174286365509
1761338304992593000,5.246593017578125,-0.8170275092124939,-0.2475767284631729,0.24044932425022125
1761338305002658800,5.256658935546875,-0.7976801991462708,-0.25970911979675293,0.26847752928733826
1761338305012723700,5.2667236328125,-0.7576901912689209,-0.29013094305992126,0.2650441825389862
1761338305022789600,5.27678955078125,-0.7224518656730652,-0.3572145104408264,0.20175610482692719
1761338305032855800,5.286855712890625,-0.8836809396743774,-0.4243730306625366,0.10240501165390015
1761338305042920700,5.296920654296875,-1.2169491052627563,-0.3208303153514862,-0.06773369759321213
1761338305052986600,5.306986572265625,-1.5609196424484253,-0.07075149565935135,-0.34015747904777527
1761338305063052500,5.317052490234375,-1.8721550703048706,0.017492786049842834,-0.6156023740768433
1761338305073117700,5.32711767578125,-2.083768844604492,-0.17115142941474915,-0.8503488302230835
1761338305083183900,5.337183837890625,-2.141759157180786,-0.4022160470485687,-0.9944264888763428
1761338305093248800,5.347248779296875,-2.1054275035858154,-0.5363682508468628,-1.0243779420852661
1761338305103314700,5.357314697265625,-2.0669028759002686,-0.539600670337677,-0.9215020537376404
1761338305113380600,5.367380615234375,-2.0418636798858643,-0.44308584928512573,-0.7212059497833252
1761338305123445800,5.37744580078125,-1.9890202283859253,-0.30878594517707825,-0.4463346004486084
1761338305133511700,5.38751171875,-1.8794623613357544,-0.10502322763204575,-0.17083750665187836
1761338305143577900,5.397577880859375,-1.7408080101013184,0.10367908328771591,0.05836043506860733
1761338305153642800,5.407642822265625,-1.6315534114837646,0.28673306107521057,0.2376420497894287
1761338305163708700,5.417708740234375,-1.5430948734283447,0.43968579173088074,0.381422221660614
1761338305173773800,5.42777392578125,-1.4619786739349365,0.5668187141418457,0.5214890241622925
1761338305183839700,5.43783984375,-1.383016586303711,0.6622018814086914,0.6919131278991699
1761338305193906000,5.447906005859375,-1.343202829360962,0.6010572910308838,0.8420863747596741
1761338305203970600,5.457970458984375,-1.3265244960784912,0.4368327856063843,0.9594011902809143
1761338305214036700,5.46803662109375,-1.3254461288452148,0.2640431821346283,1.0324703454971313
1761338305224102700,5.4781025390625,-1.3484677076339722,0.1130969226360321,1.0454431772232056
1761338305234167800,5.488167724609375,-1.378283143043518,-0.058115314692258835,0.9723641872406006
1761338305244233700,5.498233642578125,-1.3791606426239014,-0.24337045848369598,0.8075823187828064
1761338305254298600,5.508298583984375,-1.3435230255126953,-0.34934401512145996,0.591835618019104
1761338305264364800,5.51836474609375,-1.3015246391296387,-0.31625211238861084,0.3596416413784027
1761338305274430700,5.5284306640625,-1.2524161338806152,-0.22560928761959076,0.14543667435646057
1761338305284496000,5.538495849609375,-1.1799094676971436,-0.11404900997877121,-0.04697912186384201
1761338305294561500,5.5485615234375,-1.0856575965881348,0.03487708419561386,-0.18958927690982819
1761338305304627700,5.558627685546875,-0.9641457200050354,0.18862584233283997,-0.25009047985076904
1761338305314692600,5.568692626953125,-0.8394684791564941,0.32156550884246826,-0.21276412904262543
1761338305324758800,5.5787587890625,-0.7243703603744507,0.3896559178829193,-0.09749085456132889
1761338305334823700,5.58882373046875,-0.6456254720687866,0.3812166154384613,0.07697682082653046
1761338305344889600,5.5988896484375,-0.5893238186836243,0.36027663946151733,0.26351580023765564
1761338305354955800,5.608955810546875,-0.5357325077056885,0.3287019431591034,0.4043096601963043
1761338305365020700,5.619020751953125,-0.48748281598091125,0.26547539234161377,0.4577291011810303
1761338305375086800,5.6290869140625,-0.4266980290412903,0.22402140498161316,0.4202246069908142
1761338305385152800,5.63915283203125,-0.34349825978279114,0.1999446451663971,0.2905971109867096
1761338305395217700,5.6492177734375,-0.2593514323234558,0.1803123652935028,0.13114726543426514
1761338305405283600,5.65928369140625,-0.17484086751937866,0.1866513192653656,-0.029221536591649055
1761338305415348700,5.6693486328125,-0.09515322744846344,0.1813066303730011,-0.158287912607193
1761338305425415000,5.679414794921875,-0.030601367354393005,0.1176164373755455,-0.2739224135875702
1761338305435480800,5.689480712890625,0.026152458041906357,0.05195673555135727,-0.3402755856513977
1761338305445545700,5.699545654296875,0.07247675210237503,0.031511176377534866,-0.34658297896385193
1761338305455611600,5.709611572265625,0.09134844690561295,0.01774716004729271,-0.30012598633766174
1761338305465677800,5.719677734375,0.08479025959968567,0.02185063809156418,-0.24468815326690674
1761338305475742700,5.72974267578125,0.08589281141757965,0.08910344541072845,-0.22810862958431244
1761338305485808600,5.73980859375,0.12441934645175934,0.2524745464324951,-0.2638430893421173
1761338305495873800,5.749873779296875,0.1674799919128418,0.47051021456718445,-0.3500528037548065
1761338305505939700,5.759939697265625,0.18248629570007324,0.7271636128425598,-0.46386080980300903
1761338305516005600,5.770005615234375,0.14834962785243988,0.9709722995758057,-0.5656220316886902
1761338305526070800,5.78007080078125,0.08221933245658875,1.167788028717041,-0.5936973690986633
1761338305536136700,5.79013671875,-0.01873152144253254,1.2772644758224487,-0.5391121506690979
1761338305546202600,5.80020263671875,-0.12055932730436325,1.2870087623596191,-0.4127289056777954
1761338305556267800,5.810267822265625,-0.20902155339717865,1.1859159469604492,-0.24470369517803192
1761338305566333700,5.820333740234375,-0.27667543292045593,0.9636701941490173,-0.029178595170378685
1761338305576398600,5.830398681640625,-0.35908231139183044,0.6776130795478821,0.21743693947792053
1761338305586464800,5.84046484375,-0.5063220858573914,0.3898555040359497,0.4932907819747925
1761338305596530700,5.85053076171875,-0.6863704323768616,0.1760617047548294,0.7641326785087585
1761338305606595800,5.860595947265625,-0.8448081612586975,0.033799394965171814,0.9931400418281555
1761338305616661800,5.870661865234375,-0.8962734937667847,0.017200445756316185,1.1426717042922974
1761338305626728000,5.88072802734375,-0.8038499355316162,0.19917890429496765,1.192217230796814
1761338305636792600,5.89079248046875,-0.590173602104187,0.49393197894096375,1.1381891965866089
1761338305646858800,5.900858642578125,-0.3452572226524353,0.7400348782539368,0.9997512698173523
1761338305656923600,5.910923583984375,-0.1455172300338745,0.7924816012382507,0.8397525548934937
1761338305666989800,5.92098974609375,-0.027248773723840714,0.588290810585022,0.7314230799674988
1761338305677055700,5.9310556640625,-0.0031061521731317043,0.23267091810703278,0.6898394227027893
1761338305687120600,5.94112060546875,-0.06343254446983337,-0.1492764949798584,0.6907256841659546
1761338305697186800,5.951186767578125,-0.19990649819374084,-0.476640522480011,0.7235784530639648
1761338305707252700,5.961252685546875,-0.3539992868900299,-0.7579651474952698,0.7639675140380859
1761338305717318000,5.97131787109375,-0.5027011036872864,-0.9786085486412048,0.7693513631820679
1761338305727383600,5.981383544921875,-0.6247548460960388,-1.1053409576416016,0.7102381587028503
1761338305737448700,5.99144873046875,-0.6599873900413513,-1.0227209329605103,0.5747125744819641
1761338305747514600,6.0015146484375,-0.5933827757835388,-0.7388026118278503,0.38400280475616455
1761338305757580800,6.011580810546875,-0.4126257598400116,-0.3855198621749878,0.2196388989686966
1761338305767646000,6.02164599609375,-0.13684263825416565,-0.0828675925731659,0.10965060442686081
1761338305777711600,6.031711669921875,0.06453786790370941,0.01501688826829195,0.10250640660524368
1761338305787777500,6.041777587890625,0.19159668684005737,0.03467825800180435,0.11639432609081268
1761338305797842700,6.0518427734375,0.16215063631534576,-0.07953912764787674,0.19367313385009766
1761338305807908900,6.061908935546875,0.11171063780784607,-0.09344402700662613,0.20834316313266754
1761338305817973500,6.071973388671875,0.0509524829685688,-0.012965695932507515,0.17014916241168976
1761338305828039700,6.082039794921875,-0.04538175091147423,0.09682108461856842,0.04159970581531525
1761338305838105600,6.092105712890625,-0.21435533463954926,0.14105911552906036,-0.1309206634759903
1761338305848170800,6.102170654296875,-0.4840518534183502,0.071250319480896,-0.2700055241584778
1761338305858236700,6.112236572265625,-0.8153442740440369,-0.1185544952750206,-0.3371736407279968
1761338305868302800,6.122302734375,-1.1342999935150146,-0.3645106554031372,-0.2952418327331543
1761338305878367700,6.13236767578125,-1.3851772546768188,-0.5792123675346375,-0.1888624131679535
1761338305888433700,6.14243359375,-1.5768436193466187,-0.7470985651016235,-0.10470200330018997
1761338305898498600,6.15249853515625,-1.6969281435012817,-0.9150081872940063,-0.014346014708280563
1761338305908564500,6.162564453125,-1.7558543682098389,-1.0004544258117676,0.0772496834397316
1761338305918630700,6.172630615234375,-1.7576227188110352,-0.9371718168258667,0.15420597791671753
1761338305928695600,6.182695556640625,-1.701853632926941,-0.7477933168411255,0.21183326840400696
1761338305938761700,6.19276171875,-1.6273356676101685,-0.49760156869888306,0.26547226309776306
1761338305948827400,6.202827392578125,-1.5975006818771362,-0.29585644602775574,0.3007241189479828
1761338305958892500,6.212892578125,-1.6135915517807007,-0.19229702651500702,0.3315590023994446
1761338305968958700,6.222958740234375,-1.6470589637756348,-0.15602940320968628,0.323872447013855
1761338305979023600,6.233023681640625,-1.6868274211883545,-0.15828004479408264,0.2775227725505829
1761338305989089500,6.243089599609375,-1.7681745290756226,-0.1816941201686859,0.1864813268184662
1761338305999155500,6.253155517578125,-1.9002602100372314,-0.21332767605781555,0.027315106242895126
1761338306009220600,6.263220703125,-2.0322234630584717,-0.24105216562747955,-0.17588582634925842
1761338306019286500,6.27328662109375,-2.1249873638153076,-0.18353453278541565,-0.3735339045524597
1761338306029352700,6.283352783203125,-2.136517286300659,-0.026563480496406555,-0.5372737050056458
1761338306039417600,6.29341748046875,-2.0836689472198486,0.14866584539413452,-0.6524426341056824
1761338306049483500,6.3034833984375,-2.005831718444824,0.16348113119602203,-0.7326809167861938
1761338306059548700,6.313548583984375,-1.9257872104644775,0.07094214111566544,-0.790938675403595
1761338306069614600,6.323614501953125,-1.8350419998168945,-0.01916968636214733,-0.8385345339775085
1761338306079680800,6.3336806640625,-1.7385690212249756,-0.031590137630701065,-0.8763386607170105
1761338306089745400,6.343745361328125,-1.6455007791519165,-0.004353582859039307,-0.9137837290763855
1761338306099811600,6.3538115234375,-1.5119965076446533,0.052332863211631775,-0.9010894894599915
1761338306109877500,6.36387744140625,-1.3177826404571533,0.13700051605701447,-0.8217487335205078
1761338306119942700,6.373942626953125,-1.1173086166381836,0.19025202095508575,-0.6782448291778564
1761338306130008600,6.384008544921875,-0.9534121751785278,0.19514067471027374,-0.48813143372535706
1761338306140073500,6.394073486328125,-0.8354533314704895,0.20605137944221497,-0.27204975485801697
1761338306150139600,6.4041396484375,-0.7792834639549255,0.21473847329616547,-0.06904079020023346
1761338306160205600,6.41420556640625,-0.7848542332649231,0.20095714926719666,0.08735440671443939
1761338306170270700,6.424270751953125,-0.8362430334091187,0.1555597484111786,0.16401737928390503
1761338306180336600,6.434336669921875,-0.9221358299255371,0.08196541666984558,0.1299784630537033
1761338306190402600,6.444402587890625,-0.9839193224906921,0.009661555290222168,0.018521474674344063
1761338306200467700,6.4544677734375,-0.9834614992141724,-0.027239469811320305,-0.12817582488059998
1761338306210533600,6.46453369140625,-0.9330177307128906,-0.06760356575250626,-0.2708962559700012
1761338306220598800,6.474598876953125,-0.8530694246292114,-0.09402824938297272,-0.3647095561027527
1761338306230664400,6.48466455078125,-0.7646090984344482,-0.1409481018781662,-0.40132269263267517
1761338306240730600,6.494730712890625,-0.6813600063323975,-0.21966634690761566,-0.39462563395500183
1761338306250795500,6.50479541015625,-0.5783692002296448,-0.32524511218070984,-0.3641800582408905
1761338306260861700,6.51486181640625,-0.4525289833545685,-0.42333146929740906,-0.31127849221229553
1761338306270927600,6.524927734375,-0.3912069499492645,-0.4655745327472687,-0.2557668387889862
1761338306280992500,6.534992431640625,-0.4131050705909729,-0.47077515721321106,-0.24582339823246002
1761338306291058400,6.545058349609375,-0.4790121614933014,-0.4600852131843567,-0.29717665910720825
1761338306301123600,6.55512353515625,-0.526222288608551,-0.4893338978290558,-0.3829783797264099
1761338306311189800,6.565189697265625,-0.5550317168235779,-0.5732550621032715,-0.46266716718673706
1761338306321255700,6.575255615234375,-0.5917239785194397,-0.6371933221817017,-0.48835280537605286
1761338306331320600,6.585320556640625,-0.6543394327163696,-0.6342648863792419,-0.439248651266098
1761338306341386500,6.595386474609375,-0.7272160053253174,-0.577913224697113,-0.3317594826221466
1761338306351452700,6.60545263671875,-0.792464017868042,-0.44722965359687805,-0.15988221764564514
1761338306361517600,6.615517578125,-0.8280193209648132,-0.2821914255619049,0.06205497682094574
1761338306371583700,6.625583740234375,-0.8142048716545105,-0.14604605734348297,0.27991610765457153
1761338306381648600,6.635648681640625,-0.7459515333175659,-0.051128871738910675,0.48728474974632263
1761338306391714600,6.645714599609375,-0.6398950815200806,0.04587666317820549,0.6532984375953674
1761338306401780500,6.655780517578125,-0.5041607022285461,0.15026192367076874,0.773033082485199
1761338306411845600,6.665845703125,-0.33260378241539,0.25698885321617126,0.8571779727935791
1761338306421911800,6.675911865234375,-0.1558263599872589,0.36332061886787415,0.9142399430274963
1761338306431977500,6.6859775390625,0.014385594055056572,0.4313335418701172,0.9604148864746094
1761338306442042600,6.696042724609375,0.15658295154571533,0.401462197303772,0.9933539032936096
1761338306452108500,6.706108642578125,0.24851244688034058,0.28924083709716797,1.026771903038025
1761338306462173700,6.716173583984375,0.29887843132019043,0.11271722614765167,1.0531466007232666
1761338306472239600,6.726239501953125,0.3046848773956299,-0.11513714492321014,1.053648591041565
1761338306482305500,6.736305419921875,0.27472859621047974,-0.37922394275665283,0.9760451316833496
1761338306492370700,6.74637060546875,0.19705983996391296,-0.6408542990684509,0.7686624526977539
1761338306502436600,6.7564365234375,0.08571040630340576,-0.8089376091957092,0.4397977292537689
1761338306512502800,6.766502685546875,-0.05066705867648125,-0.8156524300575256,0.022101903334259987
1761338306522567400,6.7765673828125,-0.16989651322364807,-0.6969838738441467,-0.4178216755390167
1761338306532633600,6.786633544921875,-0.2813102602958679,-0.5308458805084229,-0.8133066296577454
1761338306542698500,6.796698486328125,-0.3910609781742096,-0.3777695298194885,-1.0968395471572876
1761338306552764700,6.8067646484375,-0.4813315272331238,-0.21716587245464325,-1.2408286333084106
1761338306562830600,6.81683056640625,-0.5437991619110107,-0.0449829176068306,-1.2537356615066528
1761338306572895500,6.8268955078125,-0.5904554128646851,0.12734192609786987,-1.154984474182129
1761338306582961700,6.836961669921875,-0.6272671818733215,0.24799218773841858,-0.9822031259536743
1761338306593027600,6.847027587890625,-0.6357294321060181,0.30451151728630066,-0.7854841947555542
1761338306603092700,6.8570927734375,-0.6005333662033081,0.360709547996521,-0.5783525705337524
1761338306613158700,6.86715869140625,-0.5155015587806702,0.42275911569595337,-0.37451449036598206
1761338306623223600,6.8772236328125,-0.39700525999069214,0.4416121542453766,-0.1873006373643875
1761338306633289500,6.88728955078125,-0.27225351333618164,0.37779632210731506,-0.04304385185241699
1761338306643355600,6.897355712890625,-0.16029872000217438,0.24592192471027374,0.06754790246486664
1761338306653420800,6.9074208984375,-0.062535859644413,0.10651212185621262,0.13739004731178284
1761338306663486700,6.91748681640625,0.01793740689754486,0.010687324218451977,0.16590452194213867
1761338306673552600,6.927552734375,0.07634182274341583,-0.051990605890750885,0.1455683410167694
1761338306683617500,6.937617431640625,0.09000330418348312,-0.07742644846439362,0.08875352889299393
1761338306693683700,6.94768359375,0.07264906167984009,-0.08910205215215683,0.01699657179415226
1761338306703748600,6.95774853515625,0.03623725846409798,-0.10842940956354141,-0.058376748114824295
1761338306713814500,6.967814453125,-0.006331878248602152,-0.1313028335571289,-0.11684288829565048
1761338306723880400,6.97788037109375,-0.04119052737951279,-0.14513929188251495,-0.18203388154506683
1761338306733945600,6.987945556640625,-0.0629594549536705,-0.1361616998910904,-0.24540218710899353
1761338306744011500,6.998011474609375,-0.0848679468035698,-0.10171397030353546,-0.2861911356449127
1761338306754077700,7.00807763671875,-0.10877589881420135,-0.04736804962158203,-0.312560498714447
1761338306764142600,7.018142578125,-0.1502610296010971,-0.0173499658703804,-0.33455368876457214
1761338306774208500,7.02820849609375,-0.20530132949352264,-0.02457025647163391,-0.3567376732826233
1761338306784273700,7.038273681640625,-0.28619301319122314,-0.0765351802110672,-0.3909350335597992
1761338306794339600,7.048339599609375,-0.40547975897789,-0.15277212858200073,-0.43826785683631897
1761338306804405800,7.05840576171875,-0.5189357399940491,-0.18635831773281097,-0.48122385144233704
1761338306814470700,7.068470703125,-0.6097988486289978,-0.18045574426651,-0.48309755325317383
1761338306824536600,7.07853662109375,-0.668510377407074,-0.13240140676498413,-0.4307432770729065
1761338306834602500,7.0886025390625,-0.6934168934822083,-0.10457862913608551,-0.334609717130661
1761338306844667600,7.098667724609375,-0.6720149517059326,-0.09677449613809586,-0.17320139706134796
1761338306854733800,7.10873388671875,-0.582469642162323,-0.007386577781289816,0.018863681703805923
1761338306864798500,7.118798583984375,-0.44232848286628723,0.18270933628082275,0.2390405237674713
1761338306874864600,7.12886474609375,-0.3046359121799469,0.39904922246932983,0.4583122134208679
1761338306884930600,7.1389306640625,-0.15922118723392487,0.5794975757598877,0.6594687104225159
1761338306894995700,7.14899560546875,0.001473363023251295,0.6627966165542603,0.7532546520233154
1761338306905061000,7.15906103515625,0.1415282040834427,0.5792918801307678,0.7260728478431702
1761338306915127000,7.169126953125,0.16996029019355774,0.26067227125167847,0.6617671847343445
1761338306925192200,7.179192138671875,0.07652460783720016,-0.2920697331428528,0.6220565438270569
1761338306935258000,7.189258056640625,-0.03183393552899361,-0.8896751999855042,0.5224413871765137
1761338306945324300,7.19932421875,-0.08447584509849548,-1.1837568283081055,0.3869815468788147
1761338306955389000,7.209388916015625,-0.1026771292090416,-1.0784741640090942,0.24317899346351624
1761338306965455000,7.219455078125,-0.14419206976890564,-0.6637333631515503,0.14119137823581696
1761338306975520300,7.229520263671875,-0.15992501378059387,-0.12386231124401093,0.07562600076198578
1761338306985586200,7.239586181640625,-0.11313354223966599,0.40445637702941895,0.02990538999438286
1761338306995652000,7.249652099609375,-0.008256856352090836,0.825411319732666,0.020353633910417557
1761338307005717000,7.259717041015625,0.11299580335617065,1.069918155670166,0.04216518998146057
1761338307015783200,7.269783203125,0.21121428906917572,1.1367970705032349,0.10152273625135422
1761338307025848000,7.27984814453125,0.289437472820282,1.049540400505066,0.18607835471630096
1761338307035914200,7.289914306640625,0.3626541495323181,0.8514418601989746,0.29495367407798767
1761338307045980200,7.299980224609375,0.43493950366973877,0.6011555790901184,0.4247433841228485
1761338307056045000,7.310045166015625,0.4935303330421448,0.33523908257484436,0.5560306310653687
1761338307066111000,7.320111083984375,0.5503315329551697,0.10627967864274979,0.6444877982139587
1761338307076177200,7.33017724609375,0.6046552658081055,-0.035284269601106644,0.6375625133514404
1761338307086242300,7.3402421875,0.6410812139511108,-0.11890619248151779,0.5119670033454895
1761338307096308000,7.350307861328125,0.647911787033081,-0.1542145013809204,0.2725127935409546
1761338307106373000,7.360373046875,0.6293849945068359,-0.12313196063041687,-0.014981296844780445
1761338307116439000,7.37043896484375,0.6083524227142334,-0.020283136516809464,-0.2790931165218353
1761338307126505200,7.380505126953125,0.5624443292617798,0.06725603342056274,-0.4806984066963196
1761338307136570000,7.390570068359375,0.4949558973312378,0.03640779107809067,-0.6092689633369446
1761338307146636000,7.400635986328125,0.4219120442867279,-0.0808061882853508,-0.6788398027420044
1761338307156702000,7.410701904296875,0.3567265272140503,-0.19583262503147125,-0.6978432536125183
1761338307166767000,7.42076708984375,0.3055083453655243,-0.2596267759799957,-0.6736228466033936
1761338307176833300,7.430833251953125,0.25030234456062317,-0.26051396131515503,-0.638555109500885
1761338307186898000,7.44089794921875,0.20276278257369995,-0.1845470368862152,-0.5637192130088806
1761338307196964000,7.450964111328125,0.1753099262714386,-0.060596395283937454,-0.4458807706832886
1761338307207030000,7.461030029296875,0.16854523122310638,0.0657612755894661,-0.30478543043136597
1761338307217095200,7.47109521484375,0.15039727091789246,0.1533035784959793,-0.1802721619606018
1761338307227161000,7.4811611328125,0.12124098837375641,0.19535276293754578,-0.09601854532957077
1761338307237227300,7.491227294921875,0.09735057502985,0.238047257065773,-0.06438873708248138
1761338307247292200,7.501292236328125,0.08892273157835007,0.26670950651168823,-0.07627469301223755
1761338307257358000,7.511358154296875,0.10697811096906662,0.2664875388145447,-0.12201546877622604
1761338307267423200,7.52142333984375,0.15708628296852112,0.24538171291351318,-0.15877029299736023
1761338307277489200,7.5314892578125,0.21448791027069092,0.201790913939476,-0.1800495982170105
1761338307287555300,7.541555419921875,0.2723413407802582,0.13639192283153534,-0.1773824393749237
1761338307297620000,7.551619873046875,0.309562087059021,0.06875942647457123,-0.1716272085905075
1761338307307686100,7.56168603515625,0.32165390253067017,0.001720743253827095,-0.15899476408958435
1761338307317752000,7.571751953125,0.3122285306453705,-0.04257454350590706,-0.15967586636543274
1761338307327817200,7.581817138671875,0.28728508949279785,-0.06655178219079971,-0.1592702716588974
1761338307337883000,7.5918828125,0.26542070508003235,-0.10401907563209534,-0.15521122515201569
1761338307347949000,7.601948974609375,0.2424088567495346,-0.1342901587486267,-0.13500875234603882
1761338307358014200,7.61201416015625,0.24583083391189575,-0.12500828504562378,-0.1044011265039444
1761338307368080100,7.622080078125,0.2573167681694031,-0.12593425810337067,-0.07573512941598892
1761338307378145300,7.632145263671875,0.26949945092201233,-0.1659231036901474,-0.06496506929397583
1761338307388211000,7.6422109375,0.28619614243507385,-0.17552779614925385,-0.07881404459476471
1761338307398277000,7.652277099609375,0.2873932421207428,-0.14554138481616974,-0.07628300040960312
1761338307408342000,7.662342041015625,0.26605573296546936,-0.08276402205228806,-0.05021970719099045
1761338307418408200,7.672408203125,0.221089169383049,-0.04559306800365448,-0.023619884625077248
1761338307428473000,7.68247314453125,0.16931918263435364,-0.044786661863327026,0.005711637903004885
1761338307438539000,7.6925390625,0.13018904626369476,-0.08434060961008072,0.018382500857114792
1761338307448605200,7.702605224609375,0.1013246402144432,-0.16808317601680756,-0.014170115813612938
1761338307458670000,7.712670166015625,0.06390371918678284,-0.2676636874675751,-0.10518705099821091
1761338307468736300,7.722736328125,0.01994052156805992,-0.3328839838504791,-0.2215307056903839
1761338307478802200,7.73280224609375,-0.01037631556391716,-0.35242608189582825,-0.337015300989151
1761338307488867000,7.7428671875,-0.022124052047729492,-0.3652697205543518,-0.3871985971927643
1761338307498933000,7.75293310546875,-0.016098707914352417,-0.3575562834739685,-0.34788572788238525
1761338307508999200,7.762999267578125,-0.007382978685200214,-0.3296138644218445,-0.23783670365810394
1761338307519064000,7.77306396484375,-0.09578588604927063,-0.2687135338783264,-0.08407348394393921
1761338307529130000,7.7831298828125,-0.19861052930355072,-0.1118120476603508,0.03384995460510254
1761338307539195100,7.793195068359375,-0.20092056691646576,-0.022794310003519058,0.057397112250328064
1761338307549261000,7.803260986328125,-0.18971531093120575,-0.09818973392248154,-0.04360460117459297
1761338307559327200,7.8133271484375,-0.20731373131275177,-0.21819913387298584,-0.19120311737060547
1761338307569392000,7.82339208984375,-0.23190055787563324,-0.2645812928676605,-0.3145735263824463
1761338307579458000,7.8334580078125,-0.23445449769496918,-0.2353505641222,-0.39417916536331177
1761338307589524000,7.84352392578125,-0.20790384709835052,-0.14458045363426208,-0.43474844098091125
1761338307599589000,7.853589111328125,-0.1552448570728302,-0.030913960188627243,-0.3815228343009949
1761338307609655000,7.863655029296875,-0.030293598771095276,0.11244373023509979,-0.22857560217380524
1761338307619720000,7.873719970703125,0.18639905750751495,0.2770724594593048,-0.0005038389936089516
1761338307629786000,7.8837861328125,0.4345068633556366,0.41031038761138916,0.2848658561706543
1761338307639852000,7.89385205078125,0.6741145253181458,0.45209801197052,0.5859094262123108
1761338307649917200,7.903917236328125,0.875668466091156,0.36963242292404175,0.9227542877197266
1761338307659983000,7.913983154296875,1.0505272150039673,0.17007148265838623,1.247538685798645
1761338307670049300,7.92404931640625,1.1657378673553467,-0.09605474025011063,1.506375789642334
1761338307680114000,7.934114013671875,1.2200335264205933,-0.3659912049770355,1.6167032718658447
1761338307690180000,7.94418017578125,1.211320161819458,-0.530073344707489,1.53651762008667
1761338307700245200,7.954245361328125,1.1389119625091553,-0.5356214046478271,1.250440001487732
1761338307710311200,7.964311279296875,1.0147439241409302,-0.4448949694633484,0.8187142014503479
1761338307720377000,7.974377197265625,0.8270305395126343,-0.3121388852596283,0.3133929669857025
1761338307730442000,7.98444189453125,0.5590968132019043,-0.22955292463302612,-0.167526513338089
1761338307740508200,7.994508056640625,0.2690211534500122,-0.19598115980625153,-0.5605041980743408
1761338307750573000,8.004572998046875,0.033432312309741974,-0.19231346249580383,-0.8350105881690979
1761338307760639200,8.01463916015625,-0.11709153652191162,-0.16086532175540924,-0.9636440873146057
1761338307770705000,8.024704833984375,-0.15718649327754974,-0.06356354802846909,-0.9423201680183411
1761338307780770000,8.03477001953125,-0.0897098183631897,0.11421728879213333,-0.7960011959075928
1761338307790836000,8.0448359375,0.07982701063156128,0.29809629917144775,-0.580420970916748
1761338307800902100,8.054902099609375,0.3212398886680603,0.37875163555145264,-0.32415398955345154
1761338307810967300,8.06496728515625,0.5403999090194702,0.31884169578552246,-0.07274387031793594
1761338307821033000,8.075032958984375,0.7423047423362732,0.17916929721832275,0.13731466233730316
1761338307831098000,8.08509814453125,0.954664409160614,0.04108652472496033,0.2754807770252228
1761338307841164000,8.0951640625,1.138803482055664,-0.0566323883831501,0.35031068325042725
1761338307851230200,8.105230224609375,1.2536927461624146,-0.1194843202829361,0.36727768182754517
1761338307861295000,8.115295166015626,1.2949144840240479,-0.1589011400938034,0.3372691571712494
1761338307871361000,8.125361083984375,1.280255913734436,-0.1803869903087616,0.2816367745399475
1761338307881427000,8.135427001953126,1.2449427843093872,-0.19626477360725403,0.2209155410528183
1761338307891492000,8.1454921875,1.179422378540039,-0.2405235916376114,0.16936632990837097
1761338307901558000,8.15555810546875,1.113147258758545,-0.2582471966743469,0.12888458371162415
1761338307911623000,8.165622802734376,1.0707844495773315,-0.25201302766799927,0.07425223290920258
1761338307921689000,8.175689208984375,1.0521252155303955,-0.2143857330083847,-0.020808503031730652
1761338307931755000,8.185755126953126,1.0691777467727661,-0.18011325597763062,-0.11639281362295151
1761338307941820000,8.19581982421875,1.080444574356079,-0.13773390650749207,-0.17925810813903809
1761338307951885800,8.2058857421875,1.1047676801681519,-0.06586423516273499,-0.22541947662830353
1761338307961952000,8.215951904296874,1.1269656419754028,0.023478113114833832,-0.2793004810810089
1761338307972017200,8.22601708984375,1.1210070848464966,0.07818104326725006,-0.3329378664493561
1761338307982083000,8.2360830078125,1.1157206296920776,0.09244810789823532,-0.38780245184898376
1761338307992148000,8.24614794921875,1.1018295288085938,0.02992747351527214,-0.41879764199256897
1761338308002214000,8.2562138671875,1.1146845817565918,-0.04562820866703987,-0.39689481258392334
1761338308012280000,8.266280029296874,1.1469111442565918,-0.07518023997545242,-0.31572166085243225
1761338308022345000,8.276344970703125,1.1994142532348633,-0.03859858959913254,-0.195431649684906
1761338308032411000,8.286410888671876,1.237310767173767,0.025434188544750214,-0.11565160751342773
1761338308042476800,8.296476806640625,1.2486873865127563,0.09920143336057663,-0.11508259922266006
1761338308052542000,8.3065419921875,1.2622233629226685,0.19855491816997528,-0.153630793094635
1761338308062608100,8.316608154296874,1.3071157932281494,0.29983648657798767,-0.22149048745632172
1761338308072673000,8.326673095703125,1.3969868421554565,0.39998573064804077,-0.3139088451862335
1761338308082739000,8.336739013671876,1.487697958946228,0.5115222930908203,-0.3859861493110657
1761338308092804900,8.346804931640625,1.5365056991577148,0.48620036244392395,-0.3326086699962616
1761338308102870000,8.3568701171875,1.5236200094223022,0.24421808123588562,-0.06561768054962158
1761338308112936000,8.36693603515625,1.3976203203201294,-0.06437624990940094,0.3104590177536011
1761338308123002000,8.377002197265625,1.0880942344665527,-0.27837520837783813,0.6857598423957825
1761338308133068000,8.387068115234374,0.7372782826423645,-0.33194389939308167,0.9722603559494019
1761338308143133000,8.3971328125,0.5536762475967407,-0.24153278768062592,1.05213463306427
1761338308153198800,8.40719873046875,0.5907386541366577,-0.0653574988245964,0.8801658749580383
1761338308163265000,8.41726513671875,0.731037974357605,0.04021178558468819,0.6074991226196289
1761338308173330200,8.427330078125,0.8759443163871765,0.0263361856341362,0.36575713753700256
1761338308183395800,8.437395751953124,1.008225917816162,-0.08696559071540833,0.20055270195007324
1761338308193462000,8.4474619140625,1.1002029180526733,-0.2858951985836029,0.11063985526561737
1761338308203527000,8.45752685546875,1.1552928686141968,-0.44295209646224976,0.060705021023750305
1761338308213593000,8.467593017578125,1.2042723894119263,-0.3701340854167938,-0.044365473091602325
1761338308223659000,8.477658935546875,1.2477787733078003,0.0697937086224556,-0.27944791316986084
1761338308233724000,8.487723876953124,1.247227668762207,0.583842933177948,-0.5514554977416992
1761338308243789800,8.497789794921875,1.1139575242996216,0.6052039265632629,-0.5916467308998108
1761338308253855000,8.50785498046875,0.8065019249916077,0.594830334186554,-0.470350980758667
1761338308263921000,8.5179208984375,0.586861789226532,0.442186564207077,-0.1577986478805542
1761338308273987000,8.527987060546875,0.35590845346450806,0.4605543911457062,-0.035767536610364914
1761338308284052000,8.538052001953124,0.2033388465642929,0.36620062589645386,-0.06690546870231628
1761338308294118000,8.548117919921875,0.16026514768600464,0.20713533461093903,-0.1602330207824707
1761338308304184000,8.55818408203125,0.18919293582439423,0.1065211296081543,-0.19036804139614105
1761338308314249000,8.5682490234375,0.28504306077957153,-0.009195615537464619,-0.16815035045146942
1761338308324315100,8.578315185546876,0.43652471899986267,-0.059944529086351395,-0.09617125988006592
1761338308334380000,8.588380126953124,0.5924770832061768,-0.034124650061130524,0.024810560047626495
1761338308344446000,8.598446044921875,0.7452820539474487,0.005278525874018669,0.1560835838317871
1761338308354512000,8.608511962890624,0.8883247375488281,0.05697501078248024,0.26768043637275696
1761338308364577000,8.618576904296875,1.0119918584823608,0.14218229055404663,0.33582913875579834
1761338308374643200,8.628643310546876,1.099869966506958,0.17918984591960907,0.33255213499069214
1761338308384708900,8.638708984375,1.153620958328247,0.17677190899848938,0.24067875742912292
1761338308394774000,8.64877392578125,1.1580764055252075,0.13867990672588348,0.09257931262254715
1761338308404840000,8.65883984375,1.118606686592102,0.06851924955844879,-0.0851617380976677
1761338308414905000,8.668905029296875,1.0308318138122559,-0.04994268715381622,-0.2699179947376251
1761338308424970800,8.678970703125,0.9292535185813904,-0.1732434332370758,-0.43783196806907654
1761338308435037000,8.689036865234375,0.819367527961731,-0.28405889868736267,-0.5819097757339478
1761338308445102000,8.69910205078125,0.7136014103889465,-0.3835063874721527,-0.6819993853569031
1761338308455168000,8.70916796875,0.6361745595932007,-0.4310488700866699,-0.7305938005447388
1761338308465234000,8.71923388671875,0.5765717625617981,-0.4130285978317261,-0.6834362745285034
1761338308475298800,8.729298828125,0.535038948059082,-0.3382648825645447,-0.5328564047813416
1761338308485365000,8.739364990234375,0.4930645525455475,-0.2548060715198517,-0.33119532465934753
1761338308495430000,8.749429931640625,0.4442051351070404,-0.15828566253185272,-0.14705824851989746
1761338308505496000,8.75949609375,0.38165831565856934,-0.07446949183940887,-0.006158827804028988
1761338308515562000,8.76956201171875,0.32027432322502136,-0.018324462696909904,0.08853119611740112
1761338308525627000,8.779626953125,0.2491684854030609,0.010798568837344646,0.17162364721298218
1761338308535693000,8.789693115234375,0.2090732604265213,0.10880449414253235,0.17845091223716736
1761338308545759000,8.799759033203125,0.19758597016334534,0.20321911573410034,0.12944826483726501
1761338308555824000,8.80982421875,0.19952207803726196,0.23414799571037292,0.04910122975707054
1761338308565890000,8.81989013671875,0.1883167028427124,0.1806899458169937,-0.03929030895233154
1761338308575955000,8.829954833984376,0.18901550769805908,0.0730963796377182,-0.12818849086761475
1761338308586020900,8.840020751953125,0.21862095594406128,-0.02372613549232483,-0.2119935005903244
1761338308596087000,8.850087158203126,0.27977699041366577,-0.07187102735042572,-0.29623833298683167
1761338308606152000,8.86015185546875,0.3645101487636566,-0.06834417581558228,-0.36373022198677063
1761338308616218000,8.870218017578125,0.4711708128452301,-0.0342855378985405,-0.4386143088340759
1761338308626283800,8.88028369140625,0.583896815776825,-0.012612184509634972,-0.5162768959999084
1761338308636349000,8.890348876953125,0.7196416258811951,0.028655892238020897,-0.5792955160140991
1761338308646415000,8.9004150390625,0.8117733597755432,-0.008522054180502892,-0.570051372051239
1761338308656480000,8.91047998046875,0.8215000033378601,-0.053792595863342285,-0.49029290676116943
1761338308666546000,8.9205458984375,0.731510579586029,-0.07008951902389526,-0.3547343313694
1761338308676611800,8.93061181640625,0.6026690006256104,-0.09964101016521454,-0.23814807832241058
1761338308686677000,8.940677001953125,0.48295459151268005,-0.1724621057510376,-0.1686907559633255
1761338308696743000,8.950742919921876,0.40741774439811707,-0.2654716670513153,-0.12172403931617737
1761338308706809000,8.96080908203125,0.35397574305534363,-0.374643474817276,-0.0765245109796524
1761338308716874000,8.9708740234375,0.321857213973999,-0.4480114281177521,0.011267132125794888
1761338308726940000,8.98093994140625,0.32344484329223633,-0.4825562834739685,0.12430699169635773
1761338308737005000,8.991005126953125,0.33284181356430054,-0.5113943219184875,0.2531331479549408
1761338308747071000,9.001071044921876,0.2735637426376343,-0.5906872153282166,0.4441327452659607
1761338308757137200,9.01113720703125,0.22208993136882782,-0.7004342675209045,0.6500696539878845
1761338308767201800,9.021201904296875,0.2039978802204132,-0.8347404599189758,0.8574232459068298
1761338308777268000,9.03126806640625,0.19744011759757996,-0.9483727216720581,0.9646570682525635
1761338308787334000,9.041333984375,0.17952926456928253,-1.1016571521759033,0.9744372367858887
1761338308797399000,9.05139892578125,0.22074301540851593,-1.238565444946289,0.8546865582466125
1761338308807465000,9.06146484375,0.34193992614746094,-1.2821775674819946,0.5526543855667114
1761338308817529900,9.07152978515625,0.45941781997680664,-1.1816504001617432,0.13155962526798248
1761338308827596000,9.081595947265624,0.5198063254356384,-0.9453142285346985,-0.231665700674057
1761338308837662000,9.091661865234375,0.5274999141693115,-0.6716376543045044,-0.44421711564064026
1761338308847727000,9.10172705078125,0.5221117734909058,-0.4552763104438782,-0.5176774859428406
1761338308857793000,9.11179296875,0.5416972041130066,-0.3418155312538147,-0.4486861824989319
1761338308867859000,9.12185888671875,0.6246628165245056,-0.28452685475349426,-0.24802350997924805
1761338308877923800,9.131923828125,0.7648997902870178,-0.28237420320510864,0.04504084587097168
1761338308887990000,9.141989990234375,0.9324697852134705,-0.33975815773010254,0.3958709239959717
1761338308898055200,9.15205517578125,1.1055036783218384,-0.438429594039917,0.8015323877334595
1761338308908121000,9.16212109375,1.2671358585357666,-0.5911910533905029,1.16617751121521
1761338308918187300,9.172187255859376,1.3788429498672485,-0.7333673238754272,1.4288791418075562
1761338308928252000,9.182251953125,1.4304689168930054,-0.7670433521270752,1.5546787977218628
1761338308938318000,9.192318115234375,1.3931193351745605,-0.7119433879852295,1.5161356925964355
1761338308948384000,9.202384033203124,1.2870465517044067,-0.6307752132415771,1.314211368560791
1761338308958449200,9.21244921875,1.1473506689071655,-0.5451327562332153,1.0092741250991821
1761338308968515000,9.22251513671875,1.0170894861221313,-0.43669015169143677,0.6571651101112366
1761338308978580000,9.232580078125,0.942965030670166,-0.29586270451545715,0.32643353939056396
1761338308988646100,9.242646240234375,0.9058251976966858,-0.17737287282943726,0.0635232925415039
1761338308998712000,9.252712158203124,0.8762491941452026,-0.14041244983673096,-0.14314225316047668
1761338309008777200,9.262777099609375,0.8477833271026611,-0.11931983381509781,-0.292734831571579
1761338309018843100,9.272843017578126,0.8563187122344971,-0.026331037282943726,-0.40881165862083435
1761338309028908000,9.282907958984374,0.9054508805274963,0.08572223782539368,-0.47894781827926636
1761338309038974000,9.292973876953125,0.973014235496521,0.14136019349098206,-0.5073893070220947
1761338309049040100,9.3030400390625,1.0416548252105713,0.13628974556922913,-0.5005130767822266
1761338309059105300,9.313105224609375,1.1047605276107788,0.10240873694419861,-0.47492116689682007
1761338309069171200,9.323171142578126,1.1935136318206787,0.07980241626501083,-0.43136224150657654
1761338309079236900,9.33323681640625,1.3248322010040283,0.025840647518634796,-0.33828744292259216
1761338309089302000,9.343302001953125,1.4940118789672852,-0.015829410403966904,-0.1713077425956726
1761338309099368200,9.3533681640625,1.7294074296951294,-0.028776366263628006,0.06627658754587173
1761338309109434000,9.36343408203125,1.9130361080169678,-0.09553642570972443,0.34234297275543213
1761338309119499300,9.373499267578126,1.9235785007476807,-0.15173472464084625,0.5904776453971863
1761338309129565000,9.38356494140625,1.779072642326355,-0.1411195546388626,0.737373411655426
1761338309139630000,9.393630126953125,1.559320092201233,-0.11517584323883057,0.7833358645439148
1761338309149696000,9.403696044921874,1.3898895978927612,-0.11824338138103485,0.7493143677711487
1761338309159762200,9.41376220703125,1.294326901435852,-0.1512593924999237,0.6587690114974976
1761338309169827000,9.4238271484375,1.2626327276229858,-0.18009120225906372,0.54740971326828
1761338309179893000,9.43389306640625,1.255007028579712,-0.1810038685798645,0.431521475315094
1761338309189959200,9.443959228515626,1.263166069984436,-0.16015976667404175,0.3364748954772949
1761338309200024000,9.454024169921874,1.2861568927764893,-0.13059255480766296,0.25973111391067505
1761338309210090200,9.46409033203125,1.3203712701797485,-0.07287560403347015,0.1859111785888672
1761338309220155000,9.47415478515625,1.3411118984222412,-0.01469698641449213,0.10539822280406952
1761338309230221000,9.484220947265625,1.3414219617843628,0.021417483687400818,0.034987758845090866
1761338309240287000,9.494286865234375,1.329080581665039,0.001227259635925293,-0.023393791168928146
1761338309250352000,9.50435205078125,1.3001776933670044,-0.06002483516931534,-0.09490431845188141
1761338309260418300,9.514418212890625,1.269641399383545,-0.13938570022583008,-0.186970055103302
1761338309270483000,9.52448291015625,1.2506239414215088,-0.1959678828716278,-0.25843966007232666
1761338309280549000,9.534549072265625,1.240214228630066,-0.2133580595254898,-0.31277957558631897
1761338309290615000,9.544614990234376,1.222722053527832,-0.21416640281677246,-0.32336461544036865
1761338309300680200,9.55468017578125,1.1958321332931519,-0.16567236185073853,-0.28325527906417847
1761338309310746000,9.56474609375,1.1887446641921997,-0.05225719138979912,-0.1517620086669922
1761338309320812000,9.57481201171875,1.2278915643692017,0.12928250432014465,-0.01901300996541977
1761338309330877200,9.584877197265625,1.2971357107162476,0.3441660404205322,0.0785406231880188
1761338309340943000,9.594943115234376,1.342485785484314,0.5020003914833069,0.16952060163021088
1761338309351008300,9.60500830078125,1.3860913515090942,0.586533784866333,0.28852391242980957
1761338309361074200,9.61507421875,1.4724382162094116,0.5596816539764404,0.44270816445350647
1761338309371140000,9.62514013671875,1.6079082489013672,0.4213765859603882,0.605597198009491
1761338309381205000,9.635205078125,1.814825177192688,0.13624630868434906,0.780667245388031
1761338309391271200,9.645271240234376,1.9748883247375488,-0.20757092535495758,0.8788561224937439
1761338309401337000,9.655337158203125,1.9539085626602173,-0.3150270879268646,0.7977340817451477
1761338309411402000,9.665402099609375,1.620344638824463,0.008505286648869514,0.5608515739440918
1761338309421468000,9.675468017578124,1.2367706298828125,0.4029492735862732,0.32566946744918823
1761338309431533000,9.685532958984375,1.0195609331130981,0.5147674083709717,0.06229917332530022
1761338309441599200,9.69559912109375,1.0343776941299438,0.37513017654418945,-0.19404366612434387
1761338309451665200,9.7056650390625,1.2012856006622314,0.18300408124923706,-0.38420313596725464
1761338309461730000,9.71572998046875,1.3798774480819702,0.10685711354017258,-0.5168181657791138
1761338309471796000,9.7257958984375,1.4711430072784424,0.0495850034058094,-0.5961754322052002
1761338309481862100,9.735862060546875,1.4649248123168945,-0.08414828777313232,-0.628028929233551
1761338309491927000,9.745927001953126,1.443874716758728,-0.21121026575565338,-0.58348548412323
1761338309501993200,9.7559931640625,1.487649917602539,-0.29238954186439514,-0.4059754014015198
1761338309512058000,9.76605810546875,1.581389307975769,-0.31798219680786133,-0.11344359070062637
1761338309522124000,9.7761240234375,1.6850675344467163,-0.28052881360054016,0.27203086018562317
1761338309532190200,9.786190185546875,1.7742118835449219,-0.2399500012397766,0.6826401352882385
1761338309542255000,9.796255126953126,1.829664945602417,-0.22280989587306976,1.0261859893798828
1761338309552321300,9.8063212890625,1.848107933998108,-0.18063139915466309,1.201293706893921
1761338309562387000,9.816386962890626,1.8316333293914795,-0.12090735882520676,1.1636408567428589
1761338309572452000,9.8264521484375,1.7866604328155518,-0.05047614872455597,0.9564282298088074
1761338309582518000,9.83651806640625,1.7409757375717163,0.010693466290831566,0.6259695887565613
1761338309592583200,9.846583251953126,1.698538064956665,0.057350218296051025,0.25866979360580444
1761338309602649000,9.856649169921875,1.661391258239746,0.08179377764463425,-0.10960756987333298
1761338309612715000,9.866715087890626,1.6326972246170044,0.05376502126455307,-0.4525156021118164
1761338309622780200,9.8767802734375,1.6071444749832153,-0.04179931804537773,-0.7456534504890442
1761338309632846000,9.88684619140625,1.5811313390731812,-0.15405166149139404,-0.942452609539032
1761338309642911200,9.8969111328125,1.5073378086090088,-0.2792181074619293,-1.0215398073196411
1761338309652977000,9.906976806640625,1.37801194190979,-0.41753214597702026,-0.9916523098945618
1761338309663043000,9.91704296875,1.2411829233169556,-0.5464643239974976,-0.9013780951499939
1761338309673108200,9.927108154296874,1.11955988407135,-0.6200623512268066,-0.8042601346969604
1761338309683174100,9.937174072265625,1.0390876531600952,-0.5823045969009399,-0.7029817700386047
1761338309693240000,9.947239990234374,0.9942212700843811,-0.4421224594116211,-0.5808129906654358
1761338309703305000,9.957304931640625,0.984965980052948,-0.2331061214208603,-0.44231265783309937
1761338309713371100,9.96737109375,1.0226263999938965,-0.021798882633447647,-0.2676437199115753
1761338309723437000,9.97743701171875,1.0991089344024658,0.13074511289596558,-0.05484838783740997
1761338309733502200,9.987502197265625,1.1930716037750244,0.19329537451267242,0.15058045089244843
1761338309743568100,9.997568115234374,1.281740665435791,0.16794607043266296,0.30162376165390015
1761338309753633000,10.007633056640625,1.3532154560089111,0.08696413040161133,0.37908369302749634
1761338309763699000,10.017698974609376,1.4184151887893677,0.04218414053320885,0.3869384229183197
1761338309773765000,10.02776513671875,1.4746676683425903,0.04720190912485123,0.3359118103981018
1761338309783830300,10.037830322265625,1.5176639556884766,0.03909817710518837,0.24032405018806458
1761338309793896200,10.047896240234374,1.5586974620819092,-0.0390816256403923,0.1499922275543213
1761338309803962000,10.057962158203125,1.6048833131790161,-0.14526692032814026,0.07118555903434753
1761338309814027000,10.068027099609376,1.662284016609192,-0.21238364279270172,0.0012134001590311527
1761338309824093200,10.07809326171875,1.7501022815704346,-0.22591648995876312,-0.07939915359020233
1761338309834158000,10.088157958984375,1.8366851806640625,-0.22398920357227325,-0.16268053650856018
1761338309844224300,10.098224365234374,1.8907334804534912,-0.2197055071592331,-0.24670539796352386
1761338309854290000,10.1082900390625,1.896207332611084,-0.22081947326660156,-0.30116865038871765
1761338309864355000,10.11835498046875,1.8602216243743896,-0.2039901614189148,-0.34044790267944336
1761338309874421000,10.1284208984375,1.7995214462280273,-0.24159309267997742,-0.3459765315055847
1761338309884486100,10.138486083984375,1.7181320190429688,-0.31915631890296936,-0.2841845452785492
1761338309894552000,10.148552001953124,1.626650094985962,-0.36706164479255676,-0.17781664431095123
1761338309904618200,10.1586181640625,1.5405123233795166,-0.40003156661987305,-0.0821407213807106
1761338309914683400,10.168683349609376,1.47926926612854,-0.34673625230789185,-0.01875370368361473
1761338309924749000,10.1787490234375,1.4550739526748657,-0.21097177267074585,-0.005418989807367325
1761338309934815200,10.188815185546876,1.4342929124832153,-0.10253117233514786,-0.013699769973754883
1761338309944880000,10.198880126953124,1.4025338888168335,-0.05722947046160698,-0.023268507793545723
1761338309954946300,10.2089462890625,1.3534905910491943,-0.07179094105958939,0.014142931438982487
1761338309965011200,10.21901123046875,1.3004305362701416,-0.14300334453582764,0.11229613423347473
1761338309975077000,10.2290771484375,1.2580459117889404,-0.2391052097082138,0.269816517829895
1761338309985143300,10.239143310546876,1.2109079360961914,-0.2360050231218338,0.4342299699783325
1761338309995208200,10.249208251953124,1.1159335374832153,-0.19430610537528992,0.5071045160293579
1761338310005274400,10.2592744140625,1.0651377439498901,-0.12160526216030121,0.5581983327865601
1761338310015340300,10.26934033203125,1.0114988088607788,-0.032084859907627106,0.6260026693344116
1761338310025405200,10.2794052734375,0.9015020132064819,0.013618445955216885,0.6930637359619141
1761338310035471000,10.28947119140625,0.75110924243927,-0.3220883011817932,0.3237195312976837
1761338310045536300,10.299536376953125,0.6493781208992004,-0.46651655435562134,-0.07011643797159195
1761338310055602400,10.3096025390625,0.572073221206665,-0.358570396900177,-0.3033265173435211
1761338310065668400,10.31966845703125,0.4765394926071167,-0.07355944067239761,-0.42088431119918823
1761338310075733200,10.329733154296875,0.4371884763240814,0.22749119997024536,-0.4274033010005951
1761338310085799200,10.339799072265626,0.48703378438949585,0.5300145745277405,-0.3223503828048706
1761338310095865300,10.349865234375,0.5942860245704651,0.674777090549469,-0.16291257739067078
1761338310105930200,10.35993017578125,0.7170422673225403,0.7204881310462952,0.044112782925367355
1761338310115996200,10.36999609375,0.8028289675712585,0.6942663192749023,0.3444359600543976
1761338310126061300,10.380061279296875,0.9163049459457397,0.5285801887512207,0.640489399433136
