time,seconds_elapsed,z,y,x
1761336172165283800,0.058283935546875,1.3884452397108078,0.6707159259311855,0.04727291556745767
1761336172175350800,0.068350830078125,1.297057580345869,0.5655424639284611,0.14212664360776542
1761336172185418000,0.07841796875,1.1329472145974635,0.4591406291745603,0.27596067516654726
1761336172195484000,0.08848388671875,0.976582348409295,0.3732607734456658,0.43533539069518445
1761336172205550800,0.09855078125,0.7237631871163844,0.29362668023854493,0.5657363790653646
1761336172215617000,0.108616943359375,0.3889963949769735,0.2609659351304173,0.7262437518857419
1761336172225684000,0.11868408203125,0.11573065798282622,0.27980229915603994,0.8429150517195463
1761336172235750000,0.12875,-0.11951251460909842,0.31204817985296246,0.8988143413349986
1761336172245816800,0.13881689453125,-0.1904027448683977,0.28591318325176834,0.9853691737160086
1761336172255884000,0.148884033203125,-0.13464753989875317,0.15554390519410372,1.1290946308225394
1761336172265950000,0.158949951171875,-0.14254209254086017,0.00013166355565190314,1.2368316597029565
1761336172276017000,0.169016845703125,-0.393374463930726,-0.20423925478011368,1.2234452316462994
1761336172286083000,0.1790830078125,-0.9331938730597495,-0.44464536309316754,1.127062248212099
1761336172296151000,0.189151123046875,-1.5009639499098062,-0.6072912823121994,0.9157551008723676
1761336172306217200,0.19921728515625,-1.897878278404474,-0.6898899244133383,0.7034842230670154
1761336172316284200,0.2092841796875,-2.110069076710939,-0.9452813473470508,0.5438792059138416
1761336172326351000,0.21935107421875,-1.8770178612053394,-1.6272054805129765,0.24419629437625406
1761336172336417300,0.229417236328125,-1.4533072957217692,-1.2632324676334856,-0.431317094964534
1761336172346484200,0.239484130859375,-1.3794623073101042,-1.327282768870145,-0.8879263059653342
1761336172356550000,0.2495498046875,-1.7798428506106136,-1.9470340851090848,-1.025557683980465
1761336172366617000,0.2596171875,-2.3573066384792325,-2.262631335745752,-1.107394694059342
1761336172376684300,0.269684326171875,-2.8521412429779764,-2.209847255541384,-1.1475609924919903
1761336172386750000,0.27975,-3.116865361598134,-1.9111279283389448,-1.1134262293085455
1761336172396817200,0.289817138671875,-3.0515035393714904,-1.4923523350395262,-0.859389216658473
1761336172406883000,0.299883056640625,-2.54715058042109,-1.1845452268224208,-0.537913429377228
1761336172416950000,0.309949951171875,-1.9004104272305964,-0.8834168657168745,-0.13059329607188702
1761336172427016000,0.320015869140625,-1.4200643668115138,-0.7314508190095425,0.13909911248013376
1761336172437083000,0.330082763671875,-1.1426041007369756,-0.5756794617351144,0.22411270676851272
1761336172447150000,0.340150146484375,-0.8620739256978035,-0.30374289098549634,0.34778307170942424
1761336172457216000,0.350216064453125,-0.6680465605914593,-0.10538458400275558,0.5884066221654415
1761336172467283000,0.360282958984375,-0.37785306967198845,-0.0018166940331459044,0.9131817432530224
1761336172477349000,0.37034912109375,0.13939619573056697,-0.14426259619053453,1.0801941871184855
1761336172487416000,0.380416015625,0.409885453748703,-0.393800397725217,0.9805761672858149
1761336172497483000,0.39048291015625,0.752432816761732,-0.15353051954507826,0.718653881278634
1761336172507549000,0.400548828125,1.0253519322752953,0.022972039058245717,0.7481316855017095
1761336172517616000,0.4106162109375,1.1291589282304049,0.14655110898651183,0.9183866914849728
1761336172527682000,0.42068212890625,1.2387667194187642,0.28540567212104795,1.062656411536038
1761336172537749000,0.4307490234375,1.1511048025786876,0.41875319880452005,1.1853432453323154
1761336172547815200,0.440815185546875,0.9193073865264654,0.4851208736054599,1.1556866504762322
1761336172557882000,0.450882080078125,0.6920914530456066,0.47124267997648567,0.9758383251089602
1761336172567949000,0.460948974609375,0.5772299791127443,0.43891697550900277,0.7476268777847289
1761336172578015000,0.471014892578125,0.5506985305398703,0.3595742664638906,0.5443105100031942
1761336172588082200,0.481082275390625,0.4971557409226894,0.2478036712184548,0.4097904689416289
1761336172598148000,0.491148193359375,0.39800972251594063,0.1282755206488073,0.24753194160498676
1761336172608215000,0.501215087890625,0.3688859193623066,-0.18830138867497442,0.0753419489711523
1761336172618282000,0.511281982421875,0.371246218752861,-0.44354372199419884,-0.22221198771372436
1761336172628348200,0.52134814453125,0.3891244052708149,-0.5432509910129011,-0.6920102045029402
1761336172638415000,0.5314150390625,0.34006431402564047,-0.5808912780992687,-1.0537979822978376
1761336172648481000,0.54148095703125,0.24241700974404812,-0.5453344827560708,-1.2144979550808668
1761336172658548200,0.55154833984375,0.07743161472678184,-0.4146590613586828,-1.2466463667526841
1761336172668614100,0.5616142578125,-0.044052492216229436,-0.2634095288902521,-1.2324155968263744
1761336172678681000,0.57168115234375,-0.14750176077485083,-0.1932394295990467,-1.238877194055915
1761336172688748000,0.581748046875,-0.2687041281670332,-0.2516574971023947,-1.310980014975369
1761336172698814200,0.591814208984375,-0.3383206852287054,-0.2905737224087119,-1.4133734908707438
1761336172708881200,0.601881103515625,-0.3548153084337711,-0.3319837007595226,-1.4012206962622702
1761336172718947000,0.611947021484375,-0.29634967546164986,-0.38953137863650916,-1.1347064793549477
1761336172729014300,0.62201416015625,-0.07996785520613194,-0.2684543181244284,-0.7652072503998875
1761336172739080200,0.632080078125,0.16319909612238406,-0.1394104799842462,-0.46299920429885383
1761336172749147100,0.642147216796875,0.2931330515027046,-0.13378259363248943,-0.21571970308497546
1761336172759214000,0.652214111328125,0.31354338684678074,-0.16030479945298284,-0.05287088170498609
1761336172769280300,0.6622802734375,0.17319442043602465,-0.14872089077364653,0.0027630349725484846
1761336172779347200,0.67234716796875,-0.04687397937774658,-0.11173114001788198,0.09063903295472264
1761336172789412900,0.682412841796875,-0.21591537178754805,-0.10778309651184827,0.2585631117723882
1761336172799480300,0.692480224609375,-0.33376959779560567,-0.06245287597738206,0.370136503945291
1761336172809547300,0.70254736328125,-0.4236702334731817,-0.02803144133966416,0.3911152868270874
1761336172819613000,0.712613037109375,-0.48993455749750137,0.004140606936067342,0.3647910512641072
1761336172829680000,0.72268017578125,-0.4718237312674522,0.059051470036059615,0.39211438086703415
1761336172839746000,0.73274609375,-0.35056583429574967,0.09597049364317208,0.40590149867907166
1761336172849813000,0.74281298828125,-0.23534020322561264,0.08911788780204952,0.41783641275316474
1761336172859879000,0.75287890625,-0.14038637581169605,0.034999745982326566,0.3537937103010714
1761336172869946000,0.762946044921875,-0.025494506740570067,0.007129450021125376,0.19281155957579613
1761336172880013000,0.773012939453125,0.1287719258636236,-0.034114743308722974,0.08107230931669474
1761336172890079000,0.783078857421875,0.18842296922802923,-0.034467100410349664,0.0352734118245542
1761336172900146000,0.79314599609375,0.14869184734225271,-0.013365458333864808,0.010057283633947372
1761336172910212000,0.803212158203125,0.05016776022613048,-0.03422079749908298,-0.06001753858923912
1761336172920279000,0.813279052734375,-0.06325345177054405,-0.10606405416689813,-0.18419351496472955
1761336172930346000,0.823345947265625,-0.11534779614508152,-0.22329598355814814,-0.37293212601318954
1761336172940412200,0.833412109375,-0.15563538286983966,-0.311667473439686,-0.5192191041707992
1761336172950479000,0.84347900390625,-0.15863047303259373,-0.34771296561528,-0.5124474180787801
1761336172960545000,0.853544921875,-0.11337094311416149,-0.2969831510595977,-0.41653979707136746
1761336172970612000,0.863612060546875,-0.0526765281766653,-0.24425408897809683,-0.2997584609918296
1761336172980678100,0.87367822265625,0.029663316857814787,-0.13674414685182273,-0.18158479377105832
1761336172990745000,0.8837451171875,0.1136316398769617,-0.07036532960236072,-0.0721393535375595
1761336173000812000,0.89381201171875,0.1423188051789999,-0.08109647564357146,0.05315861260518431
1761336173010878200,0.903878173828125,0.07236497898697852,-0.07839940031301229,0.19298121705427765
1761336173020945200,0.913945068359375,-0.16531214275360107,-0.048184239992406216,0.21597148588895795
1761336173031011000,0.924010986328125,-0.33909751482009887,-0.03842230430953204,0.1834244302883744
1761336173041078000,0.934078125,-0.39948680933117864,-0.051396954961214214,0.10399068195894359
1761336173051145000,0.94414501953125,-0.4016904568552971,-0.06497841239962726,0.030951018580794333
1761336173061211100,0.954211181640625,-0.36482933744788165,-0.0358634136069566,-0.01752747338414192
1761336173071278000,0.964278076171875,-0.277063375711441,0.005680511588137597,-0.03216229406669736
1761336173081344000,0.974343994140625,-0.20897651243507862,0.0156613872513175,-0.014350889174640178
1761336173091411200,0.9844111328125,-0.09878244579136371,-0.013477796134538948,-0.04411912771165371
1761336173101477000,0.99447705078125,-0.055742345488071436,-0.10102554854303598,-0.0788483496569097
1761336173111544000,1.0045439453125,-0.16291969465911388,-0.14685029286248608,-0.1854597355082631
1761336173121611000,1.014611083984375,-0.24779987182617186,-0.11469640129795297,-0.2410094810336828
1761336173131677200,1.02467724609375,-0.3602583762705326,-0.09064420232018455,-0.20752485232204199
1761336173141744000,1.034744140625,-0.45249826855063435,-0.07999751969203353,-0.14840177835449575
1761336173151810000,1.04481005859375,-0.47375616063475606,-0.10863160309996456,-0.08062237359210848
1761336173161877200,1.054877197265625,-0.37936055162549015,-0.1380864100399427,-0.04310454384163022
1761336173171944200,1.064944091796875,-0.19087036238014696,-0.09398945762747898,-0.023457594085484743
1761336173182010000,1.075010009765625,0.0213321263641119,-0.0508091999348253,0.003221738525480032
1761336173192077000,1.0850771484375,0.16969547240436075,-0.0481871443355456,0.01749459402784705
1761336173202143200,1.095143310546875,0.22554946157336234,-0.06289680208628996,0.0655139440484345
1761336173212210200,1.105210205078125,0.20943653116226196,-0.09781018495941535,0.1817250790245831
1761336173222276000,1.115276123046875,0.1783165857553482,-0.18015361019046977,0.24390067243054508
1761336173232343300,1.12534326171875,0.15532733983397484,-0.28540992817105726,0.22714739828929303
1761336173242410200,1.13541015625,0.19656652819514273,-0.3137845751915127,0.17731354619264603
1761336173252476000,1.145475830078125,0.260216870328784,-0.2941945980533026,0.0632753713414073
1761336173262543000,1.155543212890625,0.3165215258747339,-0.31465222487151623,-0.037641894521564245
1761336173272609000,1.165609130859375,0.33603871177136896,-0.3711149935886264,-0.11519479754045606
1761336173282676000,1.175676025390625,0.26953414925038816,-0.41229247835781424,-0.191143480233103
1761336173292742100,1.1857421875,0.20372458325624465,-0.3707761900883168,-0.17177739324495195
1761336173302808300,1.195808349609375,0.18087269997894762,-0.20559952854895963,-0.0821921071268618
1761336173312875300,1.205875244140625,0.14979717823565006,-0.09399952236376702,0.007482026318460702
1761336173322941200,1.215941162109375,0.17282792521119117,-0.07866181410886347,0.06818053290918469
1761336173333008400,1.22600830078125,0.1647270363420248,-0.12080688353488221,0.021265198607742786
1761336173343074300,1.23607421875,0.17068565248548984,-0.09440286073395981,-0.07351078802123666
1761336173353141200,1.246141357421875,0.1981499979943037,-0.09371834906851872,-0.13114742282330988
1761336173363208200,1.256208251953125,0.1896048724889755,-0.12249485488813369,-0.18099939509853719
1761336173373274400,1.2662744140625,0.20512159057259557,-0.1564998176794499,-0.25499752824530003
1761336173383341300,1.27634130859375,0.21142682819664477,-0.2048104422641918,-0.31957199948653575
1761336173393407200,1.2864072265625,0.1256879883736372,-0.21745792505443096,-0.35816666468828917
1761336173403474400,1.296474365234375,-0.016585224097967147,-0.2394091879638843,-0.35134310227856036
1761336173413541400,1.306541259765625,-0.21184534586966036,-0.24856201530508695,-0.2874946072243154
1761336173423607300,1.316607177734375,-0.4331073393821716,-0.21511300589609889,-0.20039105491936204
1761336173433674200,1.32667431640625,-0.5322440054386854,-0.1192069009923376,-0.1304877898707986
1761336173443740400,1.336740478515625,-0.4162620030432939,-0.04039367744773626,-0.02451630935817957
1761336173453807400,1.346807373046875,-0.15913842255473135,-0.051190454337373376,0.07270151746496557
1761336173463873300,1.356873291015625,0.06808101805746555,-0.13058154170201158,0.10544789502993225
1761336173473940500,1.3669404296875,0.10455869110524654,-0.17278050587289034,0.04452215555459261
1761336173484007400,1.37700732421875,-0.01613806485235691,-0.20384397185221315,-0.022916765207052228
1761336173494073300,1.3870732421875,-0.1265641866862774,-0.23791706797629594,-0.039919922456145285
1761336173504140300,1.397140380859375,-0.18967209250628947,-0.2656145646538585,-0.061035483460128305
1761336173514206500,1.40720654296875,-0.22669921613037586,-0.2878872598037123,-0.09352247943654655
1761336173524273400,1.4172734375,-0.21558745500743387,-0.24671876205857843,-0.10294526455923915
1761336173534340400,1.42734033203125,-0.12960136242508888,-0.20589847496291622,-0.06089037590101361
1761336173544406500,1.437406494140625,-0.13148586099743842,-0.16636210846425964,-0.012855828311294316
1761336173554473500,1.447473388671875,-0.16734510988593101,-0.1230784451960586,0.0026635201208293434
1761336173564539100,1.4575390625,-0.21700901224315164,-0.1283060253849253,-0.0391686656974256
1761336173574606300,1.4676064453125,-0.19824235245287417,-0.16410441093165426,-0.08453501699119806
1761336173584672300,1.47767236328125,-0.09862696296870709,-0.19665327489683404,-0.08766951562464237
1761336173594739200,1.4877392578125,0.01838321343064308,-0.2210339751766063,-0.06536401418372988
1761336173604806100,1.49780615234375,0.11142448522150517,-0.2527855878168717,-0.07523673503100872
1761336173614872300,1.507872314453125,0.18080489543974398,-0.2439519094274379,-0.1135560904227197
1761336173624939300,1.517939208984375,0.23891104744970798,-0.22609507622476666,-0.12635419719740748
1761336173635005200,1.528005126953125,0.2594429633468389,-0.24647945514367892,-0.146949387589097
1761336173645072100,1.538072021484375,0.2235375372290611,-0.2759252750596031,-0.14932634585350751
1761336173655139300,1.548139404296875,0.16801263388395307,-0.26138560358090324,-0.1378403445906937
1761336173665205200,1.558205322265625,0.06770049430727958,-0.2101007854909636,-0.14326090833470226
1761336173675272200,1.568272216796875,-0.09837386499047279,-0.18419104901300742,-0.22090236641988156
1761336173685338400,1.57833837890625,-0.19308803842961786,-0.24488429490672423,-0.28132483254820106
1761336173695405300,1.5884052734375,-0.20665303792357442,-0.30851532955169675,-0.3150374247968197
1761336173705471200,1.59847119140625,-0.16534312241375446,-0.3497982109241187,-0.35088249902948737
1761336173715538200,1.6085380859375,-0.1546492944419384,-0.3596133928978815,-0.388753964523226
1761336173725605400,1.61860546875,-0.1250946986556053,-0.30863756769187745,-0.47963557406216856
1761336173735671300,1.62867138671875,-0.14097148222327233,-0.2573877113174647,-0.5501593090966344
1761336173745738200,1.63873828125,-0.17111878320574758,-0.22516449911007658,-0.5138299584783613
1761336173755804400,1.648804443359375,-0.21698329328000543,-0.21263324484433976,-0.4891581662975251
1761336173765871400,1.658871337890625,-0.23653730405569076,-0.2189995284732431,-0.5676419204257428
1761336173775938300,1.668938232421875,-0.2109802534729242,-0.17572834109412505,-0.6166494047008454
1761336173786004200,1.679004150390625,-0.20469138246178625,-0.16996910171397028,-0.45385962003171443
1761336173796071200,1.6890712890625,-0.1954267105102539,-0.14730050258170813,-0.2570886553056538
1761336173806137300,1.699137451171875,-0.23485914171040057,-0.09987968470985069,-0.16919497553631663
1761336173816204300,1.709204345703125,-0.2914975592553615,-0.10643339893594383,-0.10914338854700326
1761336173826270500,1.7192705078125,-0.37841128807663915,-0.08035183128872886,0.003239274182170629
1761336173836337400,1.72933740234375,-0.4309609750032425,-0.047981392630375916,0.15561550912559033
1761336173846404400,1.739404296875,-0.4951987616360187,0.11125932125505059,0.27387188619375225
1761336173856470300,1.74947021484375,-0.5449240387916565,0.2031031999548897,0.37769641780555246
1761336173866537200,1.759537109375,-0.515737691795826,0.11424149713730439,0.4861968322739005
1761336173876603400,1.769603271484375,-0.25911621561050413,0.10397997790183872,0.6605415917888283
1761336173886670300,1.77967041015625,-0.5743044470548629,0.17514436719371004,0.5625289613261819
1761336173896737300,1.7897373046875,-1.0909002169847488,0.1928296797543764,0.4513523133859038
1761336173906803500,1.799803466796875,-1.4568126734942197,0.13225824274257755,0.5528071932569146
1761336173916870400,1.809870361328125,-1.6179828941375016,0.11300245686164125,0.5461189476646483
1761336173926936300,1.819936279296875,-1.6006816307246685,0.09988900052746758,0.5061746214196086
1761336173937003300,1.830003173828125,-1.4113047217726706,0.07583022567844018,0.48625411541908975
1761336173947069400,1.8400693359375,-1.1195195777475833,0.16324520028643308,0.4974588155224919
1761336173957136400,1.850136474609375,-0.6687742903441191,0.366043827804178,0.526194496141374
1761336173967203300,1.860203369140625,-0.4030933093905449,0.4614478101383894,0.5525612556718289
1761336173977269500,1.87026953125,0.05286883587837219,0.34219131611697373,0.5304501077592373
1761336173987336400,1.88033642578125,0.4446224206089973,0.37790567664206026,0.42952480472028254
1761336173997402000,1.890402099609375,0.7483055076986551,0.1317504667503759,0.21473785244077442
1761336174007469300,1.90046923828125,1.069036175701022,0.09370466760303825,-0.030410628093779084
1761336174017536500,1.91053662109375,1.3641554325848817,0.07635686163473873,-0.3052944678090513
1761336174027602200,1.920602294921875,1.634642352515459,-0.20701715852823108,-0.6404575657896697
1761336174037669400,1.93066943359375,1.7671242388129234,-0.47755058448165655,-1.0218481619380413
1761336174047735300,1.9407353515625,1.7503706724107264,-0.4961472579998895,-1.2893797391943633
1761336174057802200,1.95080224609375,1.5962462786257265,-0.5405842194890603,-1.2299696649789809
1761336174067868200,1.9608681640625,1.362918584266305,-0.13906400463413446,-0.6307447116792202
1761336174077935000,1.97093505859375,0.9925129079908132,-0.006332417891919613,-0.07745616464614867
1761336174088002300,1.981002197265625,0.6259025323450566,0.11525471103414893,0.3033586774408817
1761336174098068200,1.991068115234375,0.577221211284399,0.28418489815443754,0.44228257948458194
1761336174108135200,2.00113525390625,0.38803661003410816,-0.02869045323766768,0.2598971368551254
1761336174118201300,2.011201416015625,0.48109834009110924,-0.2214851712765172,0.2238398811765015
1761336174128268300,2.021268310546875,0.5812362921446561,-0.30645872581545264,0.2764576649032533
1761336174138335200,2.031335205078125,0.4231646220386028,-0.29888186082039025,0.4153842703606933
1761336174148401200,2.041401123046875,0.6421282754808664,-0.07003470940850674,0.5932166527956724
1761336174158468400,2.05146826171875,0.9944202029168605,0.4677280959842726,0.7399134538631886
1761336174168534300,2.0615341796875,1.3477584245353937,0.3681450378671288,0.5998146628212183
1761336174178601200,2.071601318359375,1.6202023237526415,0.36437216826491053,0.2513316992141306
1761336174188667400,2.08166748046875,1.409224408367276,0.12860108107505366,-0.012199117968231438
1761336174198734300,2.091734375,0.863402543953061,-0.13607540814424865,-0.23421682521887122
1761336174208801300,2.10180126953125,0.30061259360313414,-0.1895551698620431,-0.598026245034486
1761336174218867200,2.1118671875,-0.10536766940057277,-0.24259030221803113,-0.9059146017942578
1761336174228934400,2.121934326171875,-0.32154023081958294,-0.3073673650929704,-1.013701534231007
1761336174239000300,2.132000244140625,-0.4826894086748361,-0.304320508210361,-0.9502902615502477
1761336174249067300,2.1420673828125,-0.5997977847516537,-0.3285805777851492,-0.83459723216407
1761336174259134200,2.15213427734375,-0.5267120902746916,-0.28630103179188443,-0.7239153820034117
1761336174269200400,2.162200439453125,-0.3694984983026981,-0.16472449732506647,-0.6926424379918724
1761336174279267300,2.172267333984375,-0.13720423864424228,-0.16026149003421886,-0.660678369911015
1761336174289333200,2.182333251953125,0.19634733248651026,-0.24242575930608434,-0.6039302449138835
1761336174299400400,2.192400390625,0.5848509755104779,-0.23182919942997396,-0.5725562151480466
1761336174309466400,2.20246630859375,0.8062742970645427,-0.1683837139523588,-0.3443258804602548
1761336174319533300,2.212533203125,0.9148223500669002,-0.04237283203359693,0.06383453959412873
1761336174329600300,2.222600341796875,1.0749065290391444,0.13369316178336738,0.24423121955916285
1761336174339666400,2.23266650390625,1.0388695854961871,0.05365678965197876,0.15828717602025716
1761336174349733400,2.2427333984375,0.7806815906465053,-0.1819604769493453,0.15865188114680348
1761336174359799300,2.25279931640625,0.26900223433077336,-0.49165188280940053,0.15652999362200498
1761336174369866500,2.262866455078125,-0.3086258041888475,-0.5717545068437233,0.04547094417940825
1761336174379933400,2.272933349609375,-0.6806611274927854,-0.4471027661826461,-0.05958345802091062
1761336174389999400,2.282999267578125,-0.7806599633365869,-0.38820089721772816,-0.08384571955278515
1761336174400066300,2.29306640625,-0.5652238994985819,-0.38686402259077873,-0.20100862056212498
1761336174410132500,2.303132568359375,0.1367547413110733,-0.3055940352775156,-0.5593561399763449
1761336174420199400,2.313199462890625,0.13641279600560666,-0.2511499129064381,-0.6025677609216421
1761336174430265300,2.323265380859375,-0.44465223122537134,-0.5603589968759566,0.08661723009273409
1761336174440332300,2.333332275390625,-1.0279898795634508,-0.512409935612604,0.6240485019762069
1761336174450399500,2.3433994140625,-1.3372913910567759,0.13239851886294782,0.8445280398741364
1761336174460465400,2.35346533203125,-1.1913280918955802,0.4013414972871542,1.28660252956599
1761336174470532400,2.363532470703125,-0.8038952929735184,0.3566502687759697,1.777770135989785
1761336174480598500,2.3735986328125,-0.4193336655735969,0.45447851911503817,1.9984913006238638
1761336174490665500,2.38366552734375,-0.36871348540484905,0.5943386425629258,1.9553180754601955
1761336174500731400,2.3937314453125,-0.9155541714727878,0.46206342128608374,1.4564191441319883
1761336174510798300,2.40379833984375,-1.3428653917968272,-0.21773765531126407,0.8992440379891544
1761336174520865500,2.413865478515625,-1.9291963767319917,-0.7619232602931558,0.058053691170364616
1761336174530931500,2.423931396484375,-3.0391140133976933,-1.3251666534990072,-0.761774645602703
1761336174540998400,2.433998291015625,-3.431739120265841,-1.0744808509729802,-0.8173895653188228
1761336174551064600,2.444064697265625,-2.774930577525496,-0.20701613561492413,-0.9042664692610501
1761336174561131500,2.454131591796875,-1.7548223911225795,0.04562197002265602,-0.8427029433388262
1761336174571198500,2.464198486328125,-0.7198030513137579,0.05536448861900717,-0.0811335379846394
1761336174581264400,2.474264404296875,0.11008709913790225,0.1112729113889858,0.40679932430163024
1761336174591331600,2.48433154296875,0.713409550884366,0.1300186379890889,0.3474920528735965
1761336174601397500,2.4943974609375,1.0859393797069787,0.018012443889491258,0.0938441126063466
1761336174611464400,2.50446435546875,1.2601374242275953,-0.06815004643937572,-0.055140799398347734
1761336174621531400,2.514531494140625,1.317257487809658,-0.084170750256069,-0.02150909036621451
1761336174631597600,2.52459765625,1.2467203087717293,-0.07159463393529876,0.13447561739794908
1761336174641664500,2.53466455078125,1.1299860267043114,-0.08139717562319711,0.2923722231980413
1761336174651730400,2.54473046875,0.9558990413427353,-0.08112301659062504,0.311635945790261
1761336174661797600,2.554797607421875,0.6529238102614879,-0.04632989909630269,0.22688341359086334
1761336174671863300,2.56486328125,0.2576414668828249,-0.02936948501039296,0.13678499031886457
1761336174681930500,2.574930419921875,-0.15556231763362885,-0.02174253379590809,0.13551102486029268
1761336174691997400,2.58499755859375,-0.4356476715147495,-0.0005106894684955477,0.13424224703349172
1761336174702063400,2.5950634765625,-0.5149778133392333,-0.024987105207704006,0.049251668294519185
1761336174712130600,2.605130615234375,-0.5357850390464067,-0.05721230844277888,-0.02674640649780631
1761336174722196200,2.6151962890625,-0.5099626155257225,-0.07466675312332809,-0.1456585440609604
1761336174732263400,2.625263427734375,-0.42562487467229365,-0.11119783685877918,-0.22991722832880912
1761336174742329300,2.635329345703125,-0.3434188851505518,-0.12829144887030125,-0.2941084724061191
1761336174752396300,2.645396240234375,-0.2526660165578127,-0.1390823805410415,-0.31525947004966437
1761336174762463200,2.655463134765625,-0.16096037728488444,-0.1376424108657986,-0.31469569868706165
1761336174772529400,2.665529296875,-0.023809330132603643,-0.12285689313355833,-0.27950156264379616
1761336174782596400,2.675596435546875,0.05894610996544361,-0.154614150063321,-0.2342855065409094
1761336174792662300,2.685662353515625,0.052205988055467605,-0.19921806561723351,-0.17575031546391545
1761336174802729500,2.6957294921875,-0.10606500401496886,-0.24543971856608984,-0.10312025579996406
1761336174812796400,2.70579638671875,-0.2795908483624458,-0.31726295535918325,-0.056088893903419375
1761336174822862300,2.7158623046875,-0.4029962787568569,-0.3432969027386978,-0.059491688084229825
1761336174832929300,2.72592919921875,-0.4442342980742454,-0.36728904209230095,-0.06681026746928692
1761336174842995500,2.735995361328125,-0.34329847364127636,-0.3356609279675409,-0.05391995236650109
1761336174853062400,2.7460625,-0.1219710136771202,-0.3215244487285614,-0.007454553789645433
1761336174863128300,2.75612841796875,0.08480068219006061,-0.33075043263752013,0.08329254264943302
1761336174873195500,2.766195556640625,0.1363444069445133,-0.29726682683918626,0.16118468756005166
1761336174883262500,2.776262451171875,-0.016637246546149252,-0.2620431359078735,0.17083558235019444
1761336174893328400,2.786328369140625,-0.14622867209911344,-0.2843786671608686,0.14914163693636656
1761336174903395300,2.796395263671875,-0.132598206153512,-0.24378826156463473,0.10217574149146676
1761336174913461500,2.80646142578125,-0.04952010997235775,-0.2222461457116529,0.10166757277362048
1761336174923528400,2.816528564453125,0.06473579928278923,-0.22406769858300685,0.10078289889357983
1761336174933595400,2.826595458984375,0.20470424194335937,-0.21913214187696575,0.09985146326236426
1761336174943661600,2.83666162109375,0.269051334169507,-0.1856231459090486,0.18190620774514973
1761336174953728500,2.846728515625,0.19540274511277675,-0.16904058869220315,0.27013174981735644
1761336174963794400,2.85679443359375,0.06633329760730267,-0.17183537050988523,0.2877031354084611
1761336174973861400,2.866861328125,0.04203998335003853,-0.14747644367050378,0.15405410502776504
1761336174983928300,2.87692822265625,0.15697569156289098,-0.14644574891589582,-0.007242445408925414
1761336174993994500,2.886994384765625,0.248664964222908,-0.12093779817186295,-0.028633170092478392
1761336175004061400,2.8970615234375,0.3285644303679466,-0.10982048409096896,0.00004179331511259079
1761336175014127600,2.907127685546875,0.30226211437582967,-0.1185125803189352,0.005859831944108009
1761336175024194600,2.917194580078125,-0.011001871007680892,-0.15314930167514829,-0.012142711605876683
1761336175034260500,2.927260498046875,-0.330150822776556,-0.1570378700789064,0.030141455763578413
1761336175044327400,2.937327392578125,-0.5409551351606846,-0.1719904514737427,0.10564787458144127
1761336175054394400,2.947394287109375,-0.6391694256752729,-0.18921273136623204,0.12221702432744204
1761336175064460500,2.95746044921875,-0.5532862089455127,-0.18860625337306408,0.03870930455736816
1761336175074527500,2.967527587890625,-0.30061726977825165,-0.19278741151522844,-0.048845425581187006
1761336175084593400,2.977593505859375,-0.02710428002476692,-0.20431151629872618,-0.012354235464707016
1761336175094660600,2.98766064453125,0.07385317171812057,-0.23419676881153134,0.044319034197926516
1761336175104727600,2.9977275390625,-0.07541969038248061,-0.2121387027930468,0.0260496564052999
1761336175114793500,3.00779345703125,-0.20977204672694205,-0.19651801287829876,0.016933087687566874
1761336175124860400,3.0178603515625,-0.2350754148095846,-0.22549780445136128,-0.0048390375290066
1761336175134926300,3.02792626953125,-0.1614022758334875,-0.24059406863320618,-0.03488141683228314
1761336175144993500,3.03799365234375,-0.013969488641619681,-0.2268115173984319,-0.0778647454470396
1761336175155059500,3.0480595703125,0.13580255515277384,-0.2047071280201897,-0.05537563106752932
1761336175165126400,3.05812646484375,0.18722820648550986,-0.18076971452850848,-0.04597293888479471
1761336175175193300,3.068193359375,0.14093115021288394,-0.19756178631018845,-0.059688745026290416
1761336175185259300,3.07825927734375,0.07003156760334968,-0.19464889453817158,-0.08792180988527834
1761336175195326200,3.088326171875,-0.029029110607504842,-0.20592611188851295,-0.054150107860565184
1761336175205392400,3.098392333984375,-0.049607788255810734,-0.19033815519958733,-0.013219693187624216
1761336175215459300,3.108459228515625,0.025316227564215657,-0.18578454701583832,-0.020122677509114145
1761336175225526300,3.1185263671875,0.06070201372206211,-0.20164328347016125,-0.0524375317890197
1761336175235592400,3.128592529296875,0.08380933306515216,-0.2169249872215092,-0.10814677872508764
1761336175245659400,3.138659423828125,0.12822832050621508,-0.19312895496189594,-0.12477270015962422
1761336175255725300,3.148725341796875,0.11426993778049944,-0.1710358541626483,-0.05970628068298101
1761336175265792300,3.158792236328125,0.1227905133664608,-0.19655100183244795,0.09161715727187693
1761336175275858400,3.1688583984375,0.17865794653892517,-0.20205588285904377,0.21069354548603295
1761336175285925400,3.17892529296875,0.19982874486148355,-0.17233984943330288,0.20037571121975778
1761336175295992600,3.18899267578125,0.12382394806742668,-0.1656978906681761,0.1893232060033828
1761336175306058800,3.199058837890625,-0.06371697762906552,-0.2419173896588385,0.13253317809328435
1761336175316125700,3.209125732421875,-0.2529015788793564,-0.22419450330045074,-0.007391498490795493
1761336175326191600,3.219191650390625,-0.34465397990345953,-0.14550306123830378,-0.12422237280048429
1761336175336258600,3.229258544921875,-0.3421738535255194,-0.13619973777681588,-0.08060323050022125
1761336175346325800,3.23932568359375,-0.23787176752984523,-0.15632135584000498,-0.0319310425940901
1761336175356391700,3.2493916015625,-0.15434768114686012,-0.12248444309197365,-0.0450776705455035
1761336175366458600,3.259458740234375,-0.09014438130557537,-0.09910568639636039,-0.05202946244478225
1761336175376524500,3.269524658203125,0.03341945452094078,-0.10844517714977264,-0.07498634046651423
1761336175386591500,3.279591552734375,0.17750877650380134,-0.0984846318885684,-0.09962072324641048
1761336175396658700,3.28965869140625,0.19487083019316195,-0.06654704995583742,-0.055162426708266134
1761336175406724400,3.299724365234375,-0.002669511470198631,-0.061243792448565364,0.042119989783689374
1761336175416791600,3.30979150390625,-0.2063192759245634,-0.07903280284572392,0.148238623682037
1761336175426857500,3.319857421875,-0.3415647817164659,-0.10323142455685883,0.1889088530488312
1761336175436924400,3.32992431640625,-0.41507951526045794,-0.12568349486161023,0.177867015356943
1761336175446990600,3.339990478515625,-0.4163853371620178,-0.16583700687792152,0.08966938420496881
1761336175457057500,3.3500576171875,-0.340745866549015,-0.13815116410553455,-0.005375336362794041
1761336175467124500,3.36012451171875,-0.22258242846131324,-0.1872696344744414,-0.0951382440701127
1761336175477190400,3.3701904296875,-0.08151800725758075,-0.23454821259770542,-0.2717401348620653
1761336175487257600,3.380257568359375,0.07069032377302646,-0.15074903560038655,-0.45796310982778665
1761336175497323500,3.390323486328125,0.12059621819257736,-0.113198874482885,-0.39368805992454287
1761336175507390500,3.400390380859375,-0.004245967006683349,-0.07641133176833391,-0.2044460293985903
1761336175517457400,3.41045751953125,-0.16944997321069238,-0.045985067714005706,-0.12394801283851266
1761336175527523600,3.420523681640625,-0.30644086136519905,-0.06636307169105857,-0.13558277492225168
1761336175537590500,3.430590576171875,-0.3596796995997429,-0.0948182914007455,-0.19061244209632278
1761336175547656400,3.440656494140625,-0.3186924401730299,-0.013797858401760458,-0.24112477797642348
1761336175557723600,3.4507236328125,-0.20254034190773962,-0.010229023471660912,-0.2588195707514882
1761336175567789600,3.46078955078125,-0.17370763065516948,-0.10565923622567205,-0.3111680360175669
1761336175577856500,3.4708564453125,-0.2473801851093769,-0.10442520091868937,-0.42832200480177995
1761336175587923500,3.48092333984375,-0.21685236037671565,-0.13163053016513585,-0.5070455590352416
1761336175597989600,3.49098974609375,-0.10111468813121319,-0.14711144628301262,-0.519298745278269
1761336175608056600,3.501056640625,0.02883271125257015,-0.07324336925670503,-0.4872853581629693
1761336175618122500,3.51112255859375,0.09674246439635753,-0.028226854313910005,-0.36288653281703587
1761336175628189400,3.521189453125,0.22853753747344016,-0.06586363426893949,-0.16820684128180144
1761336175638256600,3.531256591796875,0.3493319085866213,-0.046451881508156656,0.058672115329653024
1761336175648322600,3.541322509765625,0.37425475291907784,0.01265413172673434,0.14756108974665402
1761336175658389500,3.551389404296875,0.20424831486940384,0.1248265857713297,0.0776170542962849
1761336175668455700,3.56145556640625,-0.02019698485434055,0.47255427403170613,0.13125263676345347
1761336175678522600,3.571522705078125,-0.2985521539419889,0.5492013507846742,0.0910208718791604
1761336175688588500,3.581588623046875,-0.5705214213848113,0.2345102186748758,-0.22008564320951698
1761336175698655500,3.591655517578125,-0.7579284915685653,0.1333996952621266,-0.5051737738139928
1761336175708722700,3.60172265625,-0.8505068220227956,0.12221578221842645,-0.6464021534077823
1761336175718788600,3.61178857421875,-0.804168264696002,0.14248407874330876,-0.5913727784946561
1761336175728855600,3.62185546875,-0.6982400388032197,0.3075487130092457,-0.3902824892647564
1761336175738921700,3.631921630859375,-0.5489671767026185,0.5138941462883726,-0.08727569400146604
1761336175748988700,3.64198876953125,-0.37827392543256283,0.6268001387719064,0.13221446753293276
1761336175759055600,3.6520556640625,-0.22777648997306824,0.5262366547826677,0.16714739535674453
1761336175769121500,3.66212158203125,-0.04352116181850433,0.35995351157244293,0.03430032900869846
1761336175779188700,3.672188720703125,0.10312836604118347,0.19855814040377734,-0.12496624997034668
1761336175789254700,3.682254638671875,0.11619009218811988,0.08109570845859125,-0.3423603160083294
1761336175799321600,3.692321533203125,0.0245475812792778,0.018997381539922205,-0.5616514478392899
1761336175809387500,3.702387451171875,-0.12745499804615973,-0.037865675073768944,-0.709918201637268
1761336175819454700,3.712454833984375,-0.2942342907428741,-0.10416485121576115,-0.8170113796561956
1761336175829521700,3.722521728515625,-0.4237748628914356,-0.12393827689578756,-0.8768198055393993
1761336175839587300,3.73258740234375,-0.37768414284586904,-0.06510081493658945,-0.8801559642247855
1761336175849654500,3.742654541015625,-0.2044675105780363,0.0043336818227544425,-0.79926704865098
1761336175859720400,3.752720458984375,-0.006631400838494301,0.009204849789384751,-0.6089335696265101
1761336175869787400,3.762787353515625,0.14729191741645337,-0.01935485320808366,-0.36831732569411396
1761336175879854300,3.772854248046875,0.24656010089814662,-0.10030647702086716,-0.11692059841975569
1761336175889920500,3.78292041015625,0.29638123964369295,-0.10209759822133928,0.18119228732213377
1761336175899987500,3.792987548828125,0.29706688382029534,0.010252769673429429,0.4524026992216706
1761336175910053400,3.803053466796875,0.2938169421136379,0.14239135895855723,0.7141125845871865
1761336175920120600,3.81312060546875,0.3171481333404779,0.1840939270477742,1.0119951687045394
1761336175930187500,3.8231875,0.3131406512647867,0.16942063751835376,1.2517713085509836
1761336175940253400,3.83325341796875,0.3309387582838535,0.06922543885223567,1.5101114252224563
1761336175950320400,3.8433203125,0.38532209037840365,-0.20629037862364202,1.6065050761811435
1761336175960386600,3.853386474609375,0.4821498949706554,-0.57740939080026,1.444504980584979
1761336175970453500,3.86345361328125,0.5508721335411072,-0.8955240676179528,1.0575217520613223
1761336175980519400,3.87351953125,0.6138455993264913,-0.9761839236762374,0.6164618462394923
1761336175990586600,3.883586669921875,0.631159137699008,-0.7556088895145803,0.3256012697134167
1761336176000653600,3.893653564453125,0.6542296321630477,-0.46514257300309836,0.21718590318001804
1761336176010719500,3.903719482421875,0.7379366738975047,-0.24880108475796878,0.3852267402451485
1761336176020786400,3.913786376953125,0.7843862903833388,-0.17435491558276117,0.5389041939802468
1761336176030852600,3.9238525390625,0.6279688172250986,-0.26417675040308386,0.49683147740438577
1761336176040919600,3.93391943359375,0.3734071961790323,-0.3744082629803568,0.2837937068797648
1761336176050985500,3.9439853515625,0.06984510512053967,-0.3017923414396122,-0.07183781330771744
1761336176061052700,3.954052734375,-0.21761457692086694,-0.2769133727815002,-0.2992568681452423
1761336176071118600,3.96411865234375,-0.5469768796682357,-0.2611933506781235,-0.08478848029561341
1761336176081185500,3.974185546875,-0.934192820969224,-0.2006478061594069,0.2385080926720053
1761336176091252500,3.98425244140625,-1.2693944973945617,-0.20370681013753636,0.43802572575770315
1761336176101318700,3.994318603515625,-1.2751426856577395,-0.32989071053564545,0.33953013408370314
1761336176111385600,4.004385498046875,-0.9517828381955623,-0.46518418365512043,-0.6187743609655648
1761336176121451500,4.014451416015625,-0.47301031070351596,-0.4195675839273259,-1.7602268805146217
1761336176131518700,4.024518798828125,-0.11881868712604045,-0.5706378873713314,-2.594574594897032
1761336176141585700,4.034585693359375,0.31115327683985233,-0.5350915768895298,-2.825738973742723
1761336176151651600,4.044651611328125,0.6981359939068555,-0.21680673113670199,-2.2906384098291395
1761336176161718500,4.054718505859375,0.7310153502017259,-0.08432862596521154,-1.5252837137825785
1761336176171784700,4.06478466796875,0.5807745198518037,0.03804318706514313,-0.8943456714883447
1761336176181851600,4.0748515625,0.3701069855898618,0.11290703366314991,-0.35797311487756667
1761336176191917600,4.08491748046875,0.14064648805260657,0.0671785482258303,-0.11250884639210998
1761336176201984800,4.09498486328125,-0.16014146211743355,0.09919810478701256,-0.02296118887066841
1761336176212051700,4.1050517578125,-0.1690010603994131,0.7482699979938566,0.46384961058311164
1761336176222117600,4.11511767578125,-0.07095628123283386,1.3183210253879427,1.3838603961385785
1761336176232184600,4.1251845703125,-0.12552432224452495,0.9606462358698248,1.4570301156371832
1761336176242250500,4.13525048828125,-0.09795710088312626,0.9257806741937994,1.1246963958635925
1761336176252317700,4.145317626953125,-0.06929682358801365,0.8182153486184776,0.7715332385510206
1761336176262384600,4.155384521484375,-0.30985388467907904,0.7405658533573151,0.5662964241009205
1761336176272450600,4.165450439453125,-0.34334172826111314,0.8990289339337497,0.34007366637587544
1761336176282517800,4.175517822265625,-0.01970949359834194,0.822676565811038,0.1053819901868701
1761336176292583400,4.18558349609375,0.23425357703268526,0.6240278245143592,-0.006160422325879335
1761336176302650400,4.195650390625,0.500575193977356,0.40475791813451795,-0.14062924465686083
1761336176312717300,4.20571728515625,0.8096756299406289,0.08950935307135804,-0.2582346104703843
1761336176322783500,4.215783447265625,1.0661655887007713,-0.22687537641488015,-0.27834026377946136
1761336176332850400,4.225850341796875,1.195765197560191,-0.4868078768443316,-0.3560281913548708
1761336176342916600,4.23591650390625,1.1266980910748243,-0.5265334457721561,-0.3452934468507767
1761336176352983600,4.245983642578125,1.0360065972805022,-0.5890445547427982,-0.1831198943838477
1761336176363049500,4.256049560546875,0.9626701429128647,-0.7641966851178557,-0.07380261057466268
1761336176373116400,4.266116455078125,0.9867945303440093,-0.9048924191396683,-0.007944821524620055
1761336176383183400,4.276183349609375,0.9264946676820516,-0.9880841317631304,0.14707009135931728
1761336176393249500,4.28624951171875,0.597577770614624,-1.051131247306615,0.21273221170678733
1761336176403316500,4.29631640625,0.19213468322753904,-1.2374169122450054,0.06161408706568181
1761336176413382700,4.306382568359375,-0.3548194000869989,-1.3678984185054897,-0.37531931341066954
1761336176423449600,4.31644970703125,-0.6032464639008045,-0.8286923189692199,-0.8096142551422119
1761336176433516500,4.3265166015625,-0.5348585718512535,-1.0110099570594728,-0.8996357407204806
1761336176443582500,4.33658251953125,-1.0028741430073975,-1.4122083926141262,-0.8847390542313456
1761336176453649400,4.3466494140625,-1.4046470174491406,-0.38804205339420583,-0.3260070009700954
1761336176463715600,4.356715576171875,-1.4804975004643202,0.14251367016397415,0.03669080434180796
1761336176473782500,4.366782470703125,-1.449042624014616,-0.0032974341101944444,-0.047628451006859536
1761336176483848400,4.376848388671875,-1.3986357943356036,0.056680503121018404,-0.11824264080375432
1761336176493915600,4.38691552734375,-1.2199088742136954,0.04206694442220032,-0.15775858556888997
1761336176503982600,4.396982666015625,-1.0069581974506379,-0.08077624897956848,-0.18333755572251975
1761336176514048500,4.407048583984375,-0.6802969703555106,-0.07467595934309065,-0.19435710851736365
1761336176524115500,4.417115478515625,-0.3600613923937082,-0.004662146592140198,-0.11942702828273176
1761336176534181600,4.427181640625,-0.14521394209861754,-0.029769371048174797,-0.06042904199957847
1761336176544248600,4.43724853515625,0.0675520257472992,-0.058227330704219635,0.01327339613623917
1761336176554315500,4.4473154296875,0.28519758232831954,-0.05827171783521771,0.011427183747664093
1761336176564381700,4.457381591796875,0.4737327797591686,-0.05063004397563636,-0.09420921959169208
1761336176574448600,4.46744873046875,0.6144476568728685,-0.08710249285902827,-0.19770751492381095
1761336176584514600,4.4775146484375,0.6856178731173277,-0.1024709981109947,-0.22216318013593553
1761336176594581500,4.48758154296875,0.6033031625241041,-0.1325449415963143,-0.1829005525447428
1761336176604648700,4.497648681640625,0.38819209285676476,-0.16029219569973646,-0.09458104857876896
1761336176614714600,4.507714599609375,0.16488602629601953,-0.08274389579072594,0.007661328408122062
1761336176624781600,4.517781494140625,-0.15607260524332522,-0.04193206599615514,0.005166150591522455
1761336176634847700,4.52784765625,-0.5062351194351912,-0.05808394017815589,-0.09406849594675004
1761336176644914700,4.537914794921875,-0.7154138764441013,-0.13715426202267408,-0.17585026870705187
1761336176654980600,4.547980712890625,-0.7542600321888924,-0.2260952588878572,-0.22396460353471337
1761336176665047600,4.558047607421875,-0.6455342845320701,-0.23686047159545123,-0.22718509995117783
1761336176675114800,4.56811474609375,-0.41470191411972046,-0.23455855132862924,-0.19747640958167612
1761336176685180700,4.5781806640625,-0.16950550279021262,-0.2163612158589065,-0.15267229528054593
1761336176695247600,4.58824755859375,-0.0201338564902544,-0.21793606396019458,-0.10810045536532997
1761336176705313500,4.5983134765625,-0.030339608684182166,-0.19454532456584273,0.0005360796380788087
1761336176715380700,4.608380615234375,0.06857903070747852,-0.20148454924449324,0.26417612934857604
1761336176725447700,4.61844775390625,0.2412321838736534,-0.25779994538016615,0.493789698555693
1761336176735513300,4.628513427734375,0.388754987436533,-0.277684064893052,0.46153081224672493
1761336176745580500,4.63858056640625,0.39724575240612026,-0.2740121714472771,0.308569470891729
1761336176755646500,4.648646484375,0.30997078905701636,-0.27401348662152886,0.15185432996116577
1761336176765713400,4.65871337890625,0.1748217293769121,-0.2963929300814867,0.024512509965896604
1761336176775780400,4.6687802734375,-0.041461891201138495,-0.3034511780299246,-0.09758571028746664
1761336176785846500,4.678846435546875,-0.12188275087177752,-0.28553061367496846,-0.12892258638069032
1761336176795913500,4.68891357421875,-0.10081424387991428,-0.2692822203159332,-0.1178246345873922
1761336176805979400,4.6989794921875,-0.06292670403420925,-0.2699377616152167,-0.06761113552339375
1761336176816046600,4.709046630859375,-0.0016325696378946303,-0.2370095246773213,-0.00816102155856788
1761336176826112500,4.719112548828125,0.023170447707176207,-0.20418167937397955,-0.013467968860268593
1761336176836179500,4.729179443359375,-0.0801782830864191,-0.20548202138282357,-0.08643822026401758
1761336176846246400,4.739246337890625,-0.18497078294754027,-0.21907098627425728,-0.06178637489266693
1761336176856312600,4.7493125,-0.2722726343035698,-0.237079082782194,-0.0037132483694702384
1761336176866379500,4.759379638671875,-0.32098318145871163,-0.2529207219712436,0.007579276147857308
1761336176876445400,4.769445556640625,-0.29958032794594763,-0.24561127574071287,-0.03750971950925886
1761336176886512600,4.7795126953125,-0.14426760115921497,-0.17857158342972396,-0.1146348255701363
1761336176896579600,4.78957958984375,0.09648001406788825,-0.19695004762001334,-0.1875097999058664
1761336176906645500,4.7996455078125,0.3510673540771007,-0.26682715531401335,-0.20511391872279344
1761336176916712400,4.80971240234375,0.49396074427366254,-0.26597389948554334,-0.19149609306305646
1761336176926778600,4.819778564453125,0.47662850120067596,-0.224461812467128,-0.07974091458246112
1761336176936845600,4.829845458984375,0.3393178795725107,-0.18588081046454608,0.047966523854807014
1761336176946912500,4.83991259765625,0.15742518889605997,-0.1959714118462056,0.07768084024749695
1761336176956978400,4.849978515625,0.017706337082386017,-0.28652620058357714,0.07230740358084439
1761336176967045600,4.860045654296875,-0.04509761735498905,-0.31133301732093094,0.01688208815269172
1761336176977111600,4.870111572265625,-0.10986264273226261,-0.30475553862676025,-0.036021965169534084
1761336176987178500,4.880178466796875,-0.2358084052592516,-0.2492744744233787,-0.05336151476614177
1761336176997244700,4.89024462890625,-0.4091998095721006,-0.19591858568042517,-0.05024024094045162
1761336177007311600,4.9003115234375,-0.5623270090132951,-0.165591105825454,-0.037763694270327684
1761336177017378600,4.910378662109375,-0.6278659413725137,-0.22606442535817622,-0.03074482848420739
1761336177027444500,4.920444580078125,-0.729148387286067,-0.19343363699689506,-0.03871463831961155
1761336177037511700,4.93051171875,-0.7848515698075293,-0.125469231056422,-0.014729586293920873
1761336177047577600,4.94057763671875,-0.8611971428632735,-0.15741700558960436,0.026425503980368373
1761336177057644500,4.95064453125,-0.7827332624793052,-0.10224106181263923,0.014552256965637207
1761336177067711500,4.96071142578125,-0.4334253192901611,-0.0899671250425279,-0.025206483579427
1761336177077777700,4.970777587890625,-0.01192132394015789,-0.13558803561925886,-0.029187296843901273
1761336177087844600,4.9808447265625,0.19400807588398455,-0.12860124547183513,-0.010275164168328046
1761336177097910500,4.99091064453125,0.15628420216739178,-0.11035393338054418,-0.03515073529295623
1761336177107977700,5.000977783203125,0.07536591436862945,-0.13504706061035393,0.021641703769937157
1761336177118043600,5.011043701171875,0.022203648501634598,-0.17672697847634553,0.04009586354494095
1761336177128110600,5.021110595703125,0.03255845377743244,-0.17351897621527312,0.02033968126066029
1761336177138177500,5.031177490234375,0.05227729972600936,-0.17564751267656684,0.0215940652359277
1761336177148243700,5.04124365234375,0.09495499645769595,-0.1795702390782535,0.04952917006164789
1761336177158310700,5.051310546875,0.1397217744231224,-0.19009440957158802,0.09748992176279425
1761336177168376300,5.061376220703125,0.039410219368338585,-0.19023688678219913,0.11246128092333674
1761336177178443800,5.07144384765625,-0.10360124424993991,-0.19252499771937726,0.17908588962741195
1761336177188510700,5.0815107421875,-0.1744604948490858,-0.2109996888257563,0.19577596233934164
1761336177198576400,5.091576416015625,-0.16405015999376774,-0.23010113352835176,0.09509615849405527
1761336177208643300,5.101643310546875,-0.08186930491328238,-0.22139175737202166,0.0021213030029088257
1761336177218709500,5.11170947265625,0.006347323200106621,-0.21177681067809462,-0.05494513069577515
1761336177228776400,5.1217763671875,0.06806757405400275,-0.23363033056780694,-0.05381517681777477
1761336177238843400,5.131843505859375,0.08417290568053722,-0.27039310416728257,0.004648994849622249
1761336177248909600,5.14190966796875,-0.004440028274059296,-0.28887627084106204,0.01694507038630545
1761336177258976500,5.1519765625,-0.18741583801209927,-0.2967795913115144,0.0021923224125057457
1761336177269042400,5.16204248046875,-0.3300117065668106,-0.2805399657808244,-0.05234532346092164
1761336177279109400,5.172109375,-0.35072657781541344,-0.24865853448212144,-0.07950710582658647
1761336177289175600,5.182175537109375,-0.2351893965780735,-0.22169629327654838,-0.0977953344501555
1761336177299242200,5.1922421875,-0.06102233171761035,-0.20969591275081037,-0.09646795830391347
1761336177309309200,5.20230908203125,0.039729952841997145,-0.2114342808507383,-0.10685951539352535
1761336177319375400,5.212375244140625,0.02707154679894447,-0.23408698829412458,-0.10209814621061086
1761336177329442300,5.2224423828125,-0.0377799878180027,-0.25497531641349197,-0.06855236189626157
1761336177339508200,5.23250830078125,-0.09957038129866122,-0.2142334100499749,-0.026763503763079642
1761336177349575200,5.2425751953125,-0.10988602360785008,-0.19981237824857234,-0.06858743320964276
1761336177359642400,5.252642333984375,-0.051934769898653026,-0.2495230423569679,-0.09530081422068178
1761336177369708000,5.2627080078125,0.04640577734410763,-0.296823138192296,-0.10371084210425614
1761336177379775200,5.272775146484375,0.08234159860014915,-0.30270664327293634,-0.09549443709664046
1761336177389841200,5.282841064453125,-0.004822890111804009,-0.2899782407335937,-0.027755218214169142
1761336177399908000,5.292908203125,-0.143006787443161,-0.3114944914929569,0.006058057929947972
1761336177409974000,5.30297412109375,-0.2671346868932247,-0.30143223942294717,-0.018801658038422465
1761336177420041000,5.313041015625,-0.38089141445457936,-0.2417424714833498,-0.01575312065538019
1761336177430108200,5.323108154296875,-0.45857729620337484,-0.20594839678555726,0.05594312875717878
1761336177440174000,5.333174072265625,-0.43041620060205454,-0.21982465418577193,0.0652945291440934
1761336177450241000,5.343240966796875,-0.3887614171773195,-0.22013357400447128,0.013111921964213251
1761336177460307200,5.35330712890625,-0.37667233545482154,-0.24770050310492514,-0.035042452612891795
1761336177470374100,5.3633740234375,-0.2716033567398786,-0.282023482336849,-0.017289280714094638
1761336177480441000,5.373441162109375,-0.11542553755640983,-0.2692868964910507,-0.02369542142935097
1761336177490507000,5.383507080078125,0.02066284880042076,-0.24188830969482658,-0.021572510991245505
1761336177500574200,5.39357421875,0.09829086288213729,-0.22152064444869754,0.02130838016234338
1761336177510640000,5.40364013671875,0.16904197693169115,-0.1943823160238564,0.035060572791472074
1761336177520707000,5.41370703125,0.13517945481836796,-0.13497019598186016,0.004444631383940577
1761336177530773200,5.423773193359375,0.0451695135474205,-0.11379852087646722,0.007555529946088791
1761336177540840200,5.433840087890625,-0.021724340552091596,-0.11004223708286881,0.04186448065266013
1761336177550907100,5.4439072265625,-0.07375964821577072,-0.07079714514836669,0.07099215626381337
1761336177560973000,5.45397314453125,-0.13631634989380836,-0.076472706566751,0.03864420343190431
1761336177571040300,5.464040283203125,-0.10826748249530792,-0.09432385894730687,0.010593071011081338
1761336177581106200,5.474106201171875,-0.04952244805991649,-0.08276961475387215,-0.02240289740078151
1761336177591173000,5.484173095703125,0.0008446341305971145,-0.06661591394096612,-0.05216945543736219
1761336177601240000,5.494239990234375,0.055631870850920674,-0.09084186205044388,-0.027553265901282428
1761336177611306200,5.50430615234375,0.07699263878762722,-0.09851678059250116,-0.011922419918701053
1761336177621373200,5.514373291015625,0.013878303226828575,-0.0690635993540287,-0.047483416512981054
1761336177631439000,5.524439208984375,-0.05824585274159908,-0.05260550876706838,-0.07821224371045828
1761336177641506300,5.53450634765625,-0.06167699623405933,-0.061749623078852886,-0.11550722449049353
1761336177651573200,5.5445732421875,-0.025468203255534172,-0.07531067705005406,-0.17821181020662188
1761336177661639200,5.55463916015625,-0.017341010901331902,-0.06426905855387449,-0.16174539018273354
1761336177671706000,5.5647060546875,-0.05034603940248489,-0.05042538824900984,-0.11508329998999833
1761336177681772300,5.574772216796875,-0.05588321526348591,-0.02513780225738883,-0.10520597603283822
1761336177691839200,5.584839111328125,-0.07226327217817306,0.016045856524258852,-0.11062997384294866
1761336177701905200,5.5949052734375,-0.08920739271640778,0.0023835341356694697,-0.1331431266851723
1761336177711972400,5.604972412109375,-0.042050504744052884,-0.037304771521687506,-0.12435118681192397
1761336177722039300,5.615039306640625,0.005291676667332649,-0.0336646614536643,-0.10391118698194622
1761336177732105200,5.625105224609375,0.004988309806585311,-0.033468554359674454,-0.0763275259424001
1761336177742172200,5.635172119140625,-0.02425648937821388,-0.10590411436483263,-0.06819711871780455
1761336177752238300,5.64523828125,-0.03461889343857765,-0.1356271985858679,-0.07721241901814938
1761336177762305300,5.65530517578125,-0.047292497050762175,-0.13296134037747978,-0.032057153191789985
1761336177772372200,5.665372314453125,-0.1385883864790201,-0.12108049457818269,-0.013996303583309054
1761336177782438400,5.6754384765625,-0.1829524288624525,-0.13969766289517282,-0.0531355970557779
1761336177792505300,5.68550537109375,-0.09516717790365219,-0.134834294642508,-0.07189166238680482
1761336177802571000,5.695571044921875,0.03334229763150215,-0.09554857843667268,-0.05485854839086532
1761336177812638200,5.70563818359375,0.10335516053438186,-0.09694222475215793,-0.030294162107259034
1761336177822704000,5.7157041015625,0.11436287676095962,-0.14256898054778575,-0.038026656055450435
1761336177832771000,5.72577099609375,0.051849429702758784,-0.1444318518102169,-0.004043430171906948
1761336177842838300,5.73583837890625,-0.12771978646218776,-0.11543605895042419,0.017817030915245412
1761336177852904200,5.745904296875,-0.3454799093335867,-0.11405527211651205,-0.017752587376907467
1761336177862971100,5.75597119140625,-0.46930794905424117,-0.13435542508438228,-0.09164514125734567
1761336177873037000,5.766037109375,-0.40240941877961156,-0.13872691816687582,-0.09766264798119664
1761336177883104000,5.77610400390625,-0.22779168754220008,-0.1603856461368501,-0.04071925614029169
1761336177893171200,5.786171142578125,-0.020746435430645943,-0.17987375206947326,0.006478986755758523
1761336177903237000,5.796237060546875,0.11665712517797946,-0.15032047145739197,0.0258363059155643
1761336177913304000,5.806303955078125,0.15686521692574024,-0.12366232776492833,0.0212808345682919
1761336177923370200,5.816370361328125,0.040944589328765865,-0.09209186211153865,0.009764365101978182
1761336177933437200,5.826437255859375,-0.14042612330019474,-0.08342983222827315,0.0031692776858806607
1761336177943503000,5.836503173828125,-0.20044307736754416,-0.07623027611300348,-0.01186009527221322
1761336177953570000,5.846570068359375,-0.20178104797303675,-0.06811141319572925,-0.07526040816754102
1761336177963637000,5.856636962890625,-0.1772831510543823,-0.0788989108003676,-0.11675715148635207
1761336177973703200,5.866703125,-0.10433540374338626,-0.08993453794717789,-0.12400463839657604
1761336177983770000,5.87677001953125,-0.05257774397730827,-0.07263882749229669,-0.1323248691048473
1761336177993836300,5.886836181640625,-0.012307108387351036,-0.06915317733362317,-0.14120711761005222
1761336178003903200,5.8969033203125,0.06186170515120029,-0.08818272584378718,-0.107641605681926
1761336178013970200,5.90697021484375,0.1292249303281307,-0.0800811063222587,-0.060377238747104996
1761336178024036000,5.9170361328125,0.15237316620349883,-0.0708168727621436,-0.017269187774136663
1761336178034103000,5.92710302734375,0.10003682976663113,-0.07199468436986207,-0.002780205303058028
1761336178044169200,5.937169189453125,-0.020754618737101552,-0.07918678783103823,0.003447510105371475
1761336178054236200,5.947236083984375,-0.09052665862143039,-0.08387465338632463,0.0012516805615276098
1761336178064303000,5.95730322265625,-0.12811200065016745,-0.09399141212254762,0.030881241280212995
1761336178074369300,5.967369384765625,-0.15609306350946425,-0.09670870825722813,0.054485696490481496
1761336178084436200,5.977436279296875,-0.16274316904842853,-0.06607055501788854,0.0878755595907569
1761336178094502100,5.987502197265625,-0.20729718104600905,-0.0499937188334763,0.08535305537581443
1761336178104569000,5.997569091796875,-0.17410393649637698,-0.07818667087778448,0.042151553965732454
1761336178114635300,6.00763525390625,-0.05363923572897911,-0.07082242572009563,-0.0033414924476295707
1761336178124702200,6.0177021484375,0.040136195555329324,-0.0550980562351644,-0.03512582004740834
1761336178134769200,6.02776904296875,0.07435235341191292,-0.07023790383040905,-0.06357705770172178
1761336178144835300,6.03783544921875,0.07463818461596965,-0.07609349799081683,-0.10746208439655601
1761336178154902300,6.04790234375,0.014154197558760642,-0.055567135051637885,-0.10803440439179539
1761336178164968200,6.05796826171875,-0.06517419070005416,-0.07090002100095152,-0.11845562596730887
1761336178175035100,6.06803515625,-0.1422714589059353,-0.07961977242082358,-0.13415712603330612
1761336178185102300,6.078102294921875,-0.1563350555717945,-0.07955708244815468,-0.14784407140649855
1761336178195168300,6.088168212890625,-0.11556231567859648,-0.08771963837668299,-0.1366542035460472
1761336178205235200,6.098235107421875,-0.09143149850666522,-0.12351663568392396,-0.12545637157484887
1761336178215301400,6.10830126953125,-0.03555179037451744,-0.13360241475999354,-0.09599347265996039
1761336178225368300,6.118368408203125,0.017243980267643927,-0.12416121719777583,-0.11083989026658236
1761336178235434200,6.128434326171875,0.06327975525557994,-0.09630363458767532,-0.07636785795278847
1761336178245501200,6.138501220703125,0.1611187827169895,-0.05256269253864884,-0.04462079362347722
1761336178255568400,6.148568359375,0.1948515409708023,-0.0010474632263183592,-0.02317505081705749
1761336178265634000,6.158634033203125,0.031279519882798194,-0.059507104849070305,-0.07578267847597599
1761336178275701200,6.168701171875,-0.2183966672092676,-0.09232245599702,-0.1741141656294465
1761336178285767200,6.17876708984375,-0.33209260449409483,-0.09503054591193795,-0.22004348456822334
1761336178295834600,6.188834716796875,-0.3167272775799036,-0.1119203059144318,-0.2446186114415526
1761336178305901600,6.198901611328125,-0.2128852103114128,-0.14372633388936518,-0.2654984639935195
1761336178315967500,6.208967529296875,-0.07282499771416187,-0.17259484710767864,-0.22916312202587721
1761336178326034400,6.219034423828125,-0.0574783755004406,-0.15188859755694864,-0.1712247277982533
1761336178336100600,6.2291005859375,-0.18659809188842771,-0.08790639312043785,-0.09439341705217957
1761336178346167600,6.23916748046875,-0.5636819307535886,-0.01454553496390581,-0.02989982902742922
1761336178356233500,6.2492333984375,-0.6733434979557991,-0.0672523121483624,0.03204261320978403
1761336178366300700,6.25930078125,-0.4360755415380001,-0.11432985127419233,0.16469138050675391
1761336178376367600,6.26936767578125,0.000879120922088623,-0.22289558606371282,0.316221081623435
1761336178386433500,6.27943359375,0.29090017788410183,-0.29431948480829595,0.411550391286239
1761336178396500500,6.28950048828125,0.39355391215085983,-0.25611425731554627,0.28928185596726835
1761336178406566700,6.299566650390625,0.34874446408748627,-0.17887334285527468,0.011271262533590197
1761336178416633600,6.309633544921875,0.25397593011260033,-0.16713190552666782,-0.19391221429407596
1761336178426700500,6.319700439453125,0.24147359141409397,-0.15270532076731325,-0.2868886041551828
1761336178436766700,6.3297666015625,0.2980740150362253,-0.0731073217868805,-0.4025952236752957
1761336178446833700,6.339833740234375,0.35097616866230963,-0.0798515353500843,-0.42631614487208425
1761336178456899600,6.349899658203125,0.23942951836585996,-0.15125409904569387,-0.31314079739525913
1761336178466966500,6.359966552734375,0.0533259319961071,-0.22099866640120744,-0.21130926623158156
1761336178477033700,6.37003369140625,-0.06611234833300113,-0.20335545768290758,-0.10277582627646624
1761336178487099600,6.380099609375,-0.05660100814402103,-0.23916487608030437,-0.06904379867501556
1761336178497166600,6.39016650390625,-0.03363806570768356,-0.23626930076926944,0.04301766927577555
1761336178507232800,6.400232666015625,0.008528174370527266,-0.21482246198430657,0.1904668961457908
1761336178517299700,6.4102998046875,-0.08720540524423122,-0.19976868523731828,0.2227015978615731
1761336178527365400,6.420365478515625,-0.2627384977608919,-0.22455971988365053,0.19023754436932502
1761336178537432600,6.4304326171875,-0.355037426751852,-0.310349120850116,0.12261150353774428
1761336178547499800,6.440499755859375,-0.48925475853979583,-0.31972441356927156,0.193481786987558
1761336178557565400,6.4505654296875,-0.623775457188487,-0.27805384805351496,0.26455577631592747
1761336178567632400,6.46063232421875,-0.6422177073299884,-0.23218246984705326,0.21762378314062952
1761336178577698600,6.470698486328125,-0.5564969876855611,-0.19825959584861994,0.07473492298871279
1761336178587765500,6.480765625,-0.43765784229338167,-0.18958470648378134,-0.05427431876212358
1761336178597832400,6.49083251953125,-0.3638777358114719,-0.18824337487742304,-0.048780397520959376
1761336178607898400,6.5008984375,-0.34064825139343735,-0.18646189828813076,-0.022763766602426766
1761336178617965600,6.510965576171875,-0.16087912874221802,-0.0986526819318533,0.04032002768963575
1761336178628031500,6.521031494140625,0.14773323144316672,-0.1433482943572104,0.08007555336430669
1761336178638098400,6.531098388671875,-0.138898183080554,-0.32647958691790696,0.1748851500019431
1761336178648164600,6.54116455078125,-0.3680599899321794,-0.1686358803488314,0.23271774576753376
1761336178658231600,6.5512314453125,-0.3908353008419275,-0.1432720142506063,0.3012921002998948
1761336178668298500,6.561298583984375,-0.3614987317204475,-0.20911299829632043,0.36680151430368424
1761336178678364400,6.571364501953125,-0.1322276192754507,-0.18408698585033414,0.34538740874454377
1761336178688431600,6.581431640625,0.14261457325518132,-0.154425276427716,0.23925781506076454
1761336178698497500,6.59149755859375,0.3413701359272003,-0.1631378674544394,0.08145370984971523
1761336178708564500,6.601564453125,0.4994482357740402,-0.14392536359280347,-0.06968669968843459
1761336178718631400,6.61163134765625,0.5162666841059923,-0.14356953589245677,-0.17648147928267716
1761336178728697600,6.621697509765625,0.38543081144988534,-0.1344352123223245,-0.19459259777367113
1761336178738764500,6.6317646484375,0.255384627866745,-0.1660860497355461,-0.1343541099101305
1761336178748830500,6.64183056640625,0.18445581916272638,-0.17605828543454408,-0.016531740345060823
1761336178758897700,6.651897705078125,0.0029267011016607283,-0.21034633948355913,0.07142185291796922
1761336178768963600,6.661963623046875,-0.28749416883289813,-0.21097835377678273,0.128408499378711
1761336178779030500,6.672030517578125,-0.5767366426378489,-0.2033332458510995,0.16159151479527353
1761336178789097500,6.682097412109375,-0.7340688925534486,-0.15195143366008995,0.11047551393359899
1761336178799163600,6.69216357421875,-0.6214058054476976,-0.11523586020320653,0.049519087059050795
1761336178809230600,6.702230712890625,-0.2407096213042736,-0.09298033538386224,-0.0010993395440280437
1761336178819296500,6.712296630859375,0.13715280071794986,-0.08502104694247245,-0.06712167150601744
1761336178829363700,6.72236376953125,0.2813525973379612,-0.134424983189255,-0.16166224194392562
1761336178839430700,6.7324306640625,0.18108838855624199,-0.18917583342194555,-0.2365396421432495
1761336178849496600,6.74249658203125,0.03507131338119507,-0.17738412721082567,-0.21805150703340767
1761336178859563500,6.7525634765625,-0.0744832863152027,-0.13191723815202713,-0.1533700682863593
1761336178869629700,6.762629638671875,-0.11761106490194796,-0.12465966823920607,-0.11976312836930154
1761336178879696600,6.772696533203125,-0.12267886968553066,-0.12204349439144134,-0.12555121025145052
1761336178889763600,6.782763671875,-0.10155191050469875,-0.10663447446599603,-0.16427943870499728
1761336178899829500,6.79282958984375,-0.12271978621780871,-0.061692632194608445,-0.2079794642217457
1761336178909896700,6.802896728515625,-0.2681540930688381,-0.04550049906745553,-0.18456907027885316
1761336178919962600,6.812962646484375,-0.3511030099123716,0.006804127056896686,-0.1286287180006504
1761336178930029600,6.823029541015625,-0.24873802945911883,0.18234131122678518,0.043157881464064116
1761336178940095700,6.833095703125,-0.25314766259491445,0.4202953502126038,0.27232597192600366
1761336178950162700,6.84316259765625,-0.26412965985834597,0.5506497229620814,0.4368276750795543
1761336178960229600,6.853229736328125,-0.19653204140365121,0.5648939368918537,0.4208985768027603
1761336178970295600,6.863295654296875,-0.2047901666611433,0.49486719159409404,0.32087095325589177
1761336178980362800,6.87336279296875,-0.16865794605016707,0.3437168451838195,0.2688710091665387
1761336178990428400,6.883428466796875,0.003259878578782081,0.23362170886993408,0.21085911131128668
1761336179000495400,6.893495361328125,0.20880407847762106,0.050067806982994074,0.14359291676804423
1761336179010562600,6.9035625,0.3448497947365045,-0.22772987435236572,0.07106763265281915
1761336179020628500,6.91362841796875,0.37973990633189675,-0.4488298091709614,-0.06393120490163565
1761336179030695400,6.9236953125,0.3632867841809988,-0.5876099188297986,-0.2896563153028488
1761336179040761300,6.93376123046875,0.36505262480974193,-0.696760613900423,-0.5411617636486887
1761336179050828500,6.94382861328125,0.34202480044364925,-0.8744457698844372,-0.7490300225809216
1761336179060894500,6.95389453125,0.2407914543688297,-0.9816732418075204,-0.8063058612465858
1761336179070961400,6.96396142578125,0.15303952115774153,-0.9540534134760499,-0.7046487368017434
1761336179081028400,6.9740283203125,0.022157471272349356,-0.610461948237568,-0.35727906819880006
1761336179091094500,6.984094482421875,-0.02239478715956211,-0.14527341720089315,0.2271634726412594
1761336179101161500,6.994161376953125,-0.02010112326443195,-0.2085479117594659,0.4163431054554879
1761336179111227400,7.004227294921875,-0.02998597294092178,-0.14394611411988734,0.3553953002788126
1761336179121294600,7.014294677734375,-0.189374570864439,-0.1429771229572594,0.23489815854653714
1761336179131361500,7.024361572265625,-0.3392746249526739,-0.16418547681123016,0.24163813432604073
1761336179141427500,7.034427490234375,-0.39444004733562466,-0.16436331759616732,0.21433277877122162
1761336179151494400,7.044494384765625,-0.3332926279336214,-0.2078362563587725,0.12448650362938642
1761336179161560600,7.054560546875,-0.31913433872163294,-0.24314678532332182,0.06653510378971696
1761336179171627500,7.06462744140625,-0.3318272315561771,-0.2449925593204796,-0.009448504085838794
1761336179181693400,7.074693359375,-0.21762217570543288,-0.20187121047452092,-0.10030366400927304
1761336179191760600,7.0847607421875,-0.10173194324672222,-0.11715659913271664,-0.10378332281857729
1761336179201827600,7.09482763671875,-0.09806757552027702,-0.10051379962861537,-0.15559943477362392
1761336179211893500,7.1048935546875,-0.14590776958167553,-0.09351210417300462,-0.275758868984133
1761336179221960400,7.11496044921875,-0.12236848856210708,-0.05717486250922083,-0.4030497625097632
1761336179232026600,7.125026611328125,-0.06740647979676723,-0.06368760540410875,-0.40387013898193835
1761336179242093600,7.135093505859375,0.060735915991663926,-0.08498919049948453,-0.33520138416439293
1761336179252160500,7.145160400390625,0.14583996504247188,-0.0976833985082805,-0.2652959271587431
1761336179262226700,7.155226806640625,0.2048994722545147,-0.13502543330043554,-0.19953955265656112
1761336179272293600,7.165293701171875,0.25573300291299816,-0.09256839358210563,-0.11200213897898792
1761336179282359600,7.175359619140625,0.3443558737397194,-0.08593684661313891,-0.034621231526136394
1761336179292426500,7.185426513671875,0.3482517121344805,-0.13173764380142092,0.05370499444156885
1761336179302493400,7.195493408203125,0.250464707121253,-0.16573139107897877,0.1599642058543861
1761336179312559400,7.205559326171875,0.12416823146045207,-0.21807240369096398,0.20997166095227002
1761336179322626300,7.215626220703125,-0.0051209962755441665,-0.26044965617135163,0.2659263340167701
1761336179332692500,7.2256923828125,-0.09083294809162616,-0.2816872361198067,0.3577937397226691
1761336179342759400,7.235759521484375,-0.20190555113553998,-0.32203941251337526,0.37892800542712207
1761336179352825300,7.245825439453125,-0.2781891648709774,-0.26959099400416014,0.26667598334029313
1761336179362892300,7.255892333984375,-0.37506490025818345,-0.20568711550086735,0.11848287930041551
1761336179372959500,7.26595947265625,-0.3995879316180944,-0.16843422029688954,-0.015437369237095117
1761336179383025400,7.276025390625,-0.3236240513563156,-0.14408771454766392,-0.10884060620814562
1761336179393092400,7.28609228515625,-0.2799409769743681,-0.15918825304582715,-0.14522095636129378
1761336179403158500,7.296158447265625,-0.2131423999428749,-0.1774585076212883,-0.14097367418035864
1761336179413225500,7.3062255859375,-0.1881201868891716,-0.16375716839656232,-0.1243776364274323
1761336179423292400,7.31629248046875,-0.17869418689608574,-0.12719926971942186,-0.13808642830625176
1761336179433358300,7.3263583984375,-0.16418343098461627,-0.1089674474582076,-0.14740911405533552
1761336179443425500,7.336425537109375,-0.12258008548617362,-0.11066548354774713,-0.17029811447262763
1761336179453491500,7.346491455078125,-0.053338206955790515,-0.13315057933926583,-0.1442718389429152
1761336179463558400,7.356558349609375,-0.012740239107608794,-0.16288301591053603,-0.11156769308447838
1761336179473624600,7.36662451171875,-0.06537292814254761,-0.17255261540114877,-0.09254311301037668
1761336179483691500,7.37669140625,-0.10431143834590911,-0.1645500723399222,-0.10929054193273186
1761336179493758500,7.386758544921875,-0.0794505533337593,-0.18997516710609197,-0.1088749468691647
1761336179503824400,7.396824462890625,-0.003452186280488968,-0.19820158205106853,-0.09082797965556383
1761336179513891600,7.4068916015625,0.053601826328039164,-0.1937437258593738,-0.048398120205104346
1761336179523957500,7.41695751953125,0.1010749406427145,-0.16971271580010652,-0.006759411132335662
1761336179534024400,7.4270244140625,0.17411738049983977,-0.16905074476003645,-0.007195756722986698
1761336179544091400,7.43709130859375,0.20417408058941364,-0.19944266815334558,-0.043855508339405054
1761336179554157600,7.447157470703125,0.0031762919485569,-0.22481632499322293,-0.07214110710322856
1761336179564224500,7.457224609375,-0.270869781768322,-0.2544754040673375,-0.031006402029842138
1761336179574290400,7.46729052734375,-0.4442822288691997,-0.2273429208613932,0.030407413223385808
1761336179584357400,7.477357421875,-0.48703357535898684,-0.195141171567142,0.13013093925714492
1761336179594423600,7.487423583984375,-0.4577081121534109,-0.1833750381886959,0.16670549680814145
1761336179604490500,7.497490478515625,-0.2987187426805496,-0.1482192613944411,0.10518325274437665
1761336179614557400,7.507557373046875,-0.14617197347581384,-0.13408961375504733,0.06210135912597179
1761336179624623600,7.51762353515625,-0.015695581781864164,-0.1517998963601887,-0.01769596181884408
1761336179634690600,7.527690673828125,0.09753332251310348,-0.1499237272247672,-0.11802081474661827
1761336179644756200,7.537756103515625,0.20094518167078493,-0.16218290481716394,-0.1848474488288164
1761336179654823400,7.547823486328125,0.22393325854837892,-0.16684505140930414,-0.14915186606943606
1761336179664890600,7.557890625,0.07043781031668185,-0.16117431229650972,-0.0506472143061459
1761336179674956300,7.567956298828125,-0.08145897054672241,-0.16203794338852165,-0.004567307915538549
1761336179685023500,7.5780234375,-0.14477847329080104,-0.14647373290136456,-0.04709390573874116
1761336179695089400,7.58808935546875,-0.14933949759602547,-0.1371659524604678,-0.06322802506834269
1761336179705156400,7.59815625,-0.1911918494194746,-0.11800079487189649,-0.02691664849817753
1761336179715222300,7.60822216796875,-0.19251228436827658,-0.09769918059930205,-0.011410597939044236
1761336179725289500,7.61828955078125,-0.10994272223114966,-0.100368107547611,-0.007673311106860637
1761336179735356400,7.6283564453125,-0.03886076879203319,-0.13001082000881434,0.025939620159566402
1761336179745422300,7.63842236328125,-0.022664251750707624,-0.1547249900266528,0.021686931151151657
1761336179755489300,7.6484892578125,-0.0857113672941923,-0.13280205816254018,-0.047725043249130246
1761336179765555500,7.658555419921875,-0.1593587873071432,-0.09393208315074443,-0.07790610037073492
1761336179775622400,7.668622314453125,-0.19813947660028933,-0.08105404300764203,-0.09019611149281263
1761336179785689300,7.678689453125,-0.1762292580872774,-0.08848886918351054,-0.10159764934256672
1761336179795755300,7.68875537109375,-0.07617372362017631,-0.1037125956699252,-0.11525646459981799
1761336179805822500,7.698822509765625,0.01495382350385189,-0.1539426074773073,-0.10798208968266844
1761336179815888400,7.708888427734375,0.0572995118021965,-0.19138313420787453,-0.08721373468115926
1761336179825955300,7.718955322265625,0.00019698387682437897,-0.19177695583105087,-0.0718752957738936
1761336179836021500,7.729021484375,-0.220335526317358,-0.1806327537432313,0.009660101009905338
1761336179846088400,7.73908837890625,-0.2997778963446617,-0.1722793514177203,0.09605696635022759
1761336179856155400,7.7491552734375,-0.2893260604351759,-0.15431100239828227,0.16168810703754424
1761336179866221300,7.75922119140625,-0.2219792018711567,-0.1637031001217663,0.21931232074946164
1761336179876288500,7.76928857421875,-0.09066285222172736,-0.1595423271805048,0.17461597767174242
1761336179886354400,7.7793544921875,0.045998950108885765,-0.19597060812860725,0.06562412642464041
1761336179896421400,7.78942138671875,0.14393793081343173,-0.20900924566090107,-0.023989509005099535
1761336179906488300,7.79948828125,0.08818974010646342,-0.20805340624079108,-0.07059490057453513
1761336179916554500,7.809554443359375,-0.05416764351725578,-0.2076924639739096,-0.08834069288447499
1761336179926621400,7.819621337890625,-0.1590022289544344,-0.19079042901173232,-0.12013429976925254
1761336179936687400,7.829687255859375,-0.1511976926833391,-0.14976561405360697,-0.07127309209704398
1761336179946754600,7.839754638671875,-0.07517945188581943,-0.1388989137329161,-0.015681991647928953
1761336179956820500,7.849820556640625,-0.011290624821186064,-0.1495326820805669,-0.01699482781216502
1761336179966887400,7.859887451171875,0.017069208222627637,-0.12219050164669751,-0.04479454275518655
1761336179976954400,7.869954345703125,0.007534487158060073,-0.1266346215739846,-0.07653671171367168
1761336179987020500,7.8800205078125,-0.052360886356234544,-0.16898659348264336,-0.10871274204477667
1761336179997087500,7.89008740234375,-0.08833645510077476,-0.19277648826241492,-0.07779211860224604
1761336180007153400,7.9001533203125,-0.10119827476143836,-0.17855170968547462,0.018526859685033557
1761336180017220600,7.910220703125,-0.11222060403525828,-0.18327669238075614,0.04731251692548394
1761336180027287600,7.92028759765625,-0.1060544826209545,-0.16095964663252232,0.00966565396785736
1761336180037353500,7.930353515625,-0.10317746587991714,-0.13591317592039703,0.0021617080785334107
1761336180047420400,7.94042041015625,-0.12100655255913734,-0.14028627643808722,0.009052490505576133
1761336180057486600,7.950486572265625,-0.11594225490689276,-0.1591467519916594,-0.009157119923830032
1761336180067553500,7.960553466796875,-0.10952888073325157,-0.19831877868995068,-0.0018652093499898909
1761336180077619200,7.970619140625,-0.0977326444774866,-0.20567893219441175,0.026718495577573775
1761336180087686700,7.980686767578125,-0.12808277455568312,-0.19202552376464008,0.015302929202467203
1761336180097753600,7.990753662109375,-0.1760977406620979,-0.17130363825336098,-0.0008263678215444087
1761336180107819300,8.0008193359375,-0.16156301935315132,-0.14101006066799163,-0.010964315476268529
1761336180117886500,8.010886474609375,-0.09418284304141998,-0.1440491361029446,0.005599427442252635
1761336180127952400,8.020952392578126,0.023268062862753867,-0.155007167968899,0.04209492840766906
1761336180138019300,8.031019287109375,0.09895487974882125,-0.15596534547656773,0.0986580887593329
1761336180148086300,8.041086181640624,0.0734820003181696,-0.15998144925013183,0.12111527363061904
1761336180158152400,8.05115234375,0.011798574343323707,-0.15903218570128083,0.09333806278035044
1761336180168219400,8.061219482421874,-0.03890753054320812,-0.18256342954486607,0.0897476370729506
1761336180178285300,8.071285400390625,-0.05874444991350174,-0.19603315197080373,0.11729337725490331
1761336180188352300,8.081352294921874,-0.06052841072082519,-0.17022490310594438,0.1121620057158172
1761336180198419500,8.09141943359375,-0.05470774174332618,-0.17256372131705283,0.06344634399414062
1761336180208485400,8.1014853515625,-0.06450549765825271,-0.18115970022678374,0.01747252832651138
1761336180218552300,8.11155224609375,-0.08968202449083328,-0.1600933851920068,-0.044404666654765605
1761336180228618500,8.121618408203124,-0.13079378708004952,-0.14481632108315826,-0.08072758753225207
1761336180238685400,8.131685546875,-0.1931862381070852,-0.14484467039480806,-0.0957917395427823
1761336180248751400,8.14175146484375,-0.19390052385628223,-0.150494805110991,-0.07731105708703398
1761336180258818300,8.151818359375,-0.14281389521956442,-0.16514058557897804,-0.05726473274976015
1761336180268885200,8.16188525390625,-0.085154317933321,-0.17087942149192092,-0.04342880735993385
1761336180278951400,8.171951416015625,-0.02697100903391838,-0.15713526603877542,-0.037481443262845276
1761336180289018400,8.182018310546875,0.008779518783092499,-0.13573562739640474,-0.06086787180826068
1761336180299084300,8.192084228515625,0.02016483615040779,-0.12972425815239547,-0.06739712744653224
1761336180309151200,8.202151123046875,-0.02060615017712116,-0.12638985303267836,-0.06173325646594166
1761336180319218200,8.21221826171875,-0.084234865000844,-0.12785057323500512,-0.07407455938383936
1761336180329284000,8.2222841796875,-0.17864625610113144,-0.11657952989712357,-0.08852510954067111
1761336180339351300,8.232351318359376,-0.22496610872745512,-0.11546426213160156,-0.09899009719267488
1761336180349417200,8.242417236328125,-0.19251169984638689,-0.126765408346802,-0.13361176711022854
1761336180359484200,8.252484130859376,-0.09832768776118755,-0.12255918882861733,-0.17843027526289224
1761336180369550300,8.26255029296875,0.0006786299139261245,-0.11495353613048791,-0.18435981144234537
1761336180379617300,8.2726171875,0.029555764830112456,-0.13094006368294359,-0.1602045904815197
1761336180389684200,8.282684326171875,-0.027005495825409887,-0.13087605853602288,-0.15447028461322188
1761336180399750100,8.292750244140626,-0.13714111028015613,-0.14103665641397237,-0.12004852118194102
1761336180409817300,8.3028173828125,-0.16459084274172783,-0.1602208109639585,-0.06833484668806195
1761336180419883300,8.31288330078125,-0.09414601816236973,-0.19330095052793622,0.022320406749099492
1761336180429950200,8.3229501953125,0.03153378690481186,-0.22159473259821533,0.12145458858758211
1761336180440017200,8.33301708984375,0.11474924573004246,-0.21214374429434538,0.1816920535378158
1761336180450083300,8.343083251953125,0.08138239817917346,-0.20973098406419158,0.19265563836172223
1761336180460150300,8.353150390625,-0.016276012018322943,-0.17844591122344136,0.1765082211591303
1761336180470216200,8.36321630859375,-0.11397183161675929,-0.15044190587997436,0.14110665291026234
1761336180480283100,8.373283203125,-0.16251169838011265,-0.14367942600771785,0.09184680130928755
1761336180490349300,8.383349365234375,-0.13579963254332542,-0.17574907335489987,0.025939912420511243
1761336180500416300,8.393416259765624,-0.07790157032608985,-0.18620996935367584,-0.03217807615771889
1761336180510483200,8.403483154296875,-0.12927169207930564,-0.1774187601327896,-0.023852877013385294
1761336180520549400,8.41354931640625,-0.2534311557114124,-0.1367905432768166,-0.0019609248094260693
1761336180530616300,8.4236162109375,-0.32694588925540446,-0.15243600230664014,-0.023978256958723066
1761336180540682200,8.43368212890625,-0.26086685867011544,-0.17317293925657867,-0.0009223755419254302
1761336180550749200,8.443749267578125,-0.14810498736500738,-0.17252105121910571,0.007762012303620576
1761336180560816400,8.45381640625,-0.010405658680200576,-0.17679449075460432,-0.025349691442400214
1761336180570882300,8.46388232421875,0.11290917082130908,-0.20555004511773586,-0.09422054470330476
1761336180580949200,8.47394921875,0.17924656008183956,-0.21228417567834257,-0.12141864049136637
1761336180591015200,8.48401513671875,0.14840192448496817,-0.19218392919674515,-0.08583587045669555
1761336180601082400,8.494082275390625,0.01858896513581276,-0.16134572334066033,-0.06824161544665694
1761336180611148000,8.50414794921875,-0.09214812234342097,-0.14442965985313058,-0.08781389253139495
1761336180621215200,8.51421533203125,-0.14592939689159393,-0.10412935977727174,-0.09465528285875915
1761336180631282400,8.524282470703126,-0.18626959058642387,-0.059669601934403176,-0.08932809648662805
1761336180641348000,8.53434814453125,-0.1734276446700096,-0.06776990628167986,-0.09914601840674876
1761336180651415000,8.5444150390625,-0.10749942073225974,-0.09308964097723364,-0.14424378189221024
1761336180661481200,8.554481201171875,-0.06644435676634311,-0.11037541455999016,-0.18206687819957731
1761336180671548200,8.564548095703126,-0.06429390073418617,-0.13326295367255805,-0.14020181302502752
1761336180681615000,8.574614990234375,0.015841712254285812,-0.15356193759664893,-0.11741963398307562
1761336180691681000,8.584680908203126,0.12540332621335984,-0.15818711317926645,-0.11412789896130561
1761336180701748200,8.594748291015625,0.0994143139541149,-0.18279212373420595,-0.0816533240750432
1761336180711814100,8.604814208984376,0.013760814327001571,-0.15943799002319572,-0.012986322823166847
1761336180721881000,8.614881103515625,-0.13005962758660317,-0.1497758431866765,0.040043402705341576
1761336180731947300,8.624947265625,-0.19420564428269863,-0.14018807676061987,-0.001875146222114563
1761336180742014200,8.63501416015625,-0.32086335447132586,-0.14560893276557327,0.07420943780988454
1761336180752081200,8.6450810546875,-0.27381226496100425,-0.17718144424557686,0.16947671508714557
1761336180762147000,8.65514697265625,0.008750292688608169,-0.15484744736254213,0.08660926598198711
1761336180772214300,8.66521435546875,0.18429332207739352,-0.13537614643424747,-0.16585720941573381
1761336180782280200,8.6752802734375,0.5094359613031149,0.11332067423164843,-0.3186967510219663
1761336180792347100,8.68534716796875,0.19665011482536793,-0.05404664748609066,0.12396518316902219
1761336180802414000,8.6954140625,-0.3024947540879249,-0.23438509445786473,0.06590060527846217
1761336180812480300,8.705480224609374,-0.5458318012863397,-0.13470569982677696,-0.45772155615687365
1761336180822547200,8.715547119140625,-0.44364100835621356,-0.09457812596932053,-0.612332345219329
1761336180832613000,8.725613037109374,-0.261979203826189,-0.22729119067415593,-0.33131701701171695
1761336180842680300,8.735680419921875,-0.06885375599563122,-0.25196722063869237,-0.0736643711477518
1761336180852747300,8.745747314453125,0.03561082708537578,-0.26134602048918604,0.028655747250467538
1761336180862813200,8.755813232421875,-0.03952186304926872,-0.18802286399453877,0.15135719409398735
1761336180872880000,8.765880126953125,-0.280946354624629,-0.12319997095018624,0.19135346972197292
