time,seconds_elapsed,z,y,x
1761336172165283800,0.058283935546875,0.3552633225917816,-0.19166836142539978,0.675739586353302
1761336172175350800,0.068350830078125,0.33935117721557617,-0.07732928544282913,0.4607577919960022
1761336172185418000,0.07841796875,0.3426678776741028,0.056413836777210236,0.20633210241794586
1761336172195484000,0.08848388671875,0.38064587116241455,0.19514669477939606,-0.056526411324739456
1761336172205550800,0.09855078125,0.4242291748523712,0.33347266912460327,-0.27198129892349243
1761336172215617000,0.108616943359375,0.4690922498703003,0.4515804052352905,-0.41666579246520996
1761336172225684000,0.11868408203125,0.5065194368362427,0.5263456702232361,-0.49509426951408386
1761336172235750000,0.12875,0.5452479720115662,0.5439710021018982,-0.5303505063056946
1761336172245816800,0.13881689453125,0.5961486101150513,0.45442381501197815,-0.5741292834281921
1761336172255884000,0.148884033203125,0.6654453873634338,0.2871592044830322,-0.6185444593429565
1761336172265950000,0.158949951171875,0.7321743965148926,0.047148991376161575,-0.640596330165863
1761336172276017000,0.169016845703125,0.7659606337547302,-0.1884440928697586,-0.6046686768531799
1761336172286083000,0.1790830078125,0.7617478370666504,-0.3454531133174896,-0.5233039855957031
1761336172296151000,0.189151123046875,0.7185098528862,-0.40439313650131226,-0.41166210174560547
1761336172306217200,0.19921728515625,0.6920956373214722,-0.3522229492664337,-0.332943856716156
1761336172316284200,0.2092841796875,0.7157130837440491,-0.2115902155637741,-0.39621415734291077
1761336172326351000,0.21935107421875,0.6878100037574768,-0.020736657083034515,-0.5519071221351624
1761336172336417300,0.229417236328125,0.6088669896125793,0.12375953793525696,-0.7392325401306152
1761336172346484200,0.239484130859375,0.5164026618003845,0.16104482114315033,-0.8724867105484009
1761336172356550000,0.2495498046875,0.39206236600875854,0.14581818878650665,-0.8704853653907776
1761336172366617000,0.2596171875,0.23192596435546875,0.0980280339717865,-0.7223923206329346
1761336172376684300,0.269684326171875,0.07660400867462158,0.05097104609012604,-0.44062748551368713
1761336172386750000,0.27975,-0.004035454709082842,0.03171636164188385,-0.08374395966529846
1761336172396817200,0.289817138671875,-0.006978780496865511,0.011951444670557976,0.21968328952789307
1761336172406883000,0.299883056640625,0.05650925636291504,0.011702010408043861,0.3636281490325928
1761336172416950000,0.309949951171875,0.12542599439620972,0.10941258817911148,0.39106428623199463
1761336172427016000,0.320015869140625,0.1722882241010666,0.2438708394765854,0.35901185870170593
1761336172437083000,0.330082763671875,0.20742011070251465,0.42590802907943726,0.2973167896270752
1761336172447150000,0.340150146484375,0.2766074240207672,0.5674973726272583,0.26710376143455505
1761336172457216000,0.350216064453125,0.382607102394104,0.6031219363212585,0.250139445066452
1761336172467283000,0.360282958984375,0.4741601347923279,0.6465314626693726,0.16062377393245697
1761336172477349000,0.37034912109375,0.5023424625396729,0.621834933757782,0.151019886136055
1761336172487416000,0.380416015625,0.4687272608280182,0.4863593578338623,0.1713954210281372
1761336172497483000,0.39048291015625,0.4395392835140228,0.35628417134284973,0.16881056129932404
1761336172507549000,0.400548828125,0.4313927888870239,0.2719295918941498,0.16924041509628296
1761336172517616000,0.4106162109375,0.439046174287796,0.1447165310382843,0.1506456881761551
1761336172527682000,0.42068212890625,0.48083773255348206,-0.016199348494410515,0.1141020804643631
1761336172537749000,0.4307490234375,0.5398944020271301,-0.13422346115112305,0.0804905891418457
1761336172547815200,0.440815185546875,0.5819515585899353,-0.19489383697509766,0.05565723031759262
1761336172557882000,0.450882080078125,0.6102955937385559,-0.1967039853334427,0.032326072454452515
1761336172567949000,0.460948974609375,0.6067277789115906,-0.1981954574584961,0.0018841251730918884
1761336172578015000,0.471014892578125,0.5971539616584778,-0.2300734966993332,-0.013967009261250496
1761336172588082200,0.481082275390625,0.6021664142608643,-0.2893889844417572,-0.01292504370212555
1761336172598148000,0.491148193359375,0.6129905581474304,-0.34490683674812317,0.017983868718147278
1761336172608215000,0.501215087890625,0.6080580353736877,-0.39793461561203003,0.05535373464226723
1761336172618282000,0.511281982421875,0.5337276458740234,-0.4716932475566864,0.08671298623085022
1761336172628348200,0.52134814453125,0.39928489923477173,-0.5347385406494141,0.10019458085298538
1761336172638415000,0.5314150390625,0.2695905566215515,-0.546172022819519,0.09417131543159485
1761336172648481000,0.54148095703125,0.17801827192306519,-0.5175543427467346,0.0679784044623375
1761336172658548200,0.55154833984375,0.12936711311340332,-0.44564443826675415,0.041099920868873596
1761336172668614100,0.5616142578125,0.10797687619924545,-0.33560264110565186,0.011189427226781845
1761336172678681000,0.57168115234375,0.09041810035705566,-0.18845424056053162,-0.0318390354514122
1761336172688748000,0.581748046875,0.06665743142366409,-0.026939205825328827,-0.08860645443201065
1761336172698814200,0.591814208984375,0.0010773558169603348,0.059524308890104294,-0.0914728119969368
1761336172708881200,0.601881103515625,-0.06555330753326416,0.06019589677453041,-0.044230926781892776
1761336172718947000,0.611947021484375,-0.09474341571331024,0.05432682856917381,-0.025128602981567383
1761336172729014300,0.62201416015625,-0.0937115028500557,0.034549396485090256,-0.06245827302336693
1761336172739080200,0.632080078125,-0.07063014805316925,0.0034913448616862297,-0.12260337173938751
1761336172749147100,0.642147216796875,-0.03484949842095375,-0.016186721622943878,-0.18646593391895294
1761336172759214000,0.652214111328125,-0.014215061441063881,-0.047050364315509796,-0.23999173939228058
1761336172769280300,0.6622802734375,-0.005047360435128212,-0.07877273112535477,-0.2567393481731415
1761336172779347200,0.67234716796875,0.003386338474228978,-0.08903495222330093,-0.23864635825157166
1761336172789412900,0.682412841796875,0.023897169157862663,-0.09320534020662308,-0.19661498069763184
1761336172799480300,0.692480224609375,0.038285162299871445,-0.10089628398418427,-0.15330159664154053
1761336172809547300,0.70254736328125,0.04000557214021683,-0.0852527916431427,-0.10733421891927719
1761336172819613000,0.712613037109375,0.049792688339948654,-0.041643258184194565,-0.05684387683868408
1761336172829680000,0.72268017578125,0.06355972588062286,-0.015816139057278633,-0.019283507019281387
1761336172839746000,0.73274609375,0.09190641343593597,-0.020947517827153206,0.003162679262459278
1761336172849813000,0.74281298828125,0.11829012632369995,-0.008019503206014633,0.019927386194467545
1761336172859879000,0.75287890625,0.13711413741111755,0.010903321206569672,0.03091692179441452
1761336172869946000,0.762946044921875,0.13756991922855377,-0.00968659296631813,0.025433076545596123
1761336172880013000,0.773012939453125,0.14090420305728912,-0.040220268070697784,0.007410135120153427
1761336172890079000,0.783078857421875,0.14869724214076996,-0.06128263100981712,-0.015571742318570614
1761336172900146000,0.79314599609375,0.1578124314546585,-0.06867502629756927,-0.027343180030584335
1761336172910212000,0.803212158203125,0.1520300656557083,-0.06130646541714668,-0.03195500001311302
1761336172920279000,0.813279052734375,0.13919124007225037,-0.04058068245649338,-0.02563212439417839
1761336172930346000,0.823345947265625,0.10822757333517075,-0.028041407465934753,-0.0199354849755764
1761336172940412200,0.833412109375,0.06951507180929184,-0.018581058830022812,-0.013140428811311722
1761336172950479000,0.84347900390625,0.04217467084527016,-0.006022646091878414,-0.016691505908966064
1761336172960545000,0.853544921875,0.023200983181595802,0.012037048116326332,-0.015571648254990578
1761336172970612000,0.863612060546875,0.027244288474321365,0.047778673470020294,-0.030364345759153366
1761336172980678100,0.87367822265625,0.030568977817893028,0.06989782303571701,-0.05511123687028885
1761336172990745000,0.8837451171875,0.043088607490062714,0.07079561799764633,-0.07983268797397614
1761336173000812000,0.89381201171875,0.06147400662302971,0.04213521629571915,-0.09238683432340622
1761336173010878200,0.903878173828125,0.08866119384765625,0.012008615769445896,-0.08608956634998322
1761336173020945200,0.913945068359375,0.11321074515581131,-0.0017956122756004333,-0.05718814209103584
1761336173031011000,0.924010986328125,0.12665896117687225,-0.019033996388316154,-0.022081676870584488
1761336173041078000,0.934078125,0.12742115557193756,-0.03074285015463829,-0.002411301713436842
1761336173051145000,0.94414501953125,0.12526527047157288,-0.021080628037452698,-0.0010015685111284256
1761336173061211100,0.954211181640625,0.13341906666755676,0.008987260051071644,-0.019247684627771378
1761336173071278000,0.964278076171875,0.15478995442390442,0.04452991485595703,-0.04140245541930199
1761336173081344000,0.974343994140625,0.17513516545295715,0.06617902219295502,-0.060649920254945755
1761336173091411200,0.9844111328125,0.18298450112342834,0.030430138111114502,-0.06853555887937546
1761336173101477000,0.99447705078125,0.18305614590644836,-0.01705349236726761,-0.05620405822992325
1761336173111544000,1.0045439453125,0.1765628457069397,-0.05289649963378906,-0.03264399617910385
1761336173121611000,1.014611083984375,0.17075182497501373,-0.06765414029359818,-0.014078034088015556
1761336173131677200,1.02467724609375,0.1668117344379425,-0.05485650524497032,0.0057060858234763145
1761336173141744000,1.034744140625,0.1670610010623932,-0.040125228464603424,0.04489290341734886
1761336173151810000,1.04481005859375,0.16397200524806976,-0.034361883997917175,0.09771670401096344
1761336173161877200,1.054877197265625,0.16287317872047424,-0.026983592659235,0.14544986188411713
1761336173171944200,1.064944091796875,0.17327891290187836,-0.02689886838197708,0.1574893742799759
1761336173182010000,1.075010009765625,0.18283966183662415,-0.03464307636022568,0.14111760258674622
1761336173192077000,1.0850771484375,0.18701514601707458,-0.028627105057239532,0.08724737912416458
1761336173202143200,1.095143310546875,0.20009686052799225,-0.0007033292204141617,0.025037534534931183
1761336173212210200,1.105210205078125,0.20933589339256287,0.008094157092273235,-0.02400936931371689
1761336173222276000,1.115276123046875,0.2148883193731308,0.015484428964555264,-0.05098559707403183
1761336173232343300,1.12534326171875,0.21646006405353546,0.012817460112273693,-0.04764841869473457
1761336173242410200,1.13541015625,0.21774956583976746,0.0015461631119251251,-0.03786742687225342
1761336173252476000,1.145475830078125,0.2081746608018875,-0.021099727600812912,-0.02328646183013916
1761336173262543000,1.155543212890625,0.18177394568920135,-0.07387638837099075,-0.00866597332060337
1761336173272609000,1.165609130859375,0.14728087186813354,-0.13631165027618408,-0.003106155898422003
1761336173282676000,1.175676025390625,0.11132659763097763,-0.15881562232971191,0.007498285733163357
1761336173292742100,1.1857421875,0.09957490861415863,-0.13492336869239807,-0.010464361868798733
1761336173302808300,1.195808349609375,0.0999741181731224,-0.09891398251056671,-0.029388783499598503
1761336173312875300,1.205875244140625,0.10696310549974442,-0.065829798579216,-0.039872441440820694
1761336173322941200,1.215941162109375,0.1069929376244545,-0.051091067492961884,-0.04274812340736389
1761336173333008400,1.22600830078125,0.10001377761363983,-0.03175920248031616,-0.04992897808551788
1761336173343074300,1.23607421875,0.08684178441762924,-0.02102719619870186,-0.06078828498721123
1761336173353141200,1.246141357421875,0.07229877263307571,-0.01855643279850483,-0.07107892632484436
1761336173363208200,1.256208251953125,0.05758880078792572,-0.018902909010648727,-0.07304593920707703
1761336173373274400,1.2662744140625,0.036978188902139664,-0.04178205132484436,-0.08220091462135315
1761336173383341300,1.27634130859375,0.016702480614185333,-0.07524386793375015,-0.0864366739988327
1761336173393407200,1.2864072265625,0.0005204803310334682,-0.07438256591558456,-0.09227750450372696
1761336173403474400,1.296474365234375,-0.021815184503793716,-0.059268590062856674,-0.07966290414333344
1761336173413541400,1.306541259765625,-0.038307733833789825,-0.03170308843255043,-0.05889575183391571
1761336173423607300,1.316607177734375,-0.04562796279788017,0.01806500181555748,-0.01387767493724823
1761336173433674200,1.32667431640625,-0.03875900059938431,0.05852571502327919,0.02447524666786194
1761336173443740400,1.336740478515625,-0.015440361574292183,0.06527523696422577,0.04078817367553711
1761336173453807400,1.346807373046875,0.004208285361528397,0.04732222110033035,0.02493557706475258
1761336173463873300,1.356873291015625,0.02427440509200096,0.013435893692076206,0.004534166306257248
1761336173473940500,1.3669404296875,0.032483648508787155,-0.015764808282256126,-0.012480778619647026
1761336173484007400,1.37700732421875,0.04067579656839371,-0.028741592541337013,0.0016709929332137108
1761336173494073300,1.3870732421875,0.04570891708135605,-0.03709921985864639,0.0162489116191864
1761336173504140300,1.397140380859375,0.04732572287321091,-0.03788591921329498,0.028805449604988098
1761336173514206500,1.40720654296875,0.05189601331949234,-0.013967039994895458,0.04304947704076767
1761336173524273400,1.4172734375,0.05007574334740639,0.006658609956502914,0.05043788254261017
1761336173534340400,1.42734033203125,0.06134457141160965,0.011778019368648529,0.05869840458035469
1761336173544406500,1.437406494140625,0.07755442708730698,0.003638600930571556,0.06672623753547668
1761336173554473500,1.447473388671875,0.08980319648981094,0.001087491400539875,0.09623374789953232
1761336173564539100,1.4575390625,0.09436359256505966,0.004409251734614372,0.11722531169652939
1761336173574606300,1.4676064453125,0.08831100910902023,0.01009507104754448,0.11041318625211716
1761336173584672300,1.47767236328125,0.09212066233158112,0.024255631491541862,0.09488295763731003
1761336173594739200,1.4877392578125,0.0960576981306076,0.027800343930721283,0.07893989235162735
1761336173604806100,1.49780615234375,0.09789128601551056,0.014525286853313446,0.06375960260629654
1761336173614872300,1.507872314453125,0.10107363015413284,-0.004553166218101978,0.05156691372394562
1761336173624939300,1.517939208984375,0.10945752263069153,-0.016342978924512863,0.03576824069023132
1761336173635005200,1.528005126953125,0.11135199666023254,-0.028238214552402496,0.01232764683663845
1761336173645072100,1.538072021484375,0.10969444364309311,-0.036058321595191956,0.0005250498652458191
1761336173655139300,1.548139404296875,0.11862227320671082,-0.0351087749004364,-0.012074071913957596
1761336173665205200,1.558205322265625,0.1246388852596283,-0.043674565851688385,-0.003938114736229181
1761336173675272200,1.568272216796875,0.12238441407680511,-0.0366545170545578,0.018202733248472214
1761336173685338400,1.57833837890625,0.1104651689529419,-0.024629544466733932,0.04615074396133423
1761336173695405300,1.5884052734375,0.1045188158750534,-0.02529831789433956,0.05990917235612869
1761336173705471200,1.59847119140625,0.10959053784608841,-0.024645578116178513,0.06750903278589249
1761336173715538200,1.6085380859375,0.10037948191165924,-0.03502859175205231,0.07675012201070786
1761336173725605400,1.61860546875,0.08396695554256439,-0.03490715101361275,0.07261503487825394
1761336173735671300,1.62867138671875,0.06735126674175262,-0.012977385893464088,0.07577046006917953
1761336173745738200,1.63873828125,0.07187119126319885,0.007630153559148312,0.0769057646393776
1761336173755804400,1.648804443359375,0.07232509553432465,0.003856413997709751,0.08636636286973953
1761336173765871400,1.658871337890625,0.046798158437013626,-0.0062857018783688545,0.08813736587762833
1761336173775938300,1.668938232421875,0.027561001479625702,0.013460461050271988,0.07881250977516174
1761336173786004200,1.679004150390625,0.042743947356939316,0.0244904737919569,0.06752283871173859
1761336173796071200,1.6890712890625,0.04885921999812126,0.006303025409579277,0.051207683980464935
1761336173806137300,1.699137451171875,0.03482196480035782,0.004784224554896355,0.05089849233627319
1761336173816204300,1.709204345703125,0.0200762040913105,0.0203519519418478,0.056574348360300064
1761336173826270500,1.7192705078125,0.032501447945833206,0.05831584334373474,0.03543790429830551
1761336173836337400,1.72933740234375,0.0523592047393322,0.11394904553890228,0.00727392453700304
1761336173846404400,1.739404296875,0.08314988017082214,0.1570938527584076,-0.012332800775766373
1761336173856470300,1.74947021484375,0.12937845289707184,0.17449623346328735,-0.026479260995984077
1761336173866537200,1.759537109375,0.235071063041687,0.29929545521736145,-0.24549444019794464
1761336173876603400,1.769603271484375,0.2649303674697876,0.3933489918708801,-0.34536120295524597
1761336173886670300,1.77967041015625,0.3046839237213135,0.43647730350494385,-0.36411598324775696
1761336173896737300,1.7897373046875,0.3521268367767334,0.44190147519111633,-0.30171605944633484
1761336173906803500,1.799803466796875,0.38923823833465576,0.43231064081192017,-0.19500747323036194
1761336173916870400,1.809870361328125,0.41497451066970825,0.4203835427761078,-0.05021033436059952
1761336173926936300,1.819936279296875,0.4209098815917969,0.4060000777244568,0.11425717175006866
1761336173937003300,1.830003173828125,0.4216351807117462,0.3830265998840332,0.2658049464225769
1761336173947069400,1.8400693359375,0.4368138909339905,0.37853384017944336,0.34034842252731323
1761336173957136400,1.850136474609375,0.44973447918891907,0.349858820438385,0.485612154006958
1761336173967203300,1.860203369140625,0.5170539021492004,0.29220306873321533,0.5297440886497498
1761336173977269500,1.87026953125,0.5528374910354614,0.19445320963859558,0.6124200224876404
1761336173987336400,1.88033642578125,0.5801937580108643,0.06294605135917664,0.6679184436798096
1761336173997402000,1.890402099609375,0.590903639793396,-0.04983656480908394,0.6878481507301331
1761336174007469300,1.90046923828125,0.5802267789840698,-0.10450514405965805,0.635779082775116
1761336174017536500,1.91053662109375,0.5527215003967285,-0.1682794839143753,0.5293394923210144
1761336174027602200,1.920602294921875,0.4966829717159271,-0.2141718715429306,0.39456862211227417
1761336174037669400,1.93066943359375,0.41103595495224,-0.24979540705680847,0.26408329606056213
1761336174047735300,1.9407353515625,0.31125903129577637,-0.260881632566452,0.13783428072929382
1761336174057802200,1.95080224609375,0.2615490257740021,-0.17755615711212158,-0.0019110264256596565
1761336174067868200,1.9608681640625,0.2526050806045532,-0.10869214683771133,-0.0952574834227562
1761336174077935000,1.97093505859375,0.3032679557800293,-0.0020845895633101463,-0.15389248728752136
1761336174088002300,1.981002197265625,0.3720342516899109,0.2629374861717224,-0.31395217776298523
1761336174098068200,1.991068115234375,0.3204492926597595,0.3919796645641327,-0.32591575384140015
1761336174108135200,2.00113525390625,0.2843210995197296,0.582909107208252,-0.3874973654747009
1761336174118201300,2.011201416015625,0.20729511976242065,0.6893805265426636,-0.4070552885532379
1761336174128268300,2.021268310546875,0.11961400508880615,0.5870347023010254,-0.24436889588832855
1761336174138335200,2.031335205078125,0.1080455556511879,0.49802741408348083,-0.18409451842308044
1761336174148401200,2.041401123046875,0.11749498546123505,0.453377366065979,-0.11633782833814621
1761336174158468400,2.05146826171875,0.17945626378059387,0.42825743556022644,-0.1984449028968811
1761336174168534300,2.0615341796875,0.19431644678115845,0.42140698432922363,-0.37451446056365967
1761336174178601200,2.071601318359375,0.17513838410377502,0.40107953548431396,-0.5571616888046265
1761336174188667400,2.08166748046875,0.16130779683589935,0.36268875002861023,-0.6997364163398743
1761336174198734300,2.091734375,0.1367875039577484,0.35036081075668335,-0.7667955160140991
1761336174208801300,2.10180126953125,0.08637785166501999,0.3594541847705841,-0.7722219228744507
1761336174218867200,2.1118671875,0.022234167903661728,0.3712056577205658,-0.7330136299133301
1761336174228934400,2.121934326171875,-0.06020904704928398,0.34506914019584656,-0.6325698494911194
1761336174239000300,2.132000244140625,-0.13926127552986145,0.3378111720085144,-0.5124936699867249
1761336174249067300,2.1420673828125,-0.204281285405159,0.36217936873435974,-0.39591890573501587
1761336174259134200,2.15213427734375,-0.24895882606506348,0.4302196800708771,-0.30973783135414124
1761336174269200400,2.162200439453125,-0.29274678230285645,0.45159605145454407,-0.1964389979839325
1761336174279267300,2.172267333984375,-0.3292906582355499,0.4307778477668762,-0.06637994945049286
1761336174289333200,2.182333251953125,-0.3687845468521118,0.3478690981864929,0.0937841534614563
1761336174299400400,2.192400390625,-0.38881051540374756,0.17958854138851166,0.21579186618328094
1761336174309466400,2.20246630859375,-0.3647725582122803,0.014115169644355774,0.260261595249176
1761336174319533300,2.212533203125,-0.3125389516353607,0.01626553013920784,0.1607755422592163
1761336174329600300,2.222600341796875,-0.2796076238155365,0.23152457177639008,-0.13944342732429504
1761336174339666400,2.23266650390625,-0.2758086025714874,0.308784157037735,-0.4358374774456024
1761336174349733400,2.2427333984375,-0.29391756653785706,0.32224297523498535,-0.6039127707481384
1761336174359799300,2.25279931640625,-0.31849804520606995,0.3594781756401062,-0.6459574103355408
1761336174369866500,2.262866455078125,-0.3530677556991577,0.3455927073955536,-0.5908148288726807
1761336174379933400,2.272933349609375,-0.37728604674339294,0.33692511916160583,-0.4845336377620697
1761336174389999400,2.282999267578125,-0.3839777708053589,0.40835481882095337,-0.3775957524776459
1761336174400066300,2.29306640625,-0.32176390290260315,0.908019483089447,-0.6505632400512695
1761336174410132500,2.303132568359375,-0.4083611071109772,0.827623188495636,-0.724737823009491
1761336174420199400,2.313199462890625,-0.43067243695259094,0.43164846301078796,-0.5592526197433472
1761336174430265300,2.323265380859375,-0.3781746029853821,-0.006744340993463993,-0.21499189734458923
1761336174440332300,2.333332275390625,-0.336198627948761,-0.4941312074661255,0.2031693160533905
1761336174450399500,2.3433994140625,-0.24726608395576477,-0.8588321805000305,0.4891539514064789
1761336174460465400,2.35346533203125,-0.09242071211338043,-1.0934807062149048,0.5873275995254517
1761336174470532400,2.363532470703125,0.054942645132541656,-1.3028522729873657,0.5631226897239685
1761336174480598500,2.3735986328125,0.17622868716716766,-1.4164464473724365,0.47614458203315735
1761336174490665500,2.38366552734375,0.27156558632850647,-1.0907397270202637,0.24684643745422363
1761336174500731400,2.3937314453125,0.39625096321105957,-0.46160516142845154,-0.2720198333263397
1761336174510798300,2.40379833984375,0.2923397719860077,-0.11699479073286057,-0.5344564914703369
1761336174520865500,2.413865478515625,0.07584302127361298,-0.04789355769753456,-0.3640111982822418
1761336174530931500,2.423931396484375,0.012337819673120975,-0.059344884008169174,0.04099436476826668
1761336174540998400,2.433998291015625,-0.004686933942139149,0.07196880877017975,0.375752329826355
1761336174551064600,2.444064697265625,-0.07078765332698822,0.09764647483825684,0.5769480466842651
1761336174561131500,2.454131591796875,-0.09493707865476608,0.08272947371006012,0.6527525782585144
1761336174571198500,2.464198486328125,-0.06389766931533813,0.03658568114042282,0.6293535232543945
1761336174581264400,2.474264404296875,-0.02416902408003807,-0.05357261002063751,0.5435264110565186
1761336174591331600,2.48433154296875,-0.00023332936689257622,-0.1338096559047699,0.4247627556324005
1761336174601397500,2.4943974609375,0.014079654589295387,-0.1817915439605713,0.29726508259773254
1761336174611464400,2.50446435546875,0.013211464509367943,-0.21372151374816895,0.16411395370960236
1761336174621531400,2.514531494140625,0.02134699746966362,-0.21287751197814941,0.03440457582473755
1761336174631597600,2.52459765625,0.040257833898067474,-0.20769979059696198,-0.08025728911161423
1761336174641664500,2.53466455078125,0.0650821179151535,-0.19975456595420837,-0.18009348213672638
1761336174651730400,2.54473046875,0.08738502860069275,-0.18484513461589813,-0.24791541695594788
1761336174661797600,2.554797607421875,0.10070886462926865,-0.1579589545726776,-0.2703913152217865
1761336174671863300,2.56486328125,0.11739223450422287,-0.12556958198547363,-0.26253312826156616
1761336174681930500,2.574930419921875,0.12801125645637512,-0.08566219359636307,-0.21703223884105682
1761336174691997400,2.58499755859375,0.1329950988292694,-0.0385652557015419,-0.16313226521015167
1761336174702063400,2.5950634765625,0.14115382730960846,-0.013352387584745884,-0.12131495028734207
1761336174712130600,2.605130615234375,0.1320391595363617,0.004403706640005112,-0.0783376544713974
1761336174722196200,2.6151962890625,0.11784496903419495,0.03139624744653702,-0.0435015931725502
1761336174732263400,2.625263427734375,0.09843850880861282,0.04305742681026459,-0.01707371696829796
1761336174742329300,2.635329345703125,0.07772625237703323,0.04157644882798195,-0.0019087535329163074
1761336174752396300,2.645396240234375,0.05244939401745796,0.0327155776321888,0.009721802547574043
1761336174762463200,2.655463134765625,0.023817945271730423,0.02004036121070385,0.003497280180454254
1761336174772529400,2.665529296875,-0.000026135705411434174,-0.00297414418309927,-0.012661449611186981
1761336174782596400,2.675596435546875,-0.012163140811026096,-0.040872324258089066,-0.03336730971932411
1761336174792662300,2.685662353515625,-0.021752383559942245,-0.08353643119335175,-0.040190596133470535
1761336174802729500,2.6957294921875,-0.026962915435433388,-0.09450092911720276,-0.02973942831158638
1761336174812796400,2.70579638671875,-0.0370219424366951,-0.10011247545480728,0.006130687892436981
1761336174822862300,2.7158623046875,-0.0506097786128521,-0.09132091701030731,0.03981097787618637
1761336174832929300,2.72592919921875,-0.06704787909984589,-0.06718549132347107,0.0713806301355362
1761336174842995500,2.735995361328125,-0.07571156322956085,-0.052579693496227264,0.09313144534826279
1761336174853062400,2.7460625,-0.07286624610424042,-0.05434776470065117,0.08513663709163666
1761336174863128300,2.75612841796875,-0.0637839287519455,-0.07399353384971619,0.06025625765323639
1761336174873195500,2.766195556640625,-0.05197228118777275,-0.09942884743213654,0.0487026683986187
1761336174883262500,2.776262451171875,-0.042353760451078415,-0.09742147475481033,0.06533259153366089
1761336174893328400,2.786328369140625,-0.03815741837024689,-0.10376139730215073,0.07797727733850479
1761336174903395300,2.796395263671875,-0.03718484938144684,-0.09902366250753403,0.08425218611955643
1761336174913461500,2.80646142578125,-0.028861137107014656,-0.09943246096372604,0.08332140743732452
1761336174923528400,2.816528564453125,-0.020304912701249123,-0.10423295199871063,0.06058485805988312
1761336174933595400,2.826595458984375,-0.0077483742497861385,-0.11103013902902603,0.024968275800347328
1761336174943661600,2.83666162109375,0.009165504015982151,-0.12208472937345505,-0.0022459407337009907
1761336174953728500,2.846728515625,0.02994082309305668,-0.12147193402051926,-0.0200481079518795
1761336174963794400,2.85679443359375,0.04142330214381218,-0.09272879362106323,-0.027836939319968224
1761336174973861400,2.866861328125,0.04767267778515816,-0.060922399163246155,-0.038062676787376404
1761336174983928300,2.87692822265625,0.047089334577322006,-0.03756105154752731,-0.06768621504306793
1761336174993994500,2.886994384765625,0.05198582261800766,-0.02196291647851467,-0.10285086184740067
1761336175004061400,2.8970615234375,0.05546543747186661,-0.03473906219005585,-0.14873412251472473
1761336175014127600,2.907127685546875,0.05422067642211914,-0.060361869633197784,-0.16189360618591309
1761336175024194600,2.917194580078125,0.05171439051628113,-0.05140696465969086,-0.13284806907176971
1761336175034260500,2.927260498046875,0.05189868062734604,-0.0451115183532238,-0.08966650068759918
1761336175044327400,2.937327392578125,0.05786755308508873,-0.03774816542863846,-0.03498478978872299
1761336175054394400,2.947394287109375,0.06292915344238281,-0.02134096249938011,0.016392912715673447
1761336175064460500,2.95746044921875,0.055962935090065,-0.002246254123747349,0.044398777186870575
1761336175074527500,2.967527587890625,0.052125055342912674,0.004363711923360825,0.045347660779953
1761336175084593400,2.977593505859375,0.05818650871515274,-0.016418572515249252,0.026842672377824783
1761336175094660600,2.98766064453125,0.061044879257678986,-0.03258182853460312,0.01960047334432602
1761336175104727600,2.9977275390625,0.06046249344944954,-0.02732957899570465,0.032057248055934906
1761336175114793500,3.00779345703125,0.06454778462648392,-0.026103192940354347,0.0536981001496315
1761336175124860400,3.0178603515625,0.059109218418598175,-0.020248841494321823,0.06774396449327469
1761336175134926300,3.02792626953125,0.056329146027565,-0.02304835617542267,0.0716199278831482
1761336175144993500,3.03799365234375,0.050377774983644485,-0.03969879448413849,0.0455506294965744
1761336175155059500,3.0480595703125,0.04911863058805466,-0.06244245916604996,0.01737198978662491
1761336175165126400,3.05812646484375,0.04641388729214668,-0.07725270837545395,-0.007368733175098896
1761336175175193300,3.068193359375,0.038365282118320465,-0.077930748462677,-0.0207215566188097
1761336175185259300,3.07825927734375,0.03879138082265854,-0.07662295550107956,-0.023183800280094147
1761336175195326200,3.088326171875,0.04029899463057518,-0.06212470680475235,-0.012468038126826286
1761336175205392400,3.098392333984375,0.0377047024667263,-0.045360010117292404,-0.015910040587186813
1761336175215459300,3.108459228515625,0.03576059266924858,-0.04724526032805443,-0.03442620113492012
1761336175225526300,3.1185263671875,0.03351562097668648,-0.036567557603120804,-0.046405188739299774
1761336175235592400,3.128592529296875,0.02606889232993126,-0.01699518784880638,-0.05932551622390747
1761336175245659400,3.138659423828125,0.02221423014998436,0.00810803472995758,-0.06937042623758316
1761336175255725300,3.148725341796875,0.027958940714597702,0.03412853926420212,-0.07691314816474915
1761336175265792300,3.158792236328125,0.042890921235084534,0.046239037066698074,-0.08646668493747711
1761336175275858400,3.1688583984375,0.059435274451971054,0.032588470727205276,-0.10157906264066696
1761336175285925400,3.17892529296875,0.07233165949583054,0.010173764079809189,-0.11950153857469559
1761336175295992600,3.18899267578125,0.09296077489852905,-0.016131341457366943,-0.11730469763278961
1761336175306058800,3.199058837890625,0.10789277404546738,-0.03210748732089996,-0.09414244443178177
1761336175316125700,3.209125732421875,0.10103034228086472,-0.03463349491357803,-0.06124468147754669
1761336175326191600,3.219191650390625,0.09326744079589844,-0.030204568058252335,-0.03267108276486397
1761336175336258600,3.229258544921875,0.09461313486099243,-0.014519613236188889,-0.010993486270308495
1761336175346325800,3.23932568359375,0.09227780252695084,-0.0019450504332780838,-0.007243908941745758
1761336175356391700,3.2493916015625,0.09142239391803741,0.011526282876729965,-0.011279396712779999
1761336175366458600,3.259458740234375,0.10249005258083344,0.023717181757092476,-0.010525615885853767
1761336175376524500,3.269524658203125,0.10662567615509033,0.006120879203081131,-0.028326451778411865
1761336175386591500,3.279591552734375,0.11224034428596497,-0.019823001697659492,-0.053519874811172485
1761336175396658700,3.28965869140625,0.12737536430358887,-0.04688923805952072,-0.06605936586856842
1761336175406724400,3.299724365234375,0.14140324294567108,-0.05165741965174675,-0.05062394589185715
1761336175416791600,3.30979150390625,0.16408085823059082,-0.05757123604416847,-0.036471910774707794
1761336175426857500,3.319857421875,0.18441489338874817,-0.06481603533029556,-0.013303088024258614
1761336175436924400,3.32992431640625,0.19359001517295837,-0.06821023672819138,0.01632617600262165
1761336175446990600,3.339990478515625,0.19638948142528534,-0.0726335346698761,0.03384125605225563
1761336175457057500,3.3500576171875,0.20232592523097992,-0.07507511973381042,0.0511118583381176
1761336175467124500,3.36012451171875,0.2028682380914688,-0.07855141162872314,0.05454835295677185
1761336175477190400,3.3701904296875,0.18233045935630798,-0.09148691594600677,0.03877205401659012
1761336175487257600,3.380257568359375,0.15641702711582184,-0.12016128748655319,0.013620295561850071
1761336175497323500,3.390323486328125,0.1384183168411255,-0.13144616782665253,-0.0008507887832820415
1761336175507390500,3.400390380859375,0.13055789470672607,-0.13241346180438995,0.00014669261872768402
1761336175517457400,3.41045751953125,0.11959206312894821,-0.1323053389787674,0.021384602412581444
1761336175527523600,3.420523681640625,0.1075240969657898,-0.11489766836166382,0.05275167524814606
1761336175537590500,3.430590576171875,0.09191663563251495,-0.09873414784669876,0.08616076409816742
1761336175547656400,3.440656494140625,0.0750049576163292,-0.09710804373025894,0.10633429884910583
1761336175557723600,3.4507236328125,0.06261193752288818,-0.12248876690864563,0.11690731346607208
1761336175567789600,3.46078955078125,0.038652755320072174,-0.13019441068172455,0.13560563325881958
1761336175577856500,3.4708564453125,0.007893513888120651,-0.1148921474814415,0.154739111661911
1761336175587923500,3.48092333984375,-0.022853462025523186,-0.10713592916727066,0.16404449939727783
1761336175597989600,3.49098974609375,-0.05433202534914017,-0.0974968895316124,0.16034165024757385
1761336175608056600,3.501056640625,-0.07602009177207947,-0.07664737105369568,0.1491224765777588
1761336175618122500,3.51112255859375,-0.08797714859247208,-0.05971632897853851,0.13121965527534485
1761336175628189400,3.521189453125,-0.08385031670331955,-0.05890725925564766,0.0976363867521286
1761336175638256600,3.531256591796875,-0.07193160802125931,-0.07156553119421005,0.05805462598800659
1761336175648322600,3.541322509765625,-0.05363277345895767,-0.08730936795473099,0.02377224899828434
1761336175658389500,3.551389404296875,0.011014927178621292,-0.08196839690208435,-0.007052241358906031
1761336175668455700,3.56145556640625,0.06262868642807007,-0.12852820754051208,-0.01597091555595398
1761336175678522600,3.571522705078125,0.07960367202758789,-0.2019459754228592,0.001537504605948925
1761336175688588500,3.581588623046875,0.07861731946468353,-0.24537670612335205,0.03606252372264862
1761336175698655500,3.591655517578125,0.06414863467216492,-0.25244152545928955,0.07672739773988724
1761336175708722700,3.60172265625,0.05884120613336563,-0.22902411222457886,0.1302899271249771
1761336175718788600,3.61178857421875,0.0775027722120285,-0.20599043369293213,0.1907476782798767
1761336175728855600,3.62185546875,0.12930433452129364,-0.17006579041481018,0.24994264543056488
1761336175738921700,3.631921630859375,0.20954936742782593,-0.1293809562921524,0.30316510796546936
1761336175748988700,3.64198876953125,0.27332010865211487,-0.10231537371873856,0.32894766330718994
1761336175759055600,3.6520556640625,0.3056740462779999,-0.11977212876081467,0.32444560527801514
1761336175769121500,3.66212158203125,0.3250926733016968,-0.13966380059719086,0.291474312543869
1761336175779188700,3.672188720703125,0.3366539776325226,-0.1382288932800293,0.23719535768032074
1761336175789254700,3.682254638671875,0.3385741114616394,-0.13038873672485352,0.17243866622447968
1761336175799321600,3.692321533203125,0.3415831923484802,-0.07702698558568954,0.12399603426456451
1761336175809387500,3.702387451171875,0.333132803440094,0.0007714889943599701,0.10684795677661896
1761336175819454700,3.712454833984375,0.31051403284072876,0.11428314447402954,0.11829874664545059
1761336175829521700,3.722521728515625,0.27985337376594543,0.231956347823143,0.13445541262626648
1761336175839587300,3.73258740234375,0.24717400968074799,0.3300459086894989,0.14048774540424347
1761336175849654500,3.742654541015625,0.22955651581287384,0.3905133306980133,0.12172888219356537
1761336175859720400,3.752720458984375,0.21786577999591827,0.42623963952064514,0.0831466019153595
1761336175869787400,3.762787353515625,0.20477327704429626,0.45290037989616394,0.0321187749505043
1761336175879854300,3.772854248046875,0.1746976673603058,0.46204644441604614,-0.019316449761390686
1761336175889920500,3.78292041015625,0.14108309149742126,0.46422505378723145,-0.05618869513273239
1761336175899987500,3.792987548828125,0.12181273102760315,0.4720190763473511,-0.07119587063789368
1761336175910053400,3.803053466796875,0.11918175220489502,0.46110406517982483,-0.05364377051591873
1761336175920120600,3.81312060546875,0.1366100013256073,0.39363712072372437,-0.008033940568566322
1761336175930187500,3.8231875,0.1796296387910843,0.3081453740596771,0.06353262066841125
1761336175940253400,3.83325341796875,0.20706765353679657,0.20898228883743286,0.14890822768211365
1761336175950320400,3.8433203125,0.1937652826309204,0.10515983402729034,0.23160701990127563
1761336175960386600,3.853386474609375,0.12883155047893524,0.0447649322450161,0.29073160886764526
1761336175970453500,3.86345361328125,0.04253027215600014,0.06634096056222916,0.29180723428726196
1761336175980519400,3.87351953125,-0.021691590547561646,0.15567830204963684,0.23228397965431213
1761336175990586600,3.883586669921875,-0.04734589532017708,0.32202014327049255,0.13351169228553772
1761336176000653600,3.893653564453125,-0.028268340975046158,0.4727446734905243,0.03140928968787193
1761336176010719500,3.903719482421875,0.008421173319220543,0.4521419107913971,-0.056395273655653
1761336176020786400,3.913786376953125,0.051461853086948395,0.3399200439453125,-0.12171382457017899
1761336176030852600,3.9238525390625,0.10841653496026993,0.2933445870876312,-0.1872430294752121
1761336176040919600,3.93391943359375,0.1253124177455902,0.277444452047348,-0.23257669806480408
1761336176050985500,3.9439853515625,0.08667853474617004,0.2880614101886749,-0.25443339347839355
1761336176061052700,3.954052734375,0.00018572062253952026,0.27383214235305786,-0.21809563040733337
1761336176071118600,3.96411865234375,-0.059792663902044296,0.12123912572860718,-0.10708440840244293
1761336176081185500,3.974185546875,-0.07248715311288834,-0.02012518420815468,0.03939477354288101
1761336176091252500,3.98425244140625,0.07658207416534424,-0.07443290948867798,0.1695818156003952
1761336176101318700,3.994318603515625,0.21656794846057892,-0.08520939201116562,0.20474140346050262
1761336176111385600,4.004385498046875,0.23626698553562164,-0.1527220606803894,0.2165091633796692
1761336176121451500,4.014451416015625,0.1439887285232544,-0.14914703369140625,0.22579161822795868
1761336176131518700,4.024518798828125,-0.00452317064628005,-0.14202216267585754,0.1712655872106552
1761336176141585700,4.034585693359375,-0.1250583678483963,-0.1679357886314392,0.09605658799409866
1761336176151651600,4.044651611328125,-0.22651420533657074,-0.13552270829677582,0.02059071511030197
1761336176161718500,4.054718505859375,-0.29505279660224915,-0.11980180442333221,-0.02707241103053093
1761336176171784700,4.06478466796875,-0.33651846647262573,-0.10590451210737228,-0.06629179418087006
1761336176181851600,4.0748515625,-0.35770872235298157,-0.11912338435649872,-0.08857287466526031
1761336176191917600,4.08491748046875,-0.3492201566696167,-0.100595623254776,-0.06595030426979065
1761336176201984800,4.09498486328125,-0.2592846751213074,-0.12419629096984863,-0.035525817424058914
1761336176212051700,4.1050517578125,-0.08667552471160889,-0.194987952709198,-0.008628170937299728
1761336176222117600,4.11511767578125,0.06395313143730164,-0.20862892270088196,0.009154289029538631
1761336176232184600,4.1251845703125,0.16626285016536713,-0.241579070687294,0.04798015207052231
1761336176242250500,4.13525048828125,0.21063297986984253,-0.25602832436561584,0.07709009945392609
1761336176252317700,4.145317626953125,0.26000627875328064,-0.21739520132541656,0.1351061761379242
1761336176262384600,4.155384521484375,0.3736894428730011,-0.22126929461956024,0.19735196232795715
1761336176272450600,4.165450439453125,0.433013916015625,-0.2624349892139435,0.22614271938800812
1761336176282517800,4.175517822265625,0.49678143858909607,-0.3212847411632538,0.24136322736740112
1761336176292583400,4.18558349609375,0.5543090105056763,-0.37256819009780884,0.24945522844791412
1761336176302650400,4.195650390625,0.5525020360946655,-0.3710312843322754,0.22258712351322174
1761336176312717300,4.20571728515625,0.5094286799430847,-0.3034208416938782,0.16450423002243042
1761336176322783500,4.215783447265625,0.4258200526237488,-0.1932714581489563,0.06502557545900345
1761336176332850400,4.225850341796875,0.3402769863605499,-0.10056167840957642,-0.04665379226207733
1761336176342916600,4.23591650390625,0.2785739302635193,-0.0028926385566592216,-0.15911881625652313
1761336176352983600,4.245983642578125,0.20396602153778076,0.11143890768289566,-0.2566668391227722
1761336176363049500,4.256049560546875,0.12861905992031097,0.20584076642990112,-0.34600844979286194
1761336176373116400,4.266116455078125,0.05226976424455643,0.20856501162052155,-0.4297773241996765
1761336176383183400,4.276183349609375,0.006708940025418997,0.1693076193332672,-0.4961797893047333
1761336176393249500,4.28624951171875,-0.014016294851899147,0.1734515130519867,-0.5396544933319092
1761336176403316500,4.29631640625,-0.060095641762018204,0.32101380825042725,-0.5444258451461792
1761336176413382700,4.306382568359375,-0.06254615634679794,0.31610631942749023,-0.5773307085037231
1761336176423449600,4.31644970703125,-0.1354171633720398,0.26901257038116455,-0.7318979501724243
1761336176433516500,4.3265166015625,-0.1735009253025055,0.2934933006763458,-0.7995821237564087
1761336176443582500,4.33658251953125,-0.16872693598270416,0.22917288541793823,-0.7288379073143005
1761336176453649400,4.3466494140625,-0.1586267054080963,0.2356344312429428,-0.556727409362793
1761336176463715600,4.356715576171875,-0.1590552031993866,0.27232614159584045,-0.36682379245758057
1761336176473782500,4.366782470703125,-0.1736270636320114,0.22391629219055176,-0.20142042636871338
1761336176483848400,4.376848388671875,-0.1745881885290146,0.14089438319206238,-0.08381523936986923
1761336176493915600,4.38691552734375,-0.1623234897851944,0.04293336719274521,-0.007685322780162096
1761336176503982600,4.396982666015625,-0.16071254014968872,-0.027604185044765472,0.035792380571365356
1761336176514048500,4.407048583984375,-0.1738458275794983,-0.057872846722602844,0.05903628468513489
1761336176524115500,4.417115478515625,-0.18647906184196472,-0.06986106932163239,0.06018437445163727
1761336176534181600,4.427181640625,-0.19003939628601074,-0.05817257612943649,0.05229683965444565
1761336176544248600,4.43724853515625,-0.19215688109397888,-0.02559705823659897,0.032144173979759216
1761336176554315500,4.4473154296875,-0.19417619705200195,0.019047418609261513,-0.005064170807600021
1761336176564381700,4.457381591796875,-0.20704378187656403,0.06974708288908005,-0.05210331827402115
1761336176574448600,4.46744873046875,-0.2268557995557785,0.12322153896093369,-0.11222125589847565
1761336176584514600,4.4775146484375,-0.23665623366832733,0.15429158508777618,-0.18362486362457275
1761336176594581500,4.48758154296875,-0.23627886176109314,0.17555347084999084,-0.25385481119155884
1761336176604648700,4.497648681640625,-0.22549837827682495,0.14102478325366974,-0.3022231459617615
1761336176614714600,4.507714599609375,-0.22259938716888428,0.12132200598716736,-0.3037121593952179
1761336176624781600,4.517781494140625,-0.22548092901706696,0.10580004751682281,-0.26606839895248413
1761336176634847700,4.52784765625,-0.22935432195663452,0.08545069396495819,-0.20021598041057587
1761336176644914700,4.537914794921875,-0.2329951375722885,0.07199400663375854,-0.1152302473783493
1761336176654980600,4.547980712890625,-0.23601730167865753,0.06594108790159225,-0.045765575021505356
1761336176665047600,4.558047607421875,-0.24071431159973145,0.07233187556266785,0.0009654425084590912
1761336176675114800,4.56811474609375,-0.23704048991203308,0.08492516726255417,0.02026776596903801
1761336176685180700,4.5781806640625,-0.22760890424251556,0.09299001842737198,0.013185623101890087
1761336176695247600,4.58824755859375,-0.21752014756202698,0.12213170528411865,0.0174136720597744
1761336176705313500,4.5983134765625,-0.1897319257259369,0.1597866714000702,0.024195678532123566
1761336176715380700,4.608380615234375,-0.15504951775074005,0.1629633754491806,0.014256524853408337
1761336176725447700,4.61844775390625,-0.10929001867771149,0.1421973705291748,-0.035667091608047485
1761336176735513300,4.628513427734375,-0.07095635682344437,0.10505051910877228,-0.1018223911523819
1761336176745580500,4.63858056640625,-0.04438519850373268,0.09177466481924057,-0.17404118180274963
1761336176755646500,4.648646484375,-0.0322512686252594,0.0759657472372055,-0.21367599070072174
1761336176765713400,4.65871337890625,-0.02496965415775776,0.07048548758029938,-0.21320036053657532
1761336176775780400,4.6687802734375,-0.02272070199251175,0.09232043474912643,-0.19055092334747314
1761336176785846500,4.678846435546875,-0.02008923329412937,0.1128840371966362,-0.18435294926166534
1761336176795913500,4.68891357421875,-0.02507404424250126,0.11091715842485428,-0.18665753304958344
1761336176805979400,4.6989794921875,-0.02899501658976078,0.1113366037607193,-0.1996532380580902
1761336176816046600,4.709046630859375,-0.03498202562332153,0.10109645128250122,-0.21391595900058746
1761336176826112500,4.719112548828125,-0.03838261589407921,0.08238215744495392,-0.21666380763053894
1761336176836179500,4.729179443359375,-0.0445062518119812,0.07520747929811478,-0.19956636428833008
1761336176846246400,4.739246337890625,-0.04828501120209694,0.05598051846027374,-0.17863337695598602
1761336176856312600,4.7493125,-0.0374080054461956,0.030059246346354485,-0.15775614976882935
1761336176866379500,4.759379638671875,-0.04318946227431297,0.04753997176885605,-0.13142788410186768
1761336176876445400,4.769445556640625,-0.051521141082048416,0.06515317410230637,-0.11258209496736526
1761336176886512600,4.7795126953125,-0.0614778995513916,0.07199723273515701,-0.12111326307058334
1761336176896579600,4.78957958984375,-0.0755336657166481,0.08646554499864578,-0.15719877183437347
1761336176906645500,4.7996455078125,-0.09638755023479462,0.0831211507320404,-0.2184184491634369
1761336176916712400,4.80971240234375,-0.11105138808488846,0.0904526486992836,-0.28076568245887756
1761336176926778600,4.819778564453125,-0.11025776714086533,0.10109197348356247,-0.3234066069126129
1761336176936845600,4.829845458984375,-0.09988700598478317,0.10663207620382309,-0.34662556648254395
1761336176946912500,4.83991259765625,-0.08106724172830582,0.11475125700235367,-0.3584960699081421
1761336176956978400,4.849978515625,-0.058741435408592224,0.11197161674499512,-0.36656081676483154
1761336176967045600,4.860045654296875,-0.05702929198741913,0.10768473148345947,-0.37402406334877014
1761336176977111600,4.870111572265625,-0.0677291750907898,0.11068163067102432,-0.3684697449207306
1761336176987178500,4.880178466796875,-0.07989875227212906,0.09466591477394104,-0.3468259572982788
1761336176997244700,4.89024462890625,-0.07914932817220688,0.06031595170497894,-0.31737589836120605
1761336177007311600,4.9003115234375,-0.08312036842107773,0.03137005865573883,-0.270195871591568
1761336177017378600,4.910378662109375,-0.0843941941857338,-0.015096920542418957,-0.21851664781570435
1761336177027444500,4.920444580078125,-0.0797661542892456,-0.06792417913675308,-0.15672972798347473
1761336177037511700,4.93051171875,-0.0788375660777092,-0.08013451099395752,-0.0697861760854721
1761336177047577600,4.94057763671875,-0.08374977111816406,-0.0728001594543457,0.02513100951910019
1761336177057644500,4.95064453125,-0.09278438240289688,-0.07933560758829117,0.06558907777070999
1761336177067711500,4.96071142578125,-0.09653571248054504,-0.08511439710855484,0.06111177057027817
1761336177077777700,4.970777587890625,-0.09318351000547409,-0.09702873229980469,0.027281973510980606
1761336177087844600,4.9808447265625,-0.09422693401575089,-0.10482434183359146,-0.007317017763853073
1761336177097910500,4.99091064453125,-0.08903159946203232,-0.09402792155742645,-0.017469678074121475
1761336177107977700,5.000977783203125,-0.07556452602148056,-0.08625441789627075,-0.031079230830073357
1761336177118043600,5.011043701171875,-0.06595917046070099,-0.07101351767778397,-0.03871871531009674
1761336177128110600,5.021110595703125,-0.06207761541008949,-0.05093887448310852,-0.0425531342625618
1761336177138177500,5.031177490234375,-0.0598602294921875,-0.026967087760567665,-0.047515448182821274
1761336177148243700,5.04124365234375,-0.05107046663761139,-0.004463110119104385,-0.05873241648077965
1761336177158310700,5.051310546875,-0.046370625495910645,0.0014297077432274818,-0.062097035348415375
1761336177168376300,5.061376220703125,-0.036074310541152954,0.014129789546132088,-0.05655580013990402
1761336177178443800,5.07144384765625,-0.023133477196097374,0.021023914217948914,-0.04233504831790924
1761336177188510700,5.0815107421875,-0.016393283382058144,0.01756606623530388,-0.029361195862293243
1761336177198576400,5.091576416015625,-0.013367559760808945,0.026040025055408478,-0.02539321407675743
1761336177208643300,5.101643310546875,-0.017950328066945076,0.04006795957684517,-0.027090713381767273
1761336177218709500,5.11170947265625,-0.02493295446038246,0.05723024159669876,-0.0389353409409523
1761336177228776400,5.1217763671875,-0.03859150782227516,0.059172749519348145,-0.057731665670871735
1761336177238843400,5.131843505859375,-0.04253038391470909,0.05831441283226013,-0.07308998703956604
1761336177248909600,5.14190966796875,-0.04901038482785225,0.05439744144678116,-0.06943266838788986
1761336177258976500,5.1519765625,-0.05556359887123108,0.051743924617767334,-0.04389634728431702
1761336177269042400,5.16204248046875,-0.07124588638544083,0.060589343309402466,-0.009389237500727177
1761336177279109400,5.172109375,-0.09099213778972626,0.06788385659456253,0.01346992701292038
1761336177289175600,5.182175537109375,-0.11101432144641876,0.0771535262465477,0.01401614025235176
1761336177299242200,5.1922421875,-0.1272745579481125,0.08349187672138214,0.0010658800601959229
1761336177309309200,5.20230908203125,-0.1343124955892563,0.07887555658817291,-0.013858741149306297
1761336177319375400,5.212375244140625,-0.13809365034103394,0.09675954282283783,-0.018117817118763924
1761336177329442300,5.2224423828125,-0.1393999308347702,0.12496987730264664,-0.009829260408878326
1761336177339508200,5.23250830078125,-0.1307360678911209,0.14573855698108673,0.00602178368717432
1761336177349575200,5.2425751953125,-0.11865277588367462,0.1590905785560608,0.013601407408714294
1761336177359642400,5.252642333984375,-0.11629543453454971,0.15515883266925812,0.008406013250350952
1761336177369708000,5.2627080078125,-0.12132055312395096,0.13357843458652496,-0.015194387175142765
1761336177379775200,5.272775146484375,-0.12187179177999496,0.09818995743989944,-0.03841133788228035
1761336177389841200,5.282841064453125,-0.10993124544620514,0.07964370399713516,-0.04673504829406738
1761336177399908000,5.292908203125,-0.10253864526748657,0.05871782824397087,-0.04400533810257912
1761336177409974000,5.30297412109375,-0.10340256989002228,0.0335853137075901,-0.028892964124679565
1761336177420041000,5.313041015625,-0.09616167843341827,0.02368885651230812,0.0025117527693510056
1761336177430108200,5.323108154296875,-0.07892011106014252,0.009095001965761185,0.037529923021793365
1761336177440174000,5.333174072265625,-0.06648242473602295,-0.020625099539756775,0.06847088038921356
1761336177450241000,5.343240966796875,-0.05871504172682762,-0.05152282863855362,0.09205690026283264
1761336177460307200,5.35330712890625,-0.04740545526146889,-0.05833720415830612,0.11719246953725815
1761336177470374100,5.3633740234375,-0.03472587838768959,-0.056304942816495895,0.12389697134494781
1761336177480441000,5.373441162109375,-0.02805234305560589,-0.06560321152210236,0.11085781455039978
1761336177490507000,5.383507080078125,-0.019106784835457802,-0.06948930025100708,0.08782599866390228
1761336177500574200,5.39357421875,-0.0065232254564762115,-0.07536602020263672,0.06154955178499222
1761336177510640000,5.40364013671875,0.003853515489026904,-0.08874280750751495,0.0376434251666069
1761336177520707000,5.41370703125,0.013468769378960133,-0.09610703587532043,0.02248556539416313
1761336177530773200,5.423773193359375,0.015914883464574814,-0.09161242097616196,0.020258363336324692
1761336177540840200,5.433840087890625,0.028539244085550308,-0.09294392913579941,0.024239836260676384
1761336177550907100,5.4439072265625,0.03901026397943497,-0.08703623712062836,0.03301921486854553
1761336177560973000,5.45397314453125,0.05181039869785309,-0.07139986008405685,0.046722978353500366
1761336177571040300,5.464040283203125,0.0634223148226738,-0.058539461344480515,0.04825828969478607
1761336177581106200,5.474106201171875,0.06833970546722412,-0.048394396901130676,0.04022039473056793
1761336177591173000,5.484173095703125,0.0724598839879036,-0.04498794674873352,0.021341245621442795
1761336177601240000,5.494239990234375,0.07764528691768646,-0.03856445848941803,0.0038828225806355476
1761336177611306200,5.50430615234375,0.07504977285861969,-0.038864865899086,-0.008822320029139519
1761336177621373200,5.514373291015625,0.07676532864570618,-0.03324665501713753,-0.011059517040848732
1761336177631439000,5.524439208984375,0.06827330589294434,-0.021152440458536148,-0.005728135351091623
1761336177641506300,5.53450634765625,0.06063694879412651,-0.011848241090774536,-0.00036202045157551765
1761336177651573200,5.5445732421875,0.045862000435590744,-0.01849335990846157,-0.006177831441164017
1761336177661639200,5.55463916015625,0.03866012766957283,-0.01907566748559475,-0.009392238222062588
1761336177671706000,5.5647060546875,0.029229074716567993,-0.008571627549827099,-0.006580472458153963
1761336177681772300,5.574772216796875,0.021447796374559402,-0.011275666765868664,-0.0018007829785346985
1761336177691839200,5.584839111328125,0.015090830624103546,-0.005225763656198978,0.0037159547209739685
1761336177701905200,5.5949052734375,0.012226621620357037,0.006889071315526962,0.010564461350440979
1761336177711972400,5.604972412109375,0.0074209473095834255,0.007130621001124382,0.004306565038859844
1761336177722039300,5.615039306640625,-0.0016501899808645248,0.005940794944763184,-0.003796994686126709
1761336177732105200,5.625105224609375,-0.0014989222399890423,0.010708652436733246,-0.0038433335721492767
1761336177742172200,5.635172119140625,-0.003026468213647604,0.008392466232180595,-0.013202639296650887
1761336177752238300,5.64523828125,-0.006424927618354559,0.008098985999822617,-0.016393106430768967
1761336177762305300,5.65530517578125,-0.011103431694209576,0.0019008470699191093,-0.020980458706617355
1761336177772372200,5.665372314453125,-0.012542071752250195,0.011612329632043839,-0.003883497091010213
1761336177782438400,5.6754384765625,-0.016843732446432114,0.03702893108129501,0.00979086197912693
1761336177792505300,5.68550537109375,-0.024178076535463333,0.04416327178478241,0.002799532376229763
1761336177802571000,5.695571044921875,-0.024500297382473946,0.04187919571995735,-0.011006107553839684
1761336177812638200,5.70563818359375,-0.02134205587208271,0.03164280578494072,-0.03071562945842743
1761336177822704000,5.7157041015625,-0.02083578333258629,0.002982751466333866,-0.06103423610329628
1761336177832771000,5.72577099609375,-0.02270878292620182,-0.03449937701225281,-0.07221551984548569
1761336177842838300,5.73583837890625,-0.019683662801980972,-0.05460822582244873,-0.05477771535515785
1761336177852904200,5.745904296875,-0.0174974724650383,-0.05435442551970482,-0.01961679756641388
1761336177862971100,5.75597119140625,-0.021557642146945,-0.04667793586850166,0.012156529352068901
1761336177873037000,5.766037109375,-0.019560538232326508,-0.040016304701566696,0.03261812776327133
1761336177883104000,5.77610400390625,-0.012407250702381134,-0.039102163165807724,0.023840302601456642
1761336177893171200,5.786171142578125,-0.008031144738197327,-0.04430677741765976,0.008083712309598923
1761336177903237000,5.796237060546875,-0.003916863817721605,-0.04533969610929489,-0.019824573770165443
1761336177913304000,5.806303955078125,-0.0008369185961782932,-0.0645727813243866,-0.035067975521087646
1761336177923370200,5.816370361328125,-0.0036590266972780228,-0.07479588687419891,-0.02530711516737938
1761336177933437200,5.826437255859375,-0.005858531221747398,-0.06446389108896255,-0.003690236248075962
1761336177943503000,5.836503173828125,-0.014311006292700768,-0.06481461226940155,0.0098751625046134
1761336177953570000,5.846570068359375,-0.020329751074314117,-0.06328809261322021,0.020525142550468445
1761336177963637000,5.856636962890625,-0.027874041348695755,-0.04672408103942871,0.03392329812049866
1761336177973703200,5.866703125,-0.03276786580681801,-0.03222076967358589,0.03787782043218613
1761336177983770000,5.87677001953125,-0.03864915668964386,-0.020308038219809532,0.03424868732690811
1761336177993836300,5.886836181640625,-0.0405205599963665,-0.0071930354461073875,0.026396889239549637
1761336178003903200,5.8969033203125,-0.047538064420223236,0.004827831871807575,0.00944340880960226
1761336178013970200,5.90697021484375,-0.04978764057159424,0.003436329774558544,-0.01742495596408844
1761336178024036000,5.9170361328125,-0.04453536123037338,0.0020338213071227074,-0.03913173824548721
1761336178034103000,5.92710302734375,-0.03870570287108421,0.0014766883105039597,-0.04553690552711487
1761336178044169200,5.937169189453125,-0.03968380019068718,-0.0025730719789862633,-0.04483270272612572
1761336178054236200,5.947236083984375,-0.03425627946853638,-0.005317992530763149,-0.040597476065158844
1761336178064303000,5.95730322265625,-0.02017441764473915,-0.00455376785248518,-0.03712945058941841
1761336178074369300,5.967369384765625,-0.013224897906184196,-0.0026962123811244965,-0.02164929360151291
1761336178084436200,5.977436279296875,-0.0018834508955478668,-0.004002867266535759,-0.005046476610004902
1761336178094502100,5.987502197265625,0.004685236141085625,0.0009828368201851845,0.010453653521835804
1761336178104569000,5.997569091796875,0.004541185684502125,0.00782657228410244,0.019757743924856186
1761336178114635300,6.00763525390625,0.003386971540749073,0.01138029433786869,0.010564245283603668
1761336178124702200,6.0177021484375,0.0002608736976981163,0.006242680363357067,-0.008008971810340881
1761336178134769200,6.02776904296875,-0.009949153289198875,0.004249039106070995,-0.029529178515076637
1761336178144835300,6.03783544921875,-0.023196769878268242,-0.0032550469040870667,-0.04079856723546982
1761336178154902300,6.04790234375,-0.029767585918307304,-0.005084105767309666,-0.04430914670228958
1761336178164968200,6.05796826171875,-0.03587944433093071,-0.00846005231142044,-0.03671078383922577
1761336178175035100,6.06803515625,-0.04904558137059212,-0.006009145174175501,-0.027179598808288574
1761336178185102300,6.078102294921875,-0.0646473839879036,-0.012283737771213055,-0.025978483259677887
1761336178195168300,6.088168212890625,-0.0809461921453476,-0.02304770238697529,-0.029286660254001617
1761336178205235200,6.098235107421875,-0.09927014261484146,-0.03505367040634155,-0.03868194296956062
1761336178215301400,6.10830126953125,-0.12087104469537735,-0.042215704917907715,-0.05514054745435715
1761336178225368300,6.118368408203125,-0.14689196646213531,-0.0579676553606987,-0.08246811479330063
1761336178235434200,6.128434326171875,-0.17677024006843567,-0.08297686278820038,-0.12494047731161118
1761336178245501200,6.138501220703125,-0.2055589258670807,-0.13615955412387848,-0.1713515818119049
1761336178255568400,6.148568359375,-0.20610247552394867,-0.202750563621521,-0.2165297120809555
1761336178265634000,6.158634033203125,-0.2094307690858841,-0.24535724520683289,-0.21837683022022247
1761336178275701200,6.168701171875,-0.21887832880020142,-0.2633975148200989,-0.2009349912405014
1761336178285767200,6.17876708984375,-0.2243654429912567,-0.27368247509002686,-0.17219023406505585
1761336178295834600,6.188834716796875,-0.22858229279518127,-0.27241185307502747,-0.15785178542137146
1761336178305901600,6.198901611328125,-0.24215002357959747,-0.2777036130428314,-0.1546824723482132
1761336178315967500,6.208967529296875,-0.25897958874702454,-0.3073691129684448,-0.1716577261686325
1761336178326034400,6.219034423828125,-0.27485740184783936,-0.312789648771286,-0.1673610508441925
1761336178336100600,6.2291005859375,-0.2731338143348694,-0.23497635126113892,-0.09432972222566605
1761336178346167600,6.23916748046875,-0.27220866084098816,-0.08458023518323898,0.04833627864718437
1761336178356233500,6.2492333984375,-0.25116410851478577,0.05833164229989052,0.15914881229400635
1761336178366300700,6.25930078125,-0.21625728905200958,0.08077943325042725,0.16814322769641876
1761336178376367600,6.26936767578125,-0.18534038960933685,0.041244011372327805,0.1099156066775322
1761336178386433500,6.27943359375,-0.1673078089952469,0.01950613223016262,0.04583834484219551
1761336178396500500,6.28950048828125,-0.17701050639152527,0.018640337511897087,-0.008914913982152939
1761336178406566700,6.299566650390625,-0.19445230066776276,0.041093237698078156,-0.04247261583805084
1761336178416633600,6.309633544921875,-0.2063145488500595,0.07890639454126358,-0.056079767644405365
1761336178426700500,6.319700439453125,-0.2217930555343628,0.11524779349565506,-0.0780724287033081
1761336178436766700,6.3297666015625,-0.24907422065734863,0.1269475817680359,-0.11872638016939163
1761336178446833700,6.339833740234375,-0.25509732961654663,0.10575295984745026,-0.15689809620380402
1761336178456899600,6.349899658203125,-0.2527313530445099,0.10359686613082886,-0.16795234382152557
1761336178466966500,6.359966552734375,-0.2508094906806946,0.09999886155128479,-0.16202779114246368
1761336178477033700,6.37003369140625,-0.2714356482028961,0.062094081193208694,-0.170111283659935
1761336178487099600,6.380099609375,-0.297139972448349,0.01209788303822279,-0.19442695379257202
1761336178497166600,6.39016650390625,-0.30453771352767944,-0.04432597756385803,-0.22844484448432922
1761336178507232800,6.400232666015625,-0.28887638449668884,-0.09746992588043213,-0.2478923350572586
1761336178517299700,6.4102998046875,-0.2618202567100525,-0.13264310359954834,-0.2459128051996231
1761336178527365400,6.420365478515625,-0.250309020280838,-0.17071032524108887,-0.23725512623786926
1761336178537432600,6.4304326171875,-0.23687975108623505,-0.23531833291053772,-0.22757001221179962
1761336178547499800,6.440499755859375,-0.21421010792255402,-0.28735417127609253,-0.1966761350631714
1761336178557565400,6.4505654296875,-0.1970265954732895,-0.2979375720024109,-0.14919303357601166
1761336178567632400,6.46063232421875,-0.19042780995368958,-0.29761072993278503,-0.10280594229698181
1761336178577698600,6.470698486328125,-0.18698620796203613,-0.2990970313549042,-0.06559333205223083
1761336178587765500,6.480765625,-0.18269822001457214,-0.31740236282348633,-0.043243858963251114
1761336178597832400,6.49083251953125,-0.1633538156747818,-0.3183821439743042,-0.010504821315407753
1761336178607898400,6.5008984375,-0.1425180584192276,-0.2725667953491211,0.029163958504796028
1761336178617965600,6.510965576171875,-0.15506155788898468,-0.2836812436580658,-0.003146575763821602
1761336178628031500,6.521031494140625,-0.14073237776756287,-0.24327346682548523,0.007481521926820278
1761336178638098400,6.531098388671875,-0.11363764107227325,-0.1914435625076294,0.05315154045820236
1761336178648164600,6.54116455078125,-0.09520909190177917,-0.14642013609409332,0.10431649535894394
1761336178658231600,6.5512314453125,-0.07027684152126312,-0.12321202456951141,0.141922727227211
1761336178668298500,6.561298583984375,-0.0431133396923542,-0.1035483106970787,0.1587977260351181
1761336178678364400,6.571364501953125,-0.01539089810103178,-0.08153382688760757,0.15045030415058136
1761336178688431600,6.581431640625,0.005273017100989819,-0.04584021493792534,0.11877313256263733
1761336178698497500,6.59149755859375,0.01872783899307251,-0.010227357037365437,0.07860945165157318
1761336178708564500,6.601564453125,0.029067328199744225,0.01221699733287096,0.03314419463276863
1761336178718631400,6.61163134765625,0.03717852011322975,0.039242222905159,-0.0005897991359233856
1761336178728697600,6.621697509765625,0.0375526137650013,0.0638238862156868,-0.029389286413788795
1761336178738764500,6.6317646484375,0.04281795024871826,0.06520181149244308,-0.05739162489771843
1761336178748830500,6.64183056640625,0.048885777592659,0.045017555356025696,-0.07864359021186829
1761336178758897700,6.651897705078125,0.06390760093927383,0.01989329233765602,-0.07160245627164841
1761336178768963600,6.661963623046875,0.0803510993719101,0.0053183650597929955,-0.033606160432100296
1761336178779030500,6.672030517578125,0.0941646471619606,-0.0013411352410912514,0.032357409596443176
1761336178789097500,6.682097412109375,0.10489875078201294,0.022431164979934692,0.10020041465759277
1761336178799163600,6.69216357421875,0.10131440311670303,0.04484273120760918,0.13352401554584503
1761336178809230600,6.702230712890625,0.09331638365983963,0.051058072596788406,0.11939020454883575
1761336178819296500,6.712296630859375,0.09162075072526932,0.045742664486169815,0.08147744834423065
1761336178829363700,6.72236376953125,0.08671228587627411,0.028938330709934235,0.04861152544617653
1761336178839430700,6.7324306640625,0.07449397444725037,0.03139696270227432,0.04090273752808571
1761336178849496600,6.74249658203125,0.06442718207836151,0.04022786021232605,0.04362799599766731
1761336178859563500,6.7525634765625,0.05823799967765808,0.039549820125103,0.04572896286845207
1761336178869629700,6.762629638671875,0.05621625483036041,0.0317719504237175,0.05088597163558006
1761336178879696600,6.772696533203125,0.04657108336687088,0.007799239829182625,0.03963198512792587
1761336178889763600,6.782763671875,0.03782714158296585,-0.025949105620384216,0.03392619267106056
1761336178899829500,6.79282958984375,0.01861696131527424,-0.07647699117660522,0.03337891399860382
1761336178909896700,6.802896728515625,0.016585610806941986,-0.09073098748922348,0.05081157386302948
1761336178919962600,6.812962646484375,0.02622145786881447,-0.12364712357521057,0.06873597949743271
1761336178930029600,6.823029541015625,0.06871495395898819,-0.170144185423851,0.07501287758350372
1761336178940095700,6.833095703125,0.13659067451953888,-0.1843377649784088,0.10355397313833237
1761336178950162700,6.84316259765625,0.19185981154441833,-0.17355762422084808,0.13582968711853027
1761336178960229600,6.853229736328125,0.22836217284202576,-0.15607397258281708,0.1586543321609497
1761336178970295600,6.863295654296875,0.2612836956977844,-0.11134884506464005,0.19858430325984955
1761336178980362800,6.87336279296875,0.27401334047317505,-0.06289608776569366,0.22580206394195557
1761336178990428400,6.883428466796875,0.2612963914871216,-0.04462244361639023,0.19953086972236633
1761336179000495400,6.893495361328125,0.2353055477142334,-0.04217366874217987,0.13227114081382751
1761336179010562600,6.9035625,0.2164396047592163,-0.016976071521639824,0.05766095593571663
1761336179020628500,6.91362841796875,0.17794333398342133,0.02931312844157219,0.0009374907240271568
1761336179030695400,6.9236953125,0.1251499205827713,0.09390013664960861,-0.027364686131477356
1761336179040761300,6.93376123046875,0.048931315541267395,0.11689680069684982,-0.05437473580241203
1761336179050828500,6.94382861328125,-0.036299340426921844,0.13145436346530914,-0.06837901473045349
1761336179060894500,6.95389453125,-0.121429942548275,0.14594489336013794,-0.06517256796360016
1761336179070961400,6.96396142578125,-0.1513545662164688,0.16671054065227509,-0.06224431097507477
1761336179081028400,6.9740283203125,-0.11941739916801453,0.15714925527572632,-0.06928224861621857
1761336179091094500,6.984094482421875,-0.08415843546390533,0.13857322931289673,-0.08568120002746582
1761336179101161500,6.994161376953125,-0.04935464635491371,0.1135331243276596,-0.10790740698575974
1761336179111227400,7.004227294921875,-0.019920367747545242,0.09799760580062866,-0.10838022828102112
1761336179121294600,7.014294677734375,0.0018656207248568535,0.08882781118154526,-0.08252439647912979
1761336179131361500,7.024361572265625,0.029163895174860954,0.06177065894007683,-0.048526301980018616
1761336179141427500,7.034427490234375,0.03877390921115875,0.023906897753477097,-0.03356146812438965
1761336179151494400,7.044494384765625,0.03899659588932991,-0.025852704420685768,-0.028323989361524582
1761336179161560600,7.054560546875,0.03766767680644989,-0.07197918742895126,-0.023987561464309692
1761336179171627500,7.06462744140625,0.01448467280715704,-0.11752445995807648,-0.03213703632354736
1761336179181693400,7.074693359375,-0.0057220617309212685,-0.14754867553710938,-0.045262157917022705
1761336179191760600,7.0847607421875,-0.018603015691041946,-0.15274687111377716,-0.042779937386512756
1761336179201827600,7.09482763671875,-0.03277449682354927,-0.14358000457286835,-0.030034314841032028
1761336179211893500,7.1048935546875,-0.0609268844127655,-0.12451973557472229,-0.01709004119038582
1761336179221960400,7.11496044921875,-0.09497407078742981,-0.09458181262016296,-0.000024504028260707855
1761336179232026600,7.125026611328125,-0.12479410320520401,-0.06234630569815636,0.0002988530322909355
1761336179242093600,7.135093505859375,-0.14116136729717255,-0.02860565483570099,-0.006278089247643948
1761336179252160500,7.145160400390625,-0.15484605729579926,-0.012130334973335266,-0.02422911860048771
1761336179262226700,7.155226806640625,-0.15884266793727875,-0.0010928632691502571,-0.05912984535098076
1761336179272293600,7.165293701171875,-0.1549251824617386,0.021321581676602364,-0.09381439536809921
1761336179282359600,7.175359619140625,-0.14386719465255737,0.0569235160946846,-0.1244945377111435
1761336179292426500,7.185426513671875,-0.12120110541582108,0.09231754392385483,-0.14118802547454834
1761336179302493400,7.195493408203125,-0.09399984031915665,0.13079437613487244,-0.14571353793144226
1761336179312559400,7.205559326171875,-0.06941241025924683,0.14473041892051697,-0.14926950633525848
1761336179322626300,7.215626220703125,-0.039262764155864716,0.13392889499664307,-0.1551966369152069
1761336179332692500,7.2256923828125,-0.004148234613239765,0.10602771490812302,-0.16034479439258575
1761336179342759400,7.235759521484375,0.02304530330002308,0.09794315695762634,-0.14576958119869232
1761336179352825300,7.245825439453125,0.03634271025657654,0.09399143606424332,-0.11894987523555756
1761336179362892300,7.255892333984375,0.04419663920998573,0.09439118206501007,-0.07874679565429688
1761336179372959500,7.26595947265625,0.044222090393304825,0.09663144499063492,-0.04944804310798645
1761336179383025400,7.276025390625,0.045190680772066116,0.08478064090013504,-0.025269469246268272
1761336179393092400,7.28609228515625,0.04350276291370392,0.06986711919307709,-0.018525701016187668
1761336179403158500,7.296158447265625,0.035792116075754166,0.046633172780275345,-0.019192025065422058
1761336179413225500,7.3062255859375,0.02060692384839058,0.02408534660935402,-0.020751699805259705
1761336179423292400,7.31629248046875,0.018352292478084564,0.01970844343304634,-0.012749433517456055
1761336179433358300,7.3263583984375,0.006613002624362707,0.01966051757335663,-0.006827968172729015
1761336179443425500,7.336425537109375,-0.003218322526663542,0.008760998956859112,-0.005552580580115318
1761336179453491500,7.346491455078125,-0.011477990075945854,-0.010288161225616932,-0.019028915092349052
1761336179463558400,7.356558349609375,-0.02029571682214737,-0.013416309840977192,-0.025368303060531616
1761336179473624600,7.36662451171875,-0.03176186978816986,-0.010026974603533745,-0.020562678575515747
1761336179483691500,7.37669140625,-0.03506658598780632,0.003688037395477295,-0.012889845296740532
1761336179493758500,7.386758544921875,-0.047572724521160126,0.010232951492071152,-0.018216673284769058
1761336179503824400,7.396824462890625,-0.04892853647470474,0.009712038561701775,-0.03375887870788574
1761336179513891600,7.4068916015625,-0.045894838869571686,0.02112237550318241,-0.051934584975242615
1761336179523957500,7.41695751953125,-0.04177146777510643,0.030298298224806786,-0.0726233497262001
1761336179534024400,7.4270244140625,-0.04001317545771599,0.038818832486867905,-0.10234218835830688
1761336179544091400,7.43709130859375,-0.03630072623491287,0.021733589470386505,-0.1098584234714508
1761336179554157600,7.447157470703125,-0.029485808685421944,0.014089889824390411,-0.09102308750152588
1761336179564224500,7.457224609375,-0.02579413540661335,0.006022108718752861,-0.04944528639316559
1761336179574290400,7.46729052734375,-0.0123487189412117,0.0074485670775175095,-0.008384088054299355
1761336179584357400,7.477357421875,0.0022344845347106457,0.014060130342841148,0.028496963903307915
1761336179594423600,7.487423583984375,0.0055075096897780895,0.012941868975758553,0.04688902199268341
1761336179604490500,7.497490478515625,0.00621750857681036,0.000977085903286934,0.05048029124736786
1761336179614557400,7.507557373046875,0.010906817391514778,-0.0016120122745633125,0.04275289922952652
1761336179624623600,7.51762353515625,0.013253062032163143,0.01465004775673151,0.03137560933828354
1761336179634690600,7.527690673828125,0.00807160697877407,0.04303381219506264,0.016440989449620247
1761336179644756200,7.537756103515625,-0.0028305756859481335,0.0517364926636219,-0.009852400049567223
1761336179654823400,7.547823486328125,-0.006714529823511839,0.04184790700674057,-0.03627096116542816
1761336179664890600,7.557890625,-0.0017642457969486713,0.051930371671915054,-0.029361654072999954
1761336179674956300,7.567956298828125,-0.004647197667509317,0.05551513656973839,-0.025028221309185028
1761336179685023500,7.5780234375,-0.006985187064856291,0.041780415922403336,-0.023008478805422783
1761336179695089400,7.58808935546875,-0.00939164124429226,0.03924177587032318,-0.010828699916601181
1761336179705156400,7.59815625,-0.007537814322859049,0.05974891781806946,0.009993224404752254
1761336179715222300,7.60822216796875,-0.005514531396329403,0.07364566624164581,0.022649161517620087
1761336179725289500,7.61828955078125,-0.007359036244452,0.06900031119585037,0.015799779444932938
1761336179735356400,7.6283564453125,-0.008628694340586662,0.04360930621623993,-0.00025621382519602776
1761336179745422300,7.63842236328125,-0.019353777170181274,0.007381264120340347,-0.016389111056923866
1761336179755489300,7.6484892578125,-0.023745913058519363,-0.008827710524201393,-0.016601085662841797
1761336179765555500,7.658555419921875,-0.03210131824016571,-0.012618187814950943,-0.0014101481065154076
1761336179775622400,7.668622314453125,-0.038641251623630524,-0.007852365262806416,0.014294203370809555
1761336179785689300,7.678689453125,-0.04916713014245033,-0.004103699699044228,0.01588331162929535
1761336179795755300,7.68875537109375,-0.054754212498664856,0.0042203981429338455,0.009574860334396362
1761336179805822500,7.698822509765625,-0.04942549392580986,0.00852246955037117,-0.004072775132954121
1761336179815888400,7.708888427734375,-0.051688216626644135,0.007756585255265236,-0.015030336566269398
1761336179825955300,7.718955322265625,-0.043681420385837555,0.0033652987331151962,0.0010303892195224762
1761336179836021500,7.729021484375,-0.033897608518600464,0.007879575714468956,0.02514437586069107
1761336179846088400,7.73908837890625,-0.023178119212388992,-0.010666944086551666,0.04235132411122322
1761336179856155400,7.7491552734375,-0.0040619694627821445,-0.03133239224553108,0.05084528774023056
1761336179866221300,7.75922119140625,0.005202368833124638,-0.0508059561252594,0.04399190843105316
1761336179876288500,7.76928857421875,0.013051136396825314,-0.06044309586286545,0.030261468142271042
1761336179886354400,7.7793544921875,0.0199255533516407,-0.06255605071783066,0.002495083026587963
1761336179896421400,7.78942138671875,0.021796856075525284,-0.06466469913721085,-0.014528093859553337
1761336179906488300,7.79948828125,0.022639745846390724,-0.051309749484062195,-0.0205625519156456
1761336179916554500,7.809554443359375,0.015971869230270386,-0.03775007277727127,-0.0017192615196108818
1761336179926621400,7.819621337890625,0.007689703721553087,-0.031686052680015564,0.011999214068055153
1761336179936687400,7.829687255859375,0.0044926428236067295,-0.027633972465991974,0.01461020763963461
1761336179946754600,7.839754638671875,-0.0004001166671514511,-0.020627461373806,0.008632476441562176
1761336179956820500,7.849820556640625,-0.005605344660580158,-0.014697246253490448,0.002251213416457176
1761336179966887400,7.859887451171875,-0.010935129597783089,0.0014835875481367111,-0.0050650229677557945
1761336179976954400,7.869954345703125,-0.013382500037550926,0.016071341931819916,-0.004643535241484642
1761336179987020500,7.8800205078125,-0.020312577486038208,0.026016920804977417,-0.0015603937208652496
1761336179997087500,7.89008740234375,-0.019950468093156815,0.032106924802064896,-0.0009069172665476799
1761336180007153400,7.9001533203125,-0.01636798307299614,0.030668552964925766,0.0026936763897538185
1761336180017220600,7.910220703125,-0.02231944352388382,0.03141462802886963,0.001955883577466011
1761336180027287600,7.92028759765625,-0.025928828865289688,0.02443687990307808,0.003731146454811096
1761336180037353500,7.930353515625,-0.025397272780537605,0.024984925985336304,0.009365299716591835
1761336180047420400,7.94042041015625,-0.020465366542339325,0.019880980253219604,0.015333177521824837
1761336180057486600,7.950486572265625,-0.018554864451289177,0.0012736925855278969,0.014609595760703087
1761336180067553500,7.960553466796875,-0.014729766175150871,-0.010646882466971874,0.005314365029335022
1761336180077619200,7.970619140625,-0.008425546810030937,-0.021841514855623245,-0.000510798767209053
1761336180087686700,7.980686767578125,-0.006640163250267506,-0.018244648352265358,0.011013498529791832
1761336180097753600,7.990753662109375,-0.002570039127022028,-0.011665275320410728,0.024116814136505127
1761336180107819300,8.0008193359375,0.0004763505421578884,-0.002143941819667816,0.039267804473638535
1761336180117886500,8.010886474609375,0.00476198922842741,0.0045747896656394005,0.028228532522916794
1761336180127952400,8.020952392578126,0.015594663098454475,0.00950563233345747,0.020183920860290527
1761336180138019300,8.031019287109375,0.02633783221244812,0.016870222985744476,0.00788285955786705
1761336180148086300,8.041086181640624,0.04202571511268616,0.029325295239686966,0.0016143117100000381
1761336180158152400,8.05115234375,0.05253379046916962,0.039302706718444824,0.003710707649588585
1761336180168219400,8.061219482421874,0.056924011558294296,0.03760493919253349,-0.0019530369900166988
1761336180178285300,8.071285400390625,0.0658029243350029,0.04373198747634888,-0.0016390793025493622
1761336180188352300,8.081352294921874,0.07018701732158661,0.0482734814286232,-0.0023775738663971424
1761336180198419500,8.09141943359375,0.0752473771572113,0.041673921048641205,-0.003025949466973543
1761336180208485400,8.1014853515625,0.0774490162730217,0.02834133803844452,-0.009720337577164173
1761336180218552300,8.11155224609375,0.07525266706943512,0.017212286591529846,-0.008851191028952599
1761336180228618500,8.121618408203124,0.07369498163461685,0.005524738691747189,-0.0009868764318525791
1761336180238685400,8.131685546875,0.07348523288965225,0.00486432109028101,0.01127685233950615
1761336180248751400,8.14175146484375,0.07277709990739822,0.0011702515184879303,0.02066769078373909
1761336180258818300,8.151818359375,0.07108385860919952,-0.003081219270825386,0.021428024396300316
1761336180268885200,8.16188525390625,0.06863215565681458,-0.010616634041070938,0.010852344334125519
1761336180278951400,8.171951416015625,0.05898032337427139,-0.011334441602230072,0.0029636407271027565
1761336180289018400,8.182018310546875,0.05215783789753914,-0.004527934826910496,-0.010431259870529175
1761336180299084300,8.192084228515625,0.049050625413656235,-0.006485318299382925,-0.013198801316320896
1761336180309151200,8.202151123046875,0.03614787757396698,-0.011525616981089115,-0.017546411603689194
1761336180319218200,8.21221826171875,0.02205871045589447,-0.020406875759363174,-0.014096632599830627
1761336180329284000,8.2222841796875,0.013392782770097256,-0.02393423393368721,0.0006764549762010574
1761336180339351300,8.232351318359376,0.006778225768357515,-0.013615098781883717,0.017317719757556915
1761336180349417200,8.242417236328125,-0.007556771393865347,-0.009683740325272083,0.024158315733075142
1761336180359484200,8.252484130859376,-0.019960690289735794,-0.014819529838860035,0.01907532662153244
1761336180369550300,8.26255029296875,-0.029851403087377548,-0.02403140440583229,0.003653493709862232
1761336180379617300,8.2726171875,-0.038107115775346756,-0.03880322724580765,-0.006166161969304085
1761336180389684200,8.282684326171875,-0.043644629418849945,-0.039087653160095215,0.00020917970687150955
1761336180399750100,8.292750244140626,-0.04464683681726456,-0.02669364959001541,0.013502583838999271
1761336180409817300,8.3028173828125,-0.04063904657959938,-0.011309102177619934,0.019586041569709778
1761336180419883300,8.31288330078125,-0.03061803989112377,-0.0027195271104574203,0.015547388233244419
1761336180429950200,8.3229501953125,-0.01598610170185566,0.004807097837328911,-0.0014233384281396866
1761336180440017200,8.33301708984375,-0.0009607984684407711,0.01576097682118416,-0.013204596005380154
1761336180450083300,8.343083251953125,0.016556410118937492,0.023385338485240936,-0.01682276651263237
1761336180460150300,8.353150390625,0.030103830620646477,0.02789715677499771,-0.012630483135581017
1761336180470216200,8.36321630859375,0.04559384286403656,0.03174888715147972,0.00006294203922152519
1761336180480283100,8.373283203125,0.059496909379959106,0.0389009527862072,0.0095338961109519
1761336180490349300,8.383349365234375,0.06715483218431473,0.03854408860206604,0.005844886414706707
1761336180500416300,8.393416259765624,0.0795862153172493,0.02914942055940628,0.009059896692633629
1761336180510483200,8.403483154296875,0.08746970444917679,0.030029863119125366,0.020272070541977882
1761336180520549400,8.41354931640625,0.09287967532873154,0.02286362648010254,0.04701294004917145
1761336180530616300,8.4236162109375,0.09085620939731598,0.0060883741825819016,0.06027548015117645
1761336180540682200,8.43368212890625,0.08938434720039368,-0.01646798476576805,0.0626787468791008
1761336180550749200,8.443749267578125,0.08723597228527069,-0.02868177369236946,0.052538227289915085
1761336180560816400,8.45381640625,0.0854763388633728,-0.03867726027965546,0.0365205816924572
1761336180570882300,8.46388232421875,0.07834732532501221,-0.04290236532688141,0.008806128986179829
1761336180580949200,8.47394921875,0.06715293228626251,-0.05003891885280609,-0.0172787643969059
1761336180591015200,8.48401513671875,0.05878554284572601,-0.04905727878212929,-0.029037684202194214
1761336180601082400,8.494082275390625,0.0493004247546196,-0.04644906893372536,-0.02644871175289154
1761336180611148000,8.50414794921875,0.03367778658866882,-0.032542042434215546,-0.019616905599832535
1761336180621215200,8.51421533203125,0.02174326777458191,-0.019047940149903297,-0.002314180601388216
1761336180631282400,8.524282470703126,0.014902140945196152,-0.005357162095606327,0.011857298202812672
1761336180641348000,8.53434814453125,0.005231381393969059,0.0048277173191308975,0.016056649386882782
1761336180651415000,8.5444150390625,-0.005325655452907085,0.006219217553734779,0.01978134736418724
1761336180661481200,8.554481201171875,-0.010721133090555668,0.020900622010231018,0.018069949001073837
1761336180671548200,8.564548095703126,-0.016249854117631912,0.042664505541324615,0.01881030946969986
1761336180681615000,8.574614990234375,-0.016881169751286507,0.05007882043719292,0.005487486720085144
1761336180691681000,8.584680908203126,-0.01605026237666607,0.0658271536231041,-0.008184916339814663
1761336180701748200,8.594748291015625,-0.01660389080643654,0.0701742023229599,-0.019448112696409225
1761336180711814100,8.604814208984376,-0.011212320998311043,0.08103697001934052,-0.011222408153116703
1761336180721881000,8.614881103515625,-0.008806448429822922,0.08635935932397842,-0.0011139251291751862
1761336180731947300,8.624947265625,0.01677747443318367,0.10284432768821716,0.028299888595938683
1761336180742014200,8.63501416015625,0.05881059914827347,0.1936604082584381,0.09109795838594437
1761336180752081200,8.6450810546875,0.07680344581604004,0.27682748436927795,0.12338106334209442
1761336180762147000,8.65514697265625,0.02176094613969326,0.6223421096801758,0.2885077893733978
1761336180772214300,8.66521435546875,-0.0805893987417221,0.44497162103652954,0.14809022843837738
1761336180782280200,8.6752802734375,-0.06732336431741714,0.23196226358413696,0.016502022743225098
1761336180792347100,8.68534716796875,-0.014610356651246548,0.11388888210058212,-0.02174496464431286
1761336180802414000,8.6954140625,-0.010628280229866505,0.04746031016111374,-0.007966813631355762
1761336180812480300,8.705480224609374,-0.03235195204615593,-0.03926020488142967,-0.006222443655133247
1761336180822547200,8.715547119140625,-0.030225103721022606,-0.1114528551697731,-0.025580700486898422
1761336180832613000,8.725613037109374,-0.017773760482668877,-0.17225787043571472,-0.05639294162392616
1761336180842680300,8.735680419921875,-0.018802180886268616,-0.2211817353963852,-0.08880456537008286
1761336180852747300,8.745747314453125,-0.032880980521440506,-0.24725781381130219,-0.09465126693248749
1761336180862813200,8.755813232421875,-0.04065447300672531,-0.1913866102695465,-0.04305238276720047
1761336180872880000,8.765880126953125,-0.06729274243116379,-0.1126590445637703,0.029854578897356987
