time,seconds_elapsed,z,y,x
1761336392604322300,0.073322265625,0.8497650637447833,0.7231683630283922,0.17580168032497168
1761336392614388200,0.08338818359375,0.8772925376176833,0.757800481274724,0.20659721608310935
1761336392624455200,0.093455078125,1.0073030653655528,0.6694284434039145,0.21721330264359712
1761336392634521300,0.103521240234375,1.0637830774784087,0.4777632408516481,0.19686580340266227
1761336392644587300,0.113587158203125,1.0004816949129105,0.2593238670118153,0.2304902789764106
1761336392654654200,0.123654296875,0.6728612673968076,0.10255655750259757,0.3872191561713815
1761336392664720400,0.133720458984375,0.25539105760753156,0.09978223395105451,0.609668605902791
1761336392674786300,0.143786376953125,-0.04003624231219292,0.206331623949483,0.6880326791740954
1761336392684853200,0.153853271484375,-0.212108965241909,0.2786487817393616,0.5126068464241922
1761336392694919200,0.163919189453125,-0.3340723801344633,0.2109361220702529,0.3355656874321401
1761336392704985000,0.173985107421875,-0.5359773467481136,0.10373652453478426,0.27099107006043194
1761336392715052000,0.184052001953125,-0.7882575788587332,-0.043434250720031556,0.22209289137870072
1761336392725118200,0.1941181640625,-0.9505226090013981,-0.21220267140734939,0.20233926637768745
1761336392735185200,0.20418505859375,-0.9182833041757344,-0.30904052246958014,0.17304595187604427
1761336392745251000,0.2142509765625,-0.7402198163986206,-0.3857868948785588,0.11882087908312677
1761336392755317200,0.224317138671875,-0.5344879849731922,-0.5026114490453154,0.10980535958707333
1761336392765384200,0.23438427734375,-0.35495500916540623,-0.5830518536666408,0.19401552853807805
1761336392775450000,0.2444501953125,-0.2277607078820467,-0.5559111506216228,0.33203941300213335
1761336392785516300,0.254516357421875,-0.24125439570546148,-0.5296546830652281,0.4832181087240576
1761336392795583200,0.264583251953125,-0.4001011418372392,-0.5411754633804783,0.48546807960793376
1761336392805649400,0.2746494140625,-0.5273264227807521,-0.4766219618620351,0.39040830760151146
1761336392815715300,0.28471533203125,-0.7335866619944572,-0.4350278956485912,0.3332823988005519
1761336392825782300,0.2947822265625,-0.9880378084033727,-0.44739729214981194,0.32199075106605884
1761336392835848400,0.304848388671875,-1.123462762415409,-0.553386454449594,0.33788960033506155
1761336392845914000,0.3149140625,-1.1925637711703776,-0.6398109384492039,0.27035964028909804
1761336392855981000,0.32498095703125,-1.2089081722497939,-0.7437720289874822,0.12821575328558682
1761336392866047200,0.335047119140625,-1.1327443855017423,-0.8104640038393437,-0.009873159238696097
1761336392876114200,0.3451142578125,-1.0060860907912255,-0.8165263726182281,-0.18787132669463752
1761336392886180000,0.35518017578125,-0.8348995030462741,-0.8556047296836972,-0.4196292875193059
1761336392896246300,0.365246337890625,-0.5821744497776031,-1.0208742023393511,-0.7259587974645197
1761336392906313200,0.375313232421875,-0.43055707037746904,-1.2220111071899533,-1.1422893356993793
1761336392916379100,0.385379150390625,-0.39935529190599917,-1.2818700942166148,-1.5578231705985963
1761336392926445300,0.3954453125,-0.4091898726999759,-1.2427410298772155,-1.7845082120731472
1761336392936512300,0.40551220703125,-0.5886807629317045,-1.1577907831486314,-1.8002710138723252
1761336392946578200,0.415578125,-0.903410729214549,-1.0284140232596546,-1.6724653026923537
1761336392956644400,0.425644287109375,-1.117729771721363,-0.8461195468492806,-1.445840613102913
1761336392966711300,0.435711181640625,-1.1891717906445265,-0.5531097564000637,-1.1606412772089243
1761336392976777200,0.445777099609375,-1.1380050825089216,-0.245373229201138,-0.8687091259285807
1761336392986843100,0.455843017578125,-0.9114584265917539,0.0106846217520535,-0.5114142025735229
1761336392996910300,0.465910400390625,-0.5857224976480007,0.153328713362664,-0.20033903247117996
1761336393006976000,0.47597607421875,-0.3006383125662804,0.19022362544182686,0.006878653597831725
1761336393017043200,0.486043212890625,-0.16210428662300108,0.15530165740344673,0.08287102930173278
1761336393027109000,0.496109130859375,-0.12644728230834007,0.13019848806802184,0.1198755027025938
1761336393037175300,0.50617529296875,-0.012974632385373115,0.10830916621256619,0.23140512879900632
1761336393047242200,0.5162421875,0.09048808017671107,0.052306854614056646,0.37225174253359433
1761336393057308200,0.52630810546875,0.15422726963758468,-0.06181815827041864,0.503046990918368
1761336393067374300,0.536374267578125,0.2323790153324604,-0.10778203706592321,0.5545571056641638
1761336393077441300,0.546441162109375,0.324341259714961,-0.1305918712997809,0.4759978751469403
1761336393087507200,0.556507080078125,0.3641746729314327,-0.17106785673610866,0.35162447650320827
1761336393097573400,0.566573486328125,0.4078191688686609,-0.24233488441854714,0.24563662937767802
1761336393107640300,0.576640380859375,0.47252398849129673,-0.27788590760808435,0.16479769042544065
1761336393117706200,0.586706298828125,0.5906067625582218,-0.21933756478857247,0.10460026522465049
1761336393127772400,0.5967724609375,0.7003624377846718,-0.1710120714282617,0.11233655856512487
1761336393137839400,0.60683935546875,0.6276952609807253,-0.17613818227034062,0.11564736361354588
1761336393147905000,0.616905029296875,0.2582365101665258,-0.15964056339059024,0.10255027389228344
1761336393157972200,0.62697216796875,-0.18045301326215266,-0.10765358838066458,0.18196400234699248
1761336393168038100,0.6370380859375,-0.5373433744043111,-0.05504917559213936,0.22990385739058256
1761336393178104000,0.64710400390625,-0.7684323499262332,-0.012444105705246329,0.17149433851987123
1761336393188171300,0.657171142578125,-0.7740285624980926,-0.03464117833562195,0.0730506962288171
1761336393198237200,0.6672373046875,-0.602840805709362,-0.09718436294496059,-0.0777519327223301
1761336393208303000,0.67730322265625,-0.39793373467028137,-0.11042188405022024,-0.16519918389841914
1761336393218370300,0.687370361328125,-0.19197101709842682,-0.11974939210489391,-0.24076463942714035
1761336393228436200,0.697436279296875,-0.025510873353481293,-0.21093539141789078,-0.26206169447787103
1761336393238502100,0.707502197265625,0.04806348142325878,-0.2630066471777856,-0.21220241567902265
1761336393248569300,0.7175693359375,0.03061959466934204,-0.28303485133647915,-0.18022738781273365
1761336393258635300,0.72763525390625,-0.05014204126298427,-0.22853388421162962,-0.15523147824406622
1761336393268702200,0.7377021484375,-0.16046294915676115,-0.10485789324752985,-0.049983855026587844
1761336393278768400,0.747768310546875,-0.2390980944544077,-0.0734624188348651,0.05227759198695421
1761336393288834300,0.757834228515625,-0.2489098788946867,-0.1296109339710325,0.10746624911502003
1761336393298901200,0.7679013671875,-0.23706980349719523,-0.1503630684901029,0.13156776712723076
1761336393308967200,0.77796728515625,-0.18583879795372485,-0.19606274339146912,0.09495835745856165
1761336393319033000,0.788033203125,-0.12475918309092521,-0.22044285914935172,0.06311433556079864
1761336393329100000,0.79810009765625,-0.07921674457788468,-0.16677278989069164,0.046629795358330006
1761336393339166200,0.808166259765625,-0.07762918312549591,-0.09199168967269361,0.028667072362080215
1761336393349232000,0.818232177734375,-0.0651250908613205,-0.018541545797511935,0.026679259545728563
1761336393359299000,0.828299072265625,-0.057058688783645624,-0.014478388011828065,0.03766074535250664
1761336393369365200,0.838365234375,0.0086661215364933,-0.01642944901436567,0.036053894677758214
1761336393379431200,0.84843115234375,0.13290917179882525,-0.04550217956788838,0.051894657083973283
1761336393389498000,0.858498046875,0.2389098784059286,-0.09909450741522013,0.0728217828437686
1761336393399564300,0.868564208984375,0.26376900985240936,-0.1059667312722653,0.08399404198229313
1761336393409631200,0.87863134765625,0.22787878130376338,-0.07864493603929877,0.04260843088775873
1761336393419697400,0.888697509765625,0.21029811642765997,-0.08531710727959871,0.00658785395771265
1761336393429763300,0.898763427734375,0.13452245221436024,-0.08112484322153031,0.001643017966672778
1761336393439830300,0.908830322265625,0.04859890347421169,-0.05833009695895016,-0.016293109283596275
1761336393449896400,0.918896484375,-0.004233692046999931,-0.06216141875013709,-0.04653539507314563
1761336393459962000,0.928962158203125,-0.1043424180060625,-0.06024703649617731,-0.061259209213405844
1761336393470029000,0.939029052734375,-0.25004385136067864,-0.05809665352925658,-0.08183693701364099
1761336393480095200,0.94909521484375,-0.4105331040024757,-0.010455343040823935,-0.12406740143448114
1761336393490161200,0.9591611328125,-0.5508803168475628,0.03183627698272466,-0.20508966106437146
1761336393500228000,0.96922802734375,-0.5998141513645648,0.037366292450577016,-0.25555012062676247
1761336393510294500,0.97929443359375,-0.5158201093822717,0.06484050176627934,-0.26840492602474986
1761336393520361500,0.989361572265625,-0.3635615094691515,0.07798910247907043,-0.21954211091734468
1761336393530427400,0.999427490234375,-0.18940730409026144,0.04115786675326526,-0.16437245075069368
1761336393540493600,1.00949365234375,-0.03911971198916435,-0.03570632334910333,-0.14888320519588888
1761336393550560500,1.019560546875,0.007639116576313972,-0.08929740908741951,-0.1639337670724839
1761336393560626400,1.02962646484375,0.04026069871783256,-0.10849493457563221,-0.21617862583361563
1761336393570692400,1.0396923828125,0.08198913190066814,-0.10101217760480939,-0.2823315253727138
1761336393580759300,1.04975927734375,0.13018939144611358,-0.05424655397236347,-0.29946685763411224
1761336393590825200,1.0598251953125,0.15592647477090357,-0.031631402060389516,-0.25108678454235195
1761336393600891400,1.069891357421875,0.08283084342181682,-0.021650398533046244,-0.1461851252183318
1761336393610958300,1.079958251953125,-0.04994797999560833,0.008072685687988995,-0.08327303423136473
1761336393621024300,1.090024169921875,-0.13773206191062926,0.034019393175467844,-0.04400675337836146
1761336393631090400,1.10009033203125,-0.16664076100885866,0.039439518528059124,-0.0567668662302196
1761336393641157400,1.110157470703125,-0.1421440331339836,0.002335530275478959,-0.07819916503317653
1761336393651223300,1.120223388671875,-0.15778817698955536,-0.03550597847141325,-0.08369900455847382
1761336393661290500,1.13029052734375,-0.19695698881745338,-0.03281162482090294,-0.0442784099265933
1761336393671356400,1.1403564453125,-0.15595044016838072,0.01708433272652328,0.02449168637357652
1761336393681422600,1.150422607421875,-0.10917524498999118,0.04582688147760927,0.058989437650516625
1761336393691489500,1.160489501953125,-0.046488194930553436,0.023803265717998144,0.08864888205081224
1761336393701555500,1.170555419921875,0.04803016367554664,0.0644689650401473,0.10038951566182076
1761336393711621400,1.180621337890625,0.12649755119085312,0.07782368278428911,0.07496653978750109
1761336393721688600,1.1906884765625,0.16023323205411433,0.038538331904634834,0.033700463419407606
1761336393731754200,1.200754150390625,0.1533510713249445,-0.018571721740067004,-0.008607230956107378
1761336393741820400,1.2108203125,0.16914134565293787,-0.05030548819638789,-0.05449928662441671
1761336393751887400,1.220887451171875,0.2031996825993061,-0.07023615026473999,-0.09494067567139863
1761336393761953300,1.230953369140625,0.22886428520977495,-0.08335026418603957,-0.11956782499291002
1761336393772019500,1.24101953125,0.23841654193103312,-0.11493329706005752,-0.12026062956266105
1761336393782086400,1.25108642578125,0.1874094082713127,-0.12706417209766804,-0.11767565457075833
1761336393792152300,1.26115234375,0.10861059684455394,-0.06887509104460478,-0.1059045527562499
1761336393802219300,1.27121923828125,-0.04808686229884624,0.0324650033403188,-0.049285351368412375
1761336393812285400,1.281285400390625,-0.2835270187675953,0.06081855277381837,0.04043948935084045
1761336393822351400,1.291351318359375,-0.45582595166862006,0.02951251021027565,0.05962612811885774
1761336393832418600,1.30141845703125,-0.5096083952605724,0.009546484567597508,0.011385390432551502
1761336393842484500,1.311484375,-0.4771615851640701,-0.009394143550097942,-0.07273432375602423
1761336393852550400,1.32155029296875,-0.3762111476838588,-0.0667595601953566,-0.08282843226902187
1761336393862617600,1.33161767578125,-0.2536976976931095,-0.10308313865996897,-0.0499018758315593
1761336393872683300,1.341683349609375,-0.17682020971775053,-0.08854206067547202,-0.01256049862653017
1761336393882749400,1.35174951171875,-0.1803384469717741,-0.10950403855293989,-0.004517769685387611
1761336393892816400,1.36181640625,-0.17758534887135027,-0.13476554025523363,-0.019775617637112736
1761336393902882300,1.37188232421875,-0.18705343444049358,-0.10657163836285471,-0.02871536848321557
1761336393912948500,1.381948486328125,-0.2175608009070158,-0.07788096592947841,-0.030264132295176386
1761336393923015400,1.392015380859375,-0.2315671144276857,-0.06255465585142374,-0.06252009599469602
1761336393933081300,1.402081298828125,-0.14977496640384197,-0.029200521651655435,-0.06165354229323566
1761336393943148300,1.412148193359375,-0.021332710886001586,0.02841455890573561,-0.014429507368803024
1761336393953214500,1.42221435546875,0.04436287333965301,0.07083287404887378,0.033604528764262794
1761336393963280400,1.4322802734375,0.04011573728919029,0.04296243195720017,0.01848623541370034
1761336393973347300,1.442347412109375,0.05697627119719982,-0.013009849829226731,-0.024125045018270612
1761336393983413500,1.45241357421875,0.11332944205999373,-0.04769800911173224,-0.1023218719638884
1761336393993479400,1.4624794921875,0.16958733585476873,-0.08781739966273307,-0.12968546051196753
1761336394003546400,1.47254638671875,0.19326865569353102,-0.15236249867901205,-0.10070062743760645
1761336394013612500,1.482612548828125,0.2496761870920658,-0.17277458758875727,-0.10958667533509432
1761336394023678200,1.49267822265625,0.3182879510253668,-0.1201314502250403,-0.0859704566217959
1761336394033745400,1.502745361328125,0.3382476199924946,0.01441153332069516,0.01705700632818043
1761336394043811300,1.512811279296875,0.2079652895659208,0.11476890027858316,0.1081532815311104
1761336394053877200,1.522877197265625,0.06546762068867683,0.06199592599011957,0.1615109969049692
1761336394063944400,1.5329443359375,-0.09526830019056796,-0.05932144608385861,0.08592011467404663
1761336394074010400,1.54301025390625,-0.22817747198939323,-0.10000460799746215,-0.02128266119919717
1761336394084077300,1.553077392578125,-0.3406903369694948,-0.1047649542670697,-0.05585735016986727
1761336394094143500,1.5631435546875,-0.41216041294336314,-0.1292087098456919,-0.06457308300174773
1761336394104209400,1.57320947265625,-0.42281800055801866,-0.14011632669866084,-0.09813501473329961
1761336394114276400,1.5832763671875,-0.35722353861927986,-0.12604147798642515,-0.13414952724874019
1761336394124342500,1.593342529296875,-0.2896048773765564,-0.09312471229061484,-0.14292137418203055
1761336394134408400,1.603408447265625,-0.1934130326002836,-0.11264226351343094,-0.10632365495115519
1761336394144475400,1.613475341796875,-0.08723755394816399,-0.10507643136903642,-0.0516436049323529
1761336394154541600,1.62354150390625,-0.02951075664460659,-0.04707783138677477,-0.046716377663239834
1761336394164607200,1.633607177734375,-0.015858078867197034,-0.02837904920093715,-0.06960720471143722
1761336394174674400,1.64367431640625,-0.06499532700181007,-0.0474209457360208,-0.10797397944144904
1761336394184740400,1.653740234375,-0.10864566815793514,-0.124629492296651,-0.14396869127787648
1761336394194807300,1.663807373046875,-0.07212707857787609,-0.20830635808855294,-0.1722233834467828
1761336394204873200,1.673873291015625,-0.031895021432638164,-0.24405578992702065,-0.16153101677969098
1761336394214939400,1.683939453125,-0.05588321526348591,-0.2315925411298871,-0.12475954841710626
1761336394225006300,1.69400634765625,-0.08727496334910392,-0.18725918614566325,-0.06191014740280806
1761336394235072300,1.704072265625,-0.10425123259127139,-0.09357033716626464,0.010356412710994481
1761336394245138400,1.714138427734375,-0.14261632682085038,-0.0742415134485811,0.08904796437099576
1761336394255205400,1.724205322265625,-0.17593056740164756,-0.09868417304866016,0.09932524743117392
1761336394265271600,1.734271484375,-0.146949387589097,-0.09948343366757034,0.020203414595127103
1761336394275337500,1.74433740234375,-0.06257014568150043,-0.1142100973520428,-0.05166837404742837
1761336394285404400,1.754404296875,0.08228782258629798,-0.16658377012461423,-0.04244834495522082
1761336394295470600,1.764470703125,0.18964345093369483,-0.17923391979597508,0.003083426033332944
1761336394305536500,1.77453662109375,0.1941021839082241,-0.15553192249536513,0.052273938725143666
1761336394315603500,1.784603515625,0.17464169663488863,-0.17368454204052686,0.09974734530076385
1761336394325669400,1.79466943359375,0.13251637308895586,-0.14751622769162057,0.13314692607745526
1761336394335735300,1.8047353515625,0.02810848863124847,-0.07763904693238437,0.12862090002037585
1761336394345802200,1.81480224609375,-0.0996194811373949,-0.0847330968465656,0.14654197583198547
1761336394355868400,1.824868408203125,-0.2119306860655546,-0.12000658173635602,0.11740721289291978
1761336394365935400,1.834935302734375,-0.2897796494215727,-0.12103811674118041,0.08062968011572956
1761336394376001300,1.845001220703125,-0.39195407573878766,-0.07273512747362255,0.04941292327083647
1761336394386067500,1.8550673828125,-0.4966588973164558,-0.03561426115147769,0.0443398577902466
1761336394396134400,1.865134521484375,-0.5130787017196416,-0.0747067198075354,0.06641220806241036
1761336394406200300,1.875200439453125,-0.41706805872917174,-0.09512143906578421,0.03404423535577953
1761336394416266500,1.8852666015625,-0.24826339768469333,-0.06446509258262813,-0.05417129677906632
1761336394426333400,1.89533349609375,-0.04118482782542705,-0.03636252223551273,-0.10761449847929179
1761336394436399400,1.9053994140625,0.14303601353764533,-0.056091305056214326,-0.14697905207499862
1761336394446465500,1.915465576171875,0.23472411715388297,-0.11130984586589038,-0.16898381700366735
1761336394456532500,1.925532470703125,0.2794382881492376,-0.16268946609981358,-0.19370142108760774
1761336394466598400,1.935598388671875,0.2815875751376152,-0.16009287373535333,-0.21661190268434583
1761336394476664300,1.945664306640625,0.2356371403455734,-0.08474420276246965,-0.1787738280035555
1761336394486731300,1.955731201171875,0.13390227448940276,-0.01544920580536127,-0.03882138662971556
1761336394496797400,1.96579736328125,0.05737666869163513,0.0008159194927662611,0.09470613626316189
1761336394506864400,1.975864501953125,-0.009640519526600838,0.021773659586533902,0.14196801897995173
1761336394516929800,1.9859296875,-0.10924538761675358,0.0223630037818104,0.060324339516088364
1761336394526995700,1.99599560546875,-0.15154957486093043,0.014326412320509551,-0.011580620743706822
1761336394537063000,2.00606298828125,-0.12969722401499748,-0.02240969246774912,-0.07324702251851559
1761336394547128600,2.016128662109375,-0.12035071899890899,-0.07778817307949065,-0.10859035777412354
1761336394557194800,2.02619482421875,-0.09703706342875956,-0.13279708972647786,-0.13652436662130057
1761336394567261700,2.03626171875,-0.07184358546137809,-0.17522906806878744,-0.14855616519860923
1761336394577327600,2.04632763671875,-0.007780570873618125,-0.21500439442247152,-0.13332162505723535
1761336394587393800,2.056393798828125,0.044454643276333805,-0.21772885095030067,-0.06479520131982863
1761336394597460700,2.066460693359375,0.031790976536273954,-0.15596271512806414,0.0031263153269886967
1761336394607526700,2.076526611328125,-0.023142975178360937,-0.05237666844725609,0.04192972790859639
1761336394617592800,2.0865927734375,-0.08314882332980632,0.006153334997966885,0.03519311312995851
1761336394627659800,2.09665966796875,-0.17244506337344645,0.010104337646067142,-0.008279094980284571
1761336394637726000,2.106725830078125,-0.22050036149024962,-0.028196020784229038,-0.07805968349725008
1761336394647793000,2.11679296875,-0.24988193879723547,-0.05890212469324469,-0.15258980462886393
1761336394657858800,2.12685888671875,-0.31631051347255706,-0.07849354486986994,-0.16699914599247276
1761336394667925000,2.136925048828125,-0.33572599256038665,-0.07219502924755215,-0.09030278673768043
1761336394677992000,2.146991943359375,-0.2592500711232424,0.005355243422836065,0.009392755310609936
1761336394688057600,2.1570576171875,-0.12163842072188853,0.021072452514618634,0.0622593992318958
1761336394698123800,2.167123779296875,0.0050993689656257625,-0.032105376247689124,0.03245141320638358
1761336394708190700,2.177190673828125,0.12043839728236198,-0.07771795738749206,-0.04009732484966516
1761336394718256600,2.187256591796875,0.2124585093319416,-0.09752024383582174,-0.07614749320037663
1761336394728322800,2.19732275390625,0.26599662277400493,-0.11743220120370387,-0.09159757578857243
1761336394738389800,2.2073896484375,0.2538607793003321,-0.12620331748463212,-0.0631221535410732
1761336394748455700,2.21745556640625,0.18099895670711993,-0.09762078160084783,-0.02801584191173315
1761336394758521900,2.22752197265625,0.06353343775570393,-0.06593143880814313,-0.010945464645326137
1761336394768588800,2.2375888671875,-0.08978139321208,-0.05216828639358282,-0.039925840740278364
1761336394778654700,2.24765478515625,-0.1953530607521534,-0.06584449117705225,-0.06958177800923586
1761336394788722000,2.257721923828125,-0.21540274609029292,-0.0773881409112364,-0.08040325094871223
1761336394798787800,2.267787841796875,-0.18153847041130064,-0.044056072412803765,-0.05250051402263343
1761336394808853800,2.277853759765625,-0.11823182714879513,-0.042581104489415884,-0.03820581201463938
1761336394818921000,2.2879208984375,-0.04674187743067741,-0.08676942497976124,-0.014176920847222208
1761336394828987000,2.29798681640625,-0.06331190395951271,-0.0770742526564747,0.012758067025244235
1761336394839052800,2.308052734375,-0.1466185481995344,-0.05979702770635485,0.014497677234187722
1761336394849119700,2.31811962890625,-0.14842881249189377,-0.09768084122501314,-0.018945596553757785
1761336394859185700,2.328185546875,-0.1335778648406267,-0.12632701692953704,-0.03176774179115891
1761336394869251800,2.338251953125,-0.1486275499343872,-0.12251688405685127,-0.03139664345644414
1761336394879318800,2.34831884765625,-0.15846856046915053,-0.10926182729490101,-0.0707283176958561
1761336394889384700,2.358384765625,-0.11958616436719893,-0.10162176087051629,-0.09254771612025797
1761336394899451000,2.368450927734375,-0.1252040042489767,-0.065210869448632,-0.05563384361229837
1761336394909517800,2.378517822265625,-0.1598556309133768,-0.03374079542979598,0.00760163411013782
1761336394919583700,2.388583740234375,-0.14561843124628066,-0.028204642482101916,0.03233122089281678
1761336394929650000,2.39864990234375,-0.10564122564494609,-0.023378829760849474,-0.01819572803452611
1761336394939716900,2.408716796875,-0.05308277088999748,-0.0219721047680825,-0.013569748734310268
1761336394949782800,2.41878271484375,-0.04716740936636925,-0.0364352221455425,0.015455562480911612
1761336394959849700,2.428849609375,-0.09674187987446785,-0.07044665121026336,-0.01913242436274886
1761336394969916000,2.438916015625,-0.11026011761724948,-0.07162782381884754,-0.07555551865659654
1761336394979981600,2.448981689453125,-0.058926236221194264,-0.03745470138639211,-0.10611198496185242
1761336394990048800,2.459048828125,-0.028289690417051313,0.002096095496416092,-0.08575162623934447
1761336395000114700,2.46911474609375,-0.030261282750964163,-0.01684825894832611,-0.0554193971440196
1761336395010180600,2.4791806640625,-0.014410218146443367,-0.052065921997651456,-0.07214161855988203
1761336395020247800,2.489247802734375,0.0378846172362566,-0.027482246491685507,-0.1277422174897045
1761336395030313700,2.499313720703125,0.07264730305969715,-0.010520298035815357,-0.14711561100147663
1761336395040379600,2.509379638671875,0.08951660479605197,-0.013945157917961477,-0.09298691125512122
1761336395050446800,2.51944677734375,0.10312953508496284,-0.06566635813117026,-0.041015462607890366
1761336395060512800,2.5295126953125,0.10742051027715206,-0.09919774859398603,-0.022124518850818276
1761336395070578700,2.53957861328125,0.04522738121449947,-0.04752659806758165,-0.013442176831886171
1761336395080646000,2.54964599609375,-0.04663724801242351,-0.011483224783837795,0.015123846308514474
1761336395090711800,2.5597119140625,-0.12009586745500564,-0.014584332604333757,0.05416486703827977
1761336395100778800,2.56977880859375,-0.19716449408829212,-0.032667832436040045,0.03744184190481901
1761336395110845000,2.579844970703125,-0.23127368443906307,-0.03534318912513554,-0.02970606002099812
1761336395120910800,2.589910888671875,-0.23804420148730276,-0.07073299387097358,-0.11634864375069737
1761336395130977800,2.599977783203125,-0.2093903539329767,-0.12692439830079674,-0.12250870075039565
1761336395141043700,2.610043701171875,-0.16551614089310168,-0.123084820137918,-0.09610957332029939
1761336395151109600,2.620109619140625,-0.12078501876294612,-0.06193031340800225,-0.08431443304307758
1761336395161176600,2.630176513671875,-0.10822773500680923,-0.020008184283971785,-0.06265628959499299
1761336395171242800,2.64024267578125,-0.12301906142532824,-0.01308686058819294,-0.05533223031722009
1761336395181308700,2.65030859375,-0.13736322859823702,-0.03428388933055103,-0.055697775693982834
1761336395191375600,2.660375732421875,-0.13526771762371062,-0.06394187242612243,-0.048333676666766405
1761336395201441800,2.67044189453125,-0.13096505199372768,-0.038352819269895554,-0.018438816075399517
1761336395211507700,2.6805078125,-0.16758768647015093,-0.016775266777351496,0.008861571043357252
1761336395221574700,2.69057470703125,-0.18149755387902258,-0.020067367125302552,0.00668283876478672
1761336395231640800,2.700640869140625,-0.1098363392472267,-0.05619659206159412,-0.013155907236412167
1761336395241707800,2.710707763671875,-0.024030279406905174,-0.09037760553956031,-0.03418554352261126
1761336395251774000,2.72077392578125,0.07361760939657688,-0.09697335054278373,-0.04888897246196866
1761336395261840000,2.73083984375,0.11033961259424686,-0.062379591545462604,-0.07706957648135722
1761336395271906800,2.74090673828125,0.16863748778402804,-0.04966960144564509,-0.0776001762267202
1761336395281973000,2.750972900390625,0.21381576915979383,-0.08207637179270386,-0.04746661150865256
1761336395292038700,2.76103857421875,0.21995441804528235,-0.08330014143399894,-0.012851371331885457
1761336395302105600,2.771105712890625,0.16130758328735828,-0.059057680581137535,0.012385068994387984
1761336395312171800,2.781171875,0.08077157280445098,-0.010629092172533274,0.04925101070739329
1761336395322237700,2.79123779296875,-0.0715992553114891,0.02243672660514712,0.07783413111306726
1761336395332304600,2.8013046875,-0.23263035974502563,0.007423793325200677,0.07681143700182437
1761336395342370800,2.811370849609375,-0.2953875524312258,-0.025126915537193414,0.04374569128938019
1761336395352436700,2.821436767578125,-0.33482290624082084,-0.050224020458012816,0.006964212989434599
1761336395362503700,2.831503662109375,-0.29181553916335107,-0.09647066171765327,0.011302096063271164
1761336395372569900,2.84156982421875,-0.19257132107913494,-0.13514920581057666,0.0156472125954926
1761336395382635800,2.8516357421875,-0.040216859576106066,-0.12537914162017405,0.00492686194293201
1761336395392702700,2.86170263671875,0.10531272434294223,-0.11700286987572908,0.016613281148672103
1761336395402769000,2.871768798828125,0.15183599058687686,-0.10842596099264919,0.05620104904100299
1761336395412835800,2.8818359375,0.11613748521804809,-0.09680588502138852,0.1060678535591811
1761336395422901800,2.89190185546875,0.04197627046406269,-0.08061331350281833,0.11876249995939434
1761336395432967700,2.9019677734375,-0.04403554108142853,-0.08169497125968336,0.10636237952634692
1761336395443035000,2.912034912109375,-0.14339666354358196,-0.12274572437666356,0.08772716409601271
1761336395453100800,2.922100830078125,-0.21921324428915975,-0.12686083154529332,-0.004533624841645359
1761336395463166700,2.932166748046875,-0.18733458946943282,-0.1255051791526377,-0.0780786804586649
1761336395473233700,2.942233642578125,-0.10090659833848475,-0.12839264422245322,-0.09542086040377616
1761336395483299800,2.9522998046875,-0.032901568126678465,-0.11929149226956069,-0.10304770202040672
1761336395493365800,2.96236572265625,0.010607903254032134,-0.10553813059665262,-0.039566578973829744
1761336395503432700,2.9724326171875,0.025939912420511243,-0.06966463398709893,0.041012539998441934
1761336395513499400,2.98249951171875,-0.01631225237548351,0.006382394513487815,0.09392470356188715
1761336395523565600,2.992565673828125,-0.06259060394763946,-0.0031676702506840226,0.09386215971969067
1761336395533632500,3.002632568359375,-0.06651742200255394,-0.04079918950870633,0.032149946041777726
1761336395543698400,3.012698486328125,-0.08263619763255119,-0.09971958051100373,-0.036390433155745264
1761336395553765600,3.022765625,-0.10412731395065784,-0.14261376953758298,-0.09788272047266364
1761336395563831600,3.03283154296875,-0.11672902137041091,-0.1363354199204594,-0.12815225959531962
1761336395573897500,3.0428974609375,-0.07382862179875374,-0.08605294727347791,-0.11580043528340757
1761336395583964700,3.052964599609375,-0.07573357863724231,-0.04317483259886503,-0.07813961686566472
1761336395594030300,3.0630302734375,-0.10943652627468109,-0.014052125423774122,-0.022778014323487878
1761336395604096500,3.073096435546875,-0.062328738141059874,-0.0179924605473876,0.0078065090324729676
1761336395614163500,3.08316357421875,0.0006546645164489745,-0.03158632080964744,-0.00022840192839503287
1761336395624229400,3.0932294921875,0.021998481318354607,-0.042626039609685536,0.015383374027535318
1761336395634295600,3.103295654296875,-0.0136941788315773,-0.06185556767135858,0.0024054537065327166
1761336395644362500,3.113362548828125,0.01017243444621563,-0.07915909610651432,-0.02999474076926708
1761336395654428400,3.123428466796875,0.06668167265355586,-0.06357274685278534,-0.046547085510939355
1761336395664495400,3.133495361328125,0.07759644989967346,-0.041752983102202414,-0.0022437603387981653
1761336395674561500,3.1435615234375,0.03401917397975921,-0.056269438102096316,0.03925758608989417
1761336395684627500,3.15362744140625,0.003013210341334343,-0.10203216830231249,0.011712503495067358
1761336395694694400,3.1636943359375,-0.03998655795156956,-0.11745704338401555,-0.03814516786858439
1761336395704760600,3.173760498046875,-0.10349603030979633,-0.11142185487300157,-0.05569587599784136
1761336395714826500,3.183826416015625,-0.18721943865716456,-0.10973317113369703,-0.0915535174511373
1761336395724893700,3.193893798828125,-0.2350362518429756,-0.10608575454205274,-0.12296462782435118
1761336395734959400,3.20395947265625,-0.313345233926177,-0.07721987167224288,-0.1048183649547398
1761336395745025300,3.214025390625,-0.41952421970963477,-0.028243513187766075,-0.013958382725715637
1761336395755092500,3.224092529296875,-0.49095337915122506,0.0043465778369456524,0.009768456755205988
1761336395765158400,3.234158447265625,-0.4228197541236877,-0.035948315411433576,-0.03853606688231229
1761336395775224300,3.244224365234375,-0.2400257306933403,-0.08298815287537872,-0.08899053509533404
1761336395785291500,3.25429150390625,-0.02748947995007038,-0.09994915148317814,-0.08700586408413946
1761336395795357400,3.264357421875,0.12744623021781443,-0.1067295323383063,-0.04575856548175215
1761336395805423600,3.274423583984375,0.19118366611301899,-0.13283515671454368,-0.029844810904562473
1761336395815490600,3.284490478515625,0.20953706892728804,-0.12331066478304564,-0.04097060055285692
1761336395825556500,3.294556396484375,0.21339315983355045,-0.0900643018066883,-0.03508103105761111
1761336395835623400,3.30462353515625,0.12853636354207992,-0.06575111380517483,0.03154533121213317
1761336395845689600,3.314689697265625,-0.03737140701711177,-0.10135499969311058,0.05706139219738543
1761336395855755500,3.324755615234375,-0.1327373223632574,-0.13204897477291525,0.035969942721351976
1761336395865822500,3.334822509765625,-0.17376958997547626,-0.1302482089612633,-0.011268997511267661
1761336395875888600,3.344888671875,-0.20242869822680948,-0.10124730153493583,-0.02594648829177022
1761336395885954300,3.354954345703125,-0.2452355742961168,-0.0871397926621139,0.009378580654785036
1761336395896021200,3.365021240234375,-0.22184943801164625,-0.05967880815416574,0.007008490522578358
1761336395906087400,3.37508740234375,-0.15355682303011417,-0.039993499149009584,-0.02731653453595936
1761336395916153300,3.3851533203125,-0.09391220940649508,-0.0639977673318237,-0.07704707238860428
1761336395926220500,3.395220458984375,-0.01234744039773941,-0.11080796075835823,-0.08839892587773501
1761336395936286500,3.405286376953125,0.06277531286478043,-0.10654197387695312,-0.0685006317090243
1761336395946352400,3.415352294921875,0.08072364200949668,-0.0939784065105021,-0.019817191756516694
1761336395956419600,3.425419677734375,-0.0034913492470979688,-0.08169102573692798,0.03618416999392211
1761336395966485500,3.435485595703125,-0.11909282789230347,-0.043295536369085307,0.06820077197961509
1761336395976551400,3.445551513671875,-0.23552257405519483,-0.018432386334612964,0.07065152613259852
1761336395986618600,3.45561865234375,-0.30958675817549225,-0.027983693207800385,0.05801102107241749
1761336395996684500,3.4656845703125,-0.27539047406315803,-0.07034202179200946,0.038916006110608574
1761336396006751500,3.47575146484375,-0.10744973637163638,-0.09201200180836021,0.047825288753211494
1761336396016817700,3.485817626953125,0.038137715214490886,-0.12231098622120916,0.06793693341165781
1761336396026883300,3.49588330078125,0.11343290243446827,-0.15960494408793746,0.06069646076411008
1761336396036950500,3.505950439453125,0.12894494434297085,-0.15976006158441305,0.019938041657209395
1761336396047016400,3.516016357421875,0.12963643373847006,-0.14672646555341778,-0.025360943488776683
1761336396057082400,3.526082275390625,0.11521510967612265,-0.10294343792833387,-0.0035026012934744354
1761336396067149300,3.5361494140625,0.08139701122641563,-0.05876520044058561,0.05460340458601713
1761336396077215500,3.546215576171875,0.004067103308439255,-0.011781842404231429,0.1051923128336668
1761336396087281400,3.556281494140625,-0.12516659484803677,0.0013792524639517068,0.15333558149486778
1761336396097348400,3.566348388671875,-0.2699836465835571,-0.0172701376222074,0.16676738306321204
1761336396107414500,3.57641455078125,-0.38111645538210864,-0.00046915188170969485,0.1608723336752504
1761336396117481500,3.5864814453125,-0.4378162477254867,0.05615735602974891,0.12680910135805606
1761336396127547400,3.59654736328125,-0.4363794929206371,0.05804148927591741,0.09283632380329072
1761336396137613600,3.606613525390625,-0.36088673730194565,0.01884293989688158,0.07067446861676871
1761336396147680500,3.616680419921875,-0.21229192059338092,-0.025383447581529616,0.036217268545925614
1761336396157746400,3.626746337890625,-0.04829845922291279,-0.03322860812395811,-0.006086261111125349
1761336396167812600,3.6368125,0.04661211357116699,-0.04589673184342682,-0.04349157039783895
1761336396177879600,3.646879638671875,0.1357218911319971,-0.026947628158330916,-0.09551949847266078
1761336396187945500,3.656945556640625,0.24023908118307588,0.009324366249516606,-0.125731242993474
1761336396198011400,3.667011474609375,0.3061450932890177,0.03388648751080036,-0.11986805004850029
1761336396208078300,3.677078369140625,0.338711145851016,0.014133812357857822,-0.11447218235433101
1761336396218144500,3.68714453125,0.31763971624970433,-0.045592415134608745,-0.1457070593778044
1761336396228210400,3.69721044921875,0.23678221872746943,-0.07044387473128735,-0.1279043492488563
1761336396238277400,3.70727734375,0.09847089562416077,-0.12501133122108876,-0.12233159061782062
1761336396248343600,3.717343505859375,-0.029614217019081113,-0.18955650330260396,-0.11952800443917512
1761336396258409500,3.727409423828125,-0.09042787442207335,-0.21648769178278743,-0.06043145315237343
1761336396268476400,3.737476318359375,-0.1471329274624586,-0.18399097812995313,0.05736307855769991
1761336396278542600,3.74754248046875,-0.13361176711022854,-0.11859985674358904,0.21446276182644067
1761336396288609500,3.757609619140625,-0.049126142218708986,-0.12025799921415746,0.31729404461719096
1761336396298675500,3.767675537109375,-0.05233049121797084,-0.13401844821497796,0.328116102078557
1761336396308741600,3.77774169921875,-0.07872866879999638,-0.13091755959019064,0.3115009212337434
1761336396318808600,3.78780859375,-0.0450648841291666,-0.16967676770389079,0.32133104504831134
1761336396328874500,3.79787451171875,-0.004131985238194465,-0.2154060340259224,0.31679062513969836
1761336396338940400,3.8079404296875,0.005581599524617195,-0.20705730787552892,0.25393041047044096
1761336396349007400,3.81800732421875,-0.009606032735109328,-0.1662838373299688,0.1512779913779348
1761336396359073300,3.8280732421875,-0.09086217418611049,-0.12138137722089885,0.06819178495556116
1761336396369139500,3.838139404296875,-0.16048106933534145,-0.08381137889176607,0.0011318535741418599
1761336396379206400,3.848206298828125,-0.21832243292927742,0.0029079964011907576,-0.04427665636092424
1761336396389272600,3.8582724609375,-0.32822716123759743,0.15119915398806333,0.034455957961827516
1761336396399338500,3.86833837890625,-0.36103052968680854,0.09255041953399777,-0.004610708665847778
1761336396409405400,3.878405517578125,-0.3854085996180773,0.017750395419821142,-0.22251586603112516
1761336396419471600,3.8884716796875,-0.4539496364027261,0.0901250920832157,-0.4749804417327046
1761336396429538600,3.89853857421875,-0.5244716178715229,0.07061418979689478,-0.6188181270420551
1761336396439604500,3.9086044921875,-0.5658247880011796,0.026040377120301127,-0.667241747014597
1761336396449670700,3.918670654296875,-0.5176952556043863,0.053282385115325445,-0.6409962757762521
1761336396459737600,3.928737548828125,-0.4023860379040241,0.10320713036581873,-0.5625882172327489
1761336396469803500,3.938803466796875,-0.2722580212563276,0.16388678612560034,-0.4648480470359325
1761336396479869400,3.948869384765625,-0.10048048188090324,0.2270730178788304,-0.3705467652466148
1761336396489936600,3.9589365234375,0.08962941752076148,0.2473498630363494,-0.27558322015628217
1761336396500002300,3.969002197265625,0.2812649190545082,0.23481902889572082,-0.163985789520666
1761336396510068500,3.979068359375,0.4057552220761776,0.22044315141029655,-0.06355440747849643
1761336396520134400,3.989134521484375,0.48309974304139613,0.18431158838644623,0.00939129400588572
1761336396530200600,3.99920068359375,0.5776064112097025,0.12464213258251547,0.05866597784981131
1761336396540266500,4.0092666015625,0.6597820055931806,0.04886149993315339,0.10437865836322308
1761336396550333400,4.01933349609375,0.675493953987956,-0.002845525624230504,0.1458119079917669
1761336396560399600,4.029399658203125,0.608445201587677,-0.027967838051542637,0.17279731087721883
1761336396570465500,4.039465576171875,0.45487318098843094,0.0026334172435104847,0.15970957350619136
1761336396580532500,4.049532470703125,0.2445826633453369,0.07077858657836913,0.12147935770265757
1761336396590598700,4.0595986328125,-0.00454699577987194,0.11495528969615697,0.06112075059078633
1761336396600664600,4.06966455078125,-0.22938743230104444,0.1468271494489163,-0.033217429142817854
1761336396610731500,4.0797314453125,-0.38422026661634445,0.14325762039907275,-0.1455465350538492
1761336396620797700,4.089797607421875,-0.4117880724996328,0.11226290880702436,-0.24653810826204717
1761336396630863400,4.09986328125,-0.3748573949873447,0.10620981931313872,-0.26103929262757297
1761336396640930300,4.109930419921875,-0.23844284541606903,0.022375571002438664,-0.32297640110254283
1761336396650996500,4.11999658203125,-0.041237434795498844,-0.16003741722106932,-0.45740525674931704
1761336396661062400,4.1300625,0.13935001850128173,-0.32964557666815814,-0.5857490933939814
1761336396671129300,4.14012939453125,0.2159393371850252,-0.4459090994186699,-0.6001251170098781
1761336396681195500,4.150195556640625,0.08384674246609211,-0.4761843376297503,-0.4974000710725784
1761336396691262500,4.160262451171875,-0.17816753267347812,-0.397252255212143,-0.35617132615260777
1761336396701328600,4.17032861328125,-0.42134968157112596,-0.2966960046812892,-0.1775220743767917
1761336396711394600,4.18039453125,-0.6133376498043537,-0.23267449114769695,0.037717297845333814
1761336396721461500,4.19046142578125,-0.6948463047116994,-0.18074395903274415,0.20292751459442077
1761336396731527700,4.200527587890625,-0.6092886666744947,-0.1711586037594825,0.3411947793602943
1761336396741593600,4.210593505859375,-0.43043373625874515,-0.20956059593334792,0.4465821033094078
1761336396751660500,4.22066064453125,-0.17136837405264377,-0.20798151004835963,0.4930328157737851
1761336396761726700,4.230726806640625,0.10457213510870933,-0.17055113938562572,0.5250147117722779
1761336396771792400,4.24079248046875,0.2837099741190672,-0.14762597167640923,0.5467432901080698
1761336396781859600,4.250859619140625,0.35530046160221096,-0.11309577943459152,0.5368668429337442
1761336396791925500,4.260925537109375,0.34359482623934745,-0.05103285262286663,0.4621933678086847
1761336396801991400,4.270991455078125,0.28808979663848877,-0.018212167712673543,0.3638264440156519
1761336396812058400,4.281058349609375,0.2148363443791866,-0.0308913973480463,0.26557372118681666
1761336396822124500,4.29112451171875,0.12451426841914653,-0.04570362042412161,0.15954685722514986
1761336396832191500,4.30119140625,-0.03239771025776863,0.007001330129429698,0.0524921845857054
1761336396842257400,4.31125732421875,-0.2250274835258722,0.05032536194063723,-0.051293549385666846
1761336396852323600,4.321323486328125,-0.3278197494804859,0.057915744004398584,-0.1759416733175516
1761336396862390500,4.331390625,-0.3489338491797447,0.07041048391833901,-0.30752346897013483
1761336396872456400,4.34145654296875,-0.3079308076620102,0.07958433578126133,-0.4202761340554803
1761336396882522600,4.351522705078125,-0.19461948578059673,0.08626987795978784,-0.4626463722731918
1761336396892589600,4.361589599609375,-0.11519406688809394,0.047071547776460644,-0.4580660587456077
1761336396902655500,4.371655517578125,-0.1075187099546194,-0.01205021101683378,-0.4613192153226584
1761336396912721700,4.3817216796875,-0.14213643434941767,-0.045626390469446776,-0.4584831151138991
1761336396922788600,4.39178857421875,-0.1655418598562479,-0.05629946791417897,-0.4363124190337956
1761336396932854500,4.4018544921875,-0.14172025476396083,-0.05181457758508622,-0.39913047017417846
1761336396942921500,4.41192138671875,-0.0046533787637948985,-0.06467690870240331,-0.34578071891106665
1761336396952987400,4.4219873046875,0.16540975790917872,-0.08837678711116313,-0.26530681387893856
1761336396963053600,4.432053466796875,0.2999450696051121,-0.11328523759208618,-0.17713614379912615
1761336396973120500,4.44212060546875,0.409680286565423,-0.1449536837272346,-0.06742971454188228
1761336396983186400,4.4521865234375,0.46114685443043707,-0.2200633583124727,0.03747508658729493
1761336396993253400,4.46225341796875,0.46818917415738104,-0.2788476287797093,0.11893697974346577
1761336397003319600,4.472319580078125,0.4219979163467884,-0.3297235372751951,0.2137332054428756
1761336397013385500,4.482385498046875,0.2451800447165966,-0.31787798198498785,0.3116507780332118
1761336397023452400,4.492452392578125,0.005398059651255607,-0.24127047005742788,0.4135980445310473
1761336397033518600,4.5025185546875,-0.22584172251820564,-0.1338924106825143,0.48768918972350656
1761336397043584500,4.51258447265625,-0.3748375212430954,-0.09096051999405026,0.5076153948124498
1761336397053651500,4.5226513671875,-0.38830432105958457,-0.10278021019063889,0.4564581120923161
1761336397063717600,4.532717529296875,-0.35312253304123875,-0.14976115707419813,0.344945948587358
1761336397073783600,4.542783447265625,-0.27800328691005705,-0.17636304053477941,0.23286292639188466
1761336397083850500,4.5528505859375,-0.223319510564208,-0.21959011477753518,0.11451295275613665
1761336397093916400,4.56291650390625,-0.2510620884925127,-0.20874058478735386,0.003488499702885747
1761336397103982300,4.572982421875,-0.32549919757843015,-0.16013693207278848,-0.1135304079921916
1761336397114049500,4.583049560546875,-0.35399814683198927,-0.10659881863072514,-0.21644936906639486
1761336397124115500,4.593115478515625,-0.3242898217886686,-0.07481522168330848,-0.27486060497015713
1761336397134182400,4.603182373046875,-0.24397476058006284,-0.02943352668993175,-0.3275938683027401
1761336397144248600,4.61324853515625,-0.1455868670642376,0.03161379333846271,-0.3735334163745865
1761336397154314500,4.623314453125,-0.058846156722307204,0.06415924150384962,-0.39719343769699333
1761336397164381400,4.63338134765625,-0.05065875861346721,0.08950235707499087,-0.41279198884516954
1761336397174447600,4.643447509765625,-0.10918927351534366,0.10292093383558094,-0.4697288048148155
1761336397184513500,4.653513427734375,-0.18178280056118964,0.07611972841061651,-0.4826446927502751
1761336397194580500,4.66358056640625,-0.21476386366486547,0.05097608093433082,-0.44489385796152053
1761336397204646700,4.673646728515625,-0.22461598011553285,0.033202669965103265,-0.40406259281411766
1761336397214712600,4.683712646484375,-0.21425591414272785,0.02507313952334225,-0.3595028086628765
1761336397224779500,4.693779541015625,-0.1703337703078985,0.0351471550963819,-0.3255985662996769
1761336397234845400,4.703845458984375,-0.10602467200458049,0.04112688709311187,-0.2415420535404235
1761336397244911400,4.713911376953125,0.024054244804382324,0.01918744248561561,-0.16984277192056177
1761336397254978300,4.723978271484375,0.17976210838854312,0.0030504005465656517,-0.07854783234037459
1761336397265044500,4.73404443359375,0.27701486039459705,-0.020658172625303266,0.05939728779904544
1761336397275111400,4.744111328125,0.34038229393362995,-0.006187821789458394,0.18269553149193524
1761336397285177300,4.75417724609375,0.36035599142611024,0.03494038047790527,0.28512890100628135
1761336397295243500,4.764243408203125,0.3516530450105667,0.10051781821660696,0.3565608369268477
1761336397305310500,4.774310546875,0.335091201788187,0.11815364734604954,0.40093430472575126
1761336397315376600,4.784376708984375,0.29562253023087975,0.09627323944941163,0.39758309460170566
1761336397325442600,4.794442626953125,0.24324235465228555,0.04770991874523461,0.3198217364639044
1761336397335509500,4.804509521484375,0.17325637975633143,-0.04313230863139033,0.1627680842939764
1761336397345575700,4.81457568359375,0.08979542173743248,-0.16420973446965217,-0.04419833042770624
1761336397355641600,4.8246416015625,0.0061275429695844645,-0.22193762775175271,-0.2702055822385475
1761336397365708500,4.83470849609375,-0.09457681079506873,-0.22404745951257646,-0.44288839989062395
1761336397375774700,4.844774658203125,-0.1890951694011688,-0.19585129259787498,-0.5175909549796953
1761336397385841700,4.854841552734375,-0.24477029487192628,-0.15219868641942738,-0.46798272833246735
1761336397395907300,4.8649072265625,-0.2950555439978838,-0.10198832916058599,-0.3870102991936728
1761336397405973500,4.874973388671875,-0.36602936088740823,-0.06377981373220681,-0.3266178994100541
1761336397416040400,4.88504052734375,-0.44499476105272767,-0.0621237170882523,-0.32167616869155313
1761336397426106400,4.8951064453125,-0.5166863708227872,-0.09521540095955133,-0.3606232640601694
1761336397436172500,4.905172607421875,-0.5226110846966505,-0.16604579079039394,-0.37907888513989746
1761336397446239500,4.915239501953125,-0.44435470958352086,-0.22432978358529507,-0.3327037221297622
1761336397456305400,4.925305419921875,-0.3140823160290718,-0.16933299576751887,-0.21129786805473266
1761336397466371600,4.93537158203125,-0.18523907849490642,-0.09103117407746612,-0.0585437397096306
1761336397476438500,4.9454384765625,-0.1074450601965189,-0.02977707943059504,0.04424385006986558
1761336397486504400,4.95550439453125,-0.018189152163267136,0.048266602779924866,0.09717084587626158
1761336397496570600,4.965570556640625,0.02284428449273109,0.03133928724601864,0.12763791686501352
1761336397506637600,4.975637451171875,0.06123451316356659,-0.025127573124319312,0.186125469407998
1761336397516704000,4.9857041015625,0.11142916139662265,0.001444426654651761,0.22633480326477437
1761336397526770200,4.995770263671875,0.17394786915183066,-0.052909240953996774,0.2325815886998549
1761336397536837000,5.005837158203125,0.2621300104737282,-0.0934478067651391,0.2917173394858837
1761336397546903000,5.015903076171875,0.31105507716238495,-0.06441796550527215,0.3802065739955753
1761336397556970200,5.02597021484375,0.29473405695855615,-0.02458119128793478,0.4714821878207847
1761336397567036200,5.0360361328125,0.2405219897776842,-0.01658990027308464,0.4589658936621621
1761336397577102000,5.04610205078125,0.170211605232954,-0.03745857384391129,0.37882980574965475
1761336397587169300,5.056169189453125,0.08339958322048187,-0.037712840865924954,0.27469931346122173
1761336397597235200,5.066235107421875,-0.005102876096963882,-0.06779533298388123,0.19051639784332364
1761336397607301000,5.076301025390625,-0.05861819318532943,-0.08021532716117799,0.12448785533625632
1761336397617368300,5.086368408203125,-0.07924889328181743,-0.07780643938854337,0.037316790753044185
1761336397627434200,5.096434326171875,-0.07693827825188636,-0.14468743400648235,-0.06804547182004898
1761336397637500200,5.106500244140625,-0.09089841454327106,-0.2264997480355203,-0.17446878775339572
1761336397647567000,5.116567138671875,-0.05879004262089729,-0.2761901730734855,-0.24221637260541318
1761336397657633000,5.126633056640625,-0.01660392879843712,-0.2880071598563343,-0.3015542583674192
1761336397667700000,5.136699951171875,0.046837154498696326,-0.25749482495374976,-0.3021073804718442
1761336397677766100,5.14676611328125,0.09506897822618483,-0.1583826357513666,-0.28963925457019357
1761336397687832000,5.15683203125,0.11035013398826121,-0.03384688615277409,-0.24045944593548774
1761336397697899000,5.16689892578125,0.07734335192143917,0.03875102480724454,-0.17927722921473904
1761336397707965200,5.176965087890625,-0.0055097033321857445,0.038844694440066815,-0.1294236495043151
1761336397718031000,5.187031005859375,-0.17143091789484022,0.0180370303414762,-0.14917736583687363
1761336397728098000,5.19709814453125,-0.4173223257511854,0.013299772686511278,-0.16024010018631815
1761336397738164200,5.207164306640625,-0.6918079599291086,0.006006620003655552,-0.1511517346497625
1761336397748230100,5.217230224609375,-0.8881570459812879,0.03074840868078172,-0.14122406874485313
1761336397758297000,5.227297119140625,-0.9496142619848251,0.05599800074957311,-0.11634641526099294
1761336397768363300,5.23736328125,-0.9135270495593547,0.06060491002313792,-0.08160681805219501
1761336397778429000,5.247428955078125,-0.7556120313197374,0.06665178897194564,-0.05477781130485236
1761336397788496100,5.25749609375,-0.49519233189523215,0.04580057799257338,-0.016957345345988868
1761336397798562000,5.26756201171875,-0.15438041437268257,0.0036870910149067637,0.034856355456262825
1761336397808628000,5.2776279296875,0.15282558614611624,0.004903408002108335,0.1344568030996248
1761336397818695200,5.287695068359375,0.3806441616952419,0.041802813593298196,0.2675888604015112
1761336397828761000,5.297760986328125,0.5094242708653212,0.079790087486431,0.3427156687846407
1761336397838828000,5.307828125,0.5007552267193794,0.07761530073061584,0.3654814812136814
1761336397848894200,5.317894287109375,0.41294542584121224,0.04165091096721589,0.3159110292935744
1761336397858960100,5.327960205078125,0.28118074790239334,-0.037117432256042956,0.196386057061702
1761336397869027000,5.338027099609375,0.1408019708752632,-0.14201624203585086,0.04910009446199983
1761336397879093200,5.34809326171875,0.09765256497859955,-0.2323561459135264,-0.07045180230941624
1761336397889159200,5.3581591796875,0.10634148286879062,-0.2581504393182695,-0.140230052738823
1761336397899226000,5.36822607421875,0.11593582516610622,-0.2542157302178442,-0.15693893974907697
1761336397909292300,5.378292236328125,0.12835516175627706,-0.2201519133787602,-0.12976630719583482
1761336397919358200,5.388358154296875,0.1551812093615532,-0.12329919354096054,-0.07196122049167752
1761336397929425200,5.398425048828125,0.1891436847180128,-0.0936503435999155,-0.04105462557449937
1761336397939491000,5.408490966796875,0.17720014894604683,-0.14696334304921327,-0.058240336316265164
1761336397949557000,5.418556884765625,0.1200537818789482,-0.1811446487881243,-0.126597321770899
1761336397959624000,5.4286240234375,-0.021567104163765907,-0.20498159758001563,-0.22497834715452045
1761336397969690000,5.438690185546875,-0.27152736889421936,-0.24840397519916294,-0.27855825391169636
1761336397979756000,5.448756103515625,-0.5114215821623802,-0.27417086914032696,-0.3072890391597524
1761336397989823000,5.458822998046875,-0.6533318065404892,-0.268878388755396,-0.2674176685530692
1761336397999889200,5.46888916015625,-0.7259715108156204,-0.23098193495087324,-0.1933758423950523
1761336398009956000,5.4789560546875,-0.6544564266562461,-0.18804617180489003,-0.0986365345146507
1761336398020022300,5.489022216796875,-0.45825697820782657,-0.12527999209463594,0.01562788684051484
1761336398030088200,5.499088134765625,-0.22713468493819236,-0.08878544097729027,0.12743676826972514
1761336398040155100,5.509155029296875,-0.03110883949100971,-0.10315905344039202,0.19092373653519898
1761336398050221300,5.51922119140625,0.06430091499686241,-0.1289648911524564,0.22347112092934548
1761336398060287200,5.529287353515625,0.052172670307755464,-0.1555235930584371,0.22431531666852533
1761336398070354200,5.539354248046875,-0.03087152360379696,-0.1535671252284199,0.19214673899151383
1761336398080420400,5.54942041015625,-0.10220832858681678,-0.13359919988960026,0.15136274705193936
1761336398090486000,5.559486083984375,-0.12574585604071617,-0.10005655738040804,0.09020243163574486
1761336398100553000,5.569552978515625,-0.10330489165186882,-0.08747092431262135,0.09380367099810391
1761336398110619100,5.579619140625,-0.06262625978291034,-0.06955065221861004,0.1378881657877937
1761336398120685000,5.58968505859375,-0.06752221513092517,-0.05914645484313368,0.16089432631134987
1761336398130752000,5.599751953125,-0.10468728592097759,-0.07434533914923667,0.18144516610465944
1761336398140818200,5.609818115234375,-0.11465689127147197,-0.08712466815821826,0.1813645020838827
1761336398150885000,5.619885009765625,-0.09159925628900527,-0.0837657131191343,0.15626056556347756
1761336398160951000,5.629950927734375,-0.008602993172407149,-0.08217201418690383,0.11149119378216564
1761336398171017200,5.640017333984375,0.12790274181365965,-0.10413374369144439,0.04738368246555328
1761336398181084200,5.650084228515625,0.2134732393324375,-0.11616079302839934,0.02682188288681209
1761336398191150000,5.660150146484375,0.22400223213136194,-0.103805753846094,-0.011914894199371338
1761336398201216300,5.67021630859375,0.18352175318300723,-0.14799633935876189,-0.07864120971225201
1761336398211283200,5.680283203125,0.09414134198725223,-0.13992664934545754,-0.11068444397654384
1761336398221349000,5.69034912109375,-0.03405716790258884,-0.12072240185551344,-0.10655077823791652
1761336398231415000,5.7004150390625,-0.1927560299962759,-0.12019063306637108,-0.061899589476175604
1761336398241482200,5.710482177734375,-0.3554916002601385,-0.07796382190734148,-0.02616835088152438
1761336398251548200,5.720548095703125,-0.46582595215737815,-0.047785029808059334,0.018442907728627323
1761336398261614000,5.730614013671875,-0.4796937339901924,-0.02505713823661208,0.034513898694142696
1761336398271681000,5.740680908203125,-0.400278836491704,-0.034617578264325856,0.007688216415047645
1761336398281747200,5.750747314453125,-0.25297230602800846,-0.05778210768736899,-0.022214790950156747
1761336398291814100,5.760814208984375,-0.09545242458581923,-0.09521203995868563,-0.05438797173704952
1761336398301880000,5.770880126953125,-0.027962942680716512,-0.12418225998580455,-0.11537972565330565
1761336398311946200,5.7809462890625,0.016792729368805884,-0.07684000550918281,-0.14355945288985966
1761336398322013200,5.79101318359375,0.0230967979490757,0.049322322377935046,-0.06309617884960025
1761336398332079000,5.8010791015625,0.047507016584277154,0.09093735831417143,0.01156772472951561
1761336398342145300,5.811145263671875,0.0688543405175209,-0.001335413322225213,-0.09049359660204499
1761336398352212200,5.821212158203125,0.038545711493492125,0.05140285497903824,-0.11251827180758119
1761336398362278100,5.831278076171875,-0.07253273676931858,0.023441738929226994,-0.11500420687180012
1761336398372344300,5.84134423828125,-0.13070435523092747,-0.00010455635301768779,-0.07878752284776419
1761336398382411300,5.851411376953125,-0.17283318590819835,0.041783451305702324,-0.03808361040707677
1761336398392477000,5.861476806640625,-0.17911854978799818,0.08777860202230513,-0.012292166546545922
1761336398402543000,5.871543212890625,-0.12263093889057636,0.07907762836813927,0.002132445451430976
1761336398412610000,5.881610107421875,-0.036975685697793956,0.05699227248392999,-0.015945684085413813
1761336398422676000,5.891676025390625,0.043676060119271276,0.048026729609444735,-0.09203213128093629
1761336398432742100,5.9017421875,0.12122925539910792,0.0699614980418235,-0.1318117319509387
1761336398442809000,5.91180908203125,0.17716332406699656,0.10387501969002187,-0.13902937171217053
1761336398452875300,5.921875244140625,0.21530863806605338,0.121336369035393,-0.0863074700238183
1761336398462941200,5.931941162109375,0.17330021889805794,0.1288158380705863,-0.030702377581968903
1761336398473008000,5.942008056640625,0.016607435929775236,0.13416362883932886,-0.031017507945746182
1761336398483074300,5.95207421875,-0.13084405596256254,0.1109096675671637,-0.07393237443417311
1761336398493141200,5.962141357421875,-0.20273206508755684,0.0687253803756088,-0.1265036156054586
1761336398503207200,5.972207275390625,-0.2018833393037319,0.034729002749547364,-0.20002360984645784
1761336398513273000,5.982273193359375,-0.15940847166776656,-0.002344663430005312,-0.26624497151188553
1761336398523340000,5.992340087890625,-0.12420330277383326,-0.03271554403528571,-0.3078871877159923
1761336398533406000,6.002406005859375,-0.059163552108407014,-0.0312795929480344,-0.3122145493958145
1761336398543472000,6.01247216796875,-0.022646131572127342,0.0018913667045533655,-0.27298399744331836
1761336398553539000,6.0225390625,-0.09115560417473316,0.08664667538292706,-0.20627426773905752
1761336398563605000,6.03260498046875,-0.16509528513252733,0.14774696770757437,-0.13470102365165948
1761336398573671200,6.042671142578125,-0.16276830348968505,0.18891608650721609,-0.07237389294579624
1761336398583738000,6.052738037109375,-0.07908698071837425,0.19191797173693775,-0.07578267847597599
1761336398593804000,6.062803955078125,-0.002267360410094261,0.09263912073075771,-0.09496376428604125
1761336398603870200,6.0728701171875,0.012575988456606865,-0.025535934729501605,-0.13248868136443198
1761336398613937200,6.082937255859375,0.056283028236031526,-0.07675408079139888,-0.15028401190452276
1761336398624003000,6.093003173828125,0.040710780572891236,-0.08726093482375144,-0.19517609675005076
1761336398634070300,6.1030703125,-0.02171148107051849,-0.09164185332171619,-0.188569830352813
1761336398644136200,6.11313623046875,-0.05465162764191627,-0.033515535306558014,-0.1261963762871921
1761336398654202000,6.1232021484375,-0.07599018374681472,0.02792648312784731,-0.06413213430121541
1761336398664269300,6.133269287109375,-0.058682490593194955,0.06684745767451822,-0.01986132315918803
1761336398674335000,6.1433349609375,0.053480830296874046,0.07180902560465037,0.03576316810287535
1761336398684401200,6.153401123046875,0.22127076134085655,0.05580328189507126,0.0738959148813039
1761336398694468000,6.163468017578125,0.3639823652297258,-0.012367606402933598,0.06960406290628016
1761336398704534000,6.173533935546875,0.4554150327801704,-0.0519001369766891,0.04564034592956304
1761336398714600200,6.18360009765625,0.42247371716499327,-0.01939589760452509,0.009520254147797823
1761336398724667100,6.193667236328125,0.03574292903244495,0.0174544081479311,-0.1170928131815046
1761336398734733000,6.203733154296875,-0.453671988505125,0.03547784835547209,-0.24336174324825405
1761336398744799200,6.21379931640625,-0.6170201377093791,-0.008788140480965375,-0.21699498371779918
1761336398754866200,6.2238662109375,-0.6042243690222502,-0.06133022862300276,-0.1726149400476366
1761336398764932000,6.23393212890625,-0.46525604331493375,-0.07700769022628665,-0.08450038406923413
1761336398774998300,6.243998291015625,-0.29308745879530906,-0.07082242572009563,0.05109261998608708
1761336398785065200,6.254065185546875,-0.22178280251622198,-0.08976414981633424,0.14826755751557646
1761336398795131100,6.264131103515625,-0.24010054949522017,-0.10882350894287228,0.1122807367246598
1761336398805198000,6.274197998046875,-0.16533026293218134,-0.06977890801653265,0.05265322036631405
1761336398815264000,6.284263916015625,-0.04434299959540367,-0.0908352861791849,0.03818995685838163
1761336398825330000,6.294329833984375,0.07495324191451072,-0.11837167401090264,0.08283800381496548
1761336398835397000,6.304397216796875,0.11076806713938712,-0.08201704282090068,0.06986205625534057
1761336398845463000,6.314463134765625,0.18294541459977626,-0.033546880292892454,0.04749503388553857
1761336398855529000,6.324529052734375,0.1923293290168047,-0.05400076251775026,0.019948928377404807
1761336398865596200,6.33459619140625,0.1727180350959301,-0.07906871440932155,-0.020361454701051114
1761336398875662000,6.344662109375,0.17069734292328356,-0.011407675329595803,-0.07031484152413904
1761336398885728000,6.35472802734375,0.20633388897180557,0.0893061769157648,-0.13348039581552146
1761336398895795200,6.364795166015625,0.2740752998113632,0.08482143271714448,-0.2172908248592168
1761336398905861000,6.374861083984375,0.39664194129407404,0.05352423104718327,-0.2857911643072963
1761336398915927300,6.38492724609375,0.46129999916553494,-0.016908464702963828,-0.25078560963869095
1761336398925994200,6.394994140625,0.20604805776774882,-0.09817468915656208,-0.23174977751821277
1761336398936060200,6.40506005859375,-0.10499240634739399,-0.162094203620404,-0.2705426687058061
1761336398946127000,6.415127197265625,-0.2211111868649721,-0.21067849404737352,-0.12936010101512074
1761336398956193300,6.425193359375,-0.23560265355408191,-0.23751345561146736,-0.1766119007293135
1761336398966259000,6.435259033203125,-0.08330898232758045,-0.15490297694206237,-0.3021563159137964
1761336398976326000,6.445325927734375,0.13373393218517302,-0.1368716456890106,-0.3234784323405474
1761336398986392000,6.45539208984375,0.25218378599882124,-0.19785408378764985,-0.23353702626116574
1761336398996458000,6.4654580078125,0.3086632135897875,-0.20951953327059744,-0.06563106762208044
1761336399006525000,6.47552490234375,0.25722937895059583,-0.1392493346057832,0.12670907504968346
1761336399016591000,6.485591064453125,0.18544307663440704,-0.06267214475125074,0.3137253192849457
1761336399026657000,6.495656982421875,0.07036416055858134,0.026023645181208848,0.4575715532269329
1761336399036724000,6.505723876953125,-0.13222177405655383,0.09625161213949322,0.49309265620224174
1761336399046790100,6.5157900390625,-0.30527707828283307,0.08621142577081918,0.4713720419771969
1761336399056856000,6.52585595703125,-0.4469657688647508,0.0034852117672562596,0.4241304713960737
1761336399066923300,6.53592333984375,-0.5321750318557024,-0.09399491925388574,0.3212932703211903
1761336399076989200,6.5459892578125,-0.5733610287249088,-0.13426672388762234,0.2486304774314165
1761336399087055000,6.55605517578125,-0.5918120466947555,-0.16148074789717792,0.13965776927620172
1761336399097122300,6.566122314453125,-0.6097089379131794,-0.17608999574705958,0.01369490948393941
1761336399107188000,6.57618798828125,-0.7005325336545706,-0.17376023762524126,-0.03135740742459893
1761336399117255200,6.586255126953125,-0.8620166425526141,-0.13786255642250178,-0.033979426491260525
1761336399127321000,6.596321044921875,-0.957524012196064,-0.056145665591955184,-0.06578457768335938
1761336399137387000,6.606386962890625,-0.9180687846422195,0.00419277551472187,-0.1060692417986691
1761336399147454000,6.616453857421875,-0.7429138777881861,-0.020729630426317452,-0.12422113069146871
1761336399157520100,6.62652001953125,-0.49651802754104135,-0.09195172298848628,-0.16100480094850061
1761336399167586000,6.6365859375,-0.24431144518852232,-0.15647051851972937,-0.21228315276503562
1761336399177653000,6.646653076171875,-0.06529927838444709,-0.22425562237054109,-0.23509806503280997
1761336399187719200,6.65671923828125,0.0909533596009016,-0.2742306365035474,-0.20440423608347771
1761336399197785000,6.66678515625,0.1982236477524042,-0.243492383890599,-0.09757014739215374
1761336399207852000,6.67685205078125,0.28748130935132504,-0.1368931268684566,0.08802344362884759
1761336399217918200,6.686918212890625,0.36864217373430724,-0.0327148133829236,0.24815716083124278
1761336399227984100,6.696984130859375,0.4289455435276031,0.0808371853865683,0.36572657854855056
1761336399238051000,6.707051025390625,0.3863724762141704,0.15397241809368134,0.41438700295165176
1761336399248117200,6.7171171875,0.21328853041529655,0.040743075407296415,0.32708734355270863
1761336399258183000,6.727182861328125,0.10440262376070022,0.003712298521399498,0.16767916414588688
1761336399268250000,6.73725,0.10987433317005633,-0.057552025258541105,0.01231017712727189
1761336399278316000,6.74731591796875,0.0671767626941204,-0.19290084529444573,-0.05675108413919806
1761336399288383000,6.757383056640625,0.043866029733419416,-0.2730458106331527,-0.05774784009158611
1761336399298449200,6.76744921875,0.07292553547918797,-0.24452611085250972,-0.06983560663983225
1761336399308515000,6.77751513671875,0.13757424100041388,-0.17154796840324996,-0.10734539921432733
1761336399318582000,6.78758203125,0.2195470062881708,-0.10257730802968144,-0.0886506356164813
1761336399328648200,6.797648193359375,0.28360826731026173,-0.07440408359915017,-0.059953241181373594
1761336399338714000,6.807714111328125,0.27792496097683905,-0.08583002523779869,-0.017158493941277265
1761336399348781000,6.817781005859375,0.16508125660717488,-0.10876184188351035,0.047966158528625964
1761336399358847200,6.82784716796875,-0.10982698689699172,-0.12560469400435686,0.0771849464893341
1761336399368913200,6.8379130859375,-0.33611820674836634,-0.09224968302175401,0.06981427159085869
1761336399378980000,6.84797998046875,-0.4813362405002117,-0.042976387417316436,0.0652095542743802
1761336399389046300,6.85804638671875,-0.5016261643350124,-0.03899564721807837,0.07874211280345916
1761336399399112000,6.86811181640625,-0.411304672896862,-0.0695611736126244,0.0354718570061028
1761336399409179100,6.87817919921875,-0.23129706531465052,-0.0846432996712625,-0.04057648666873574
1761336399419245000,6.8882451171875,-0.05600596486032009,-0.09367840065062046,-0.04757723227627575
1761336399429311000,6.89831103515625,0.04819207623898983,-0.13726283696368335,-0.041378596831858155
1761336399439378000,6.9083779296875,0.046285950356721874,-0.15646175069138407,-0.07115377656631171
1761336399449444000,6.918444091796875,0.06819149269461632,-0.10769450491294265,-0.08534048815518618
1761336399459511000,6.928510986328125,0.0423287371635437,-0.04281432872340083,-0.08027735954672098
1761336399469577000,6.938576904296875,0.05894786353111267,0.0035728900507092476,-0.060438102088868614
1761336399479643100,6.94864306640625,0.06942424935996531,-0.010193623364716768,-0.056698988625779746
1761336399489710000,6.9587099609375,0.12446575310230254,-0.03315335093066096,-0.009319617009162902
1761336399499776000,6.96877587890625,0.1751490616351366,-0.045474633973836893,-0.024066227503120898
1761336399509842200,6.97884228515625,0.1678203261822462,-0.05409910832569003,-0.143006787443161
1761336399519908600,6.98890869140625,0.08277823645174504,-0.05738076034486293,-0.2735330826934427
1761336399529974800,6.998974853515625,-0.06628127515912055,-0.05926993509232997,-0.3549835776727646
1761336399540040700,7.009040771484375,-0.15326982278227805,-0.053014966350793835,-0.2609351746659726
1761336399550107600,7.019107666015625,-0.12802432236671446,-0.06838949948474764,-0.13518632295057176
1761336399560173800,7.029173828125,-0.076252634075284,-0.03666355100870132,-0.051241015480831265
1761336399570239700,7.03923974609375,-0.057278469014167784,-0.050761488335579634,-0.07705496343411505
1761336399580306700,7.049306640625,-0.12622925564348697,-0.09431947503313422,-0.23571780436635015
1761336399590372900,7.059372802734375,-0.12405541873574256,-0.10469619987979531,-0.3184101891655475
1761336399600438800,7.069438720703125,0.0026239187628030775,-0.12485475241988897,-0.33443653727173805
1761336399610505700,7.079505615234375,0.013607085070014,-0.06277005216777325,-0.13341259127631783
1761336399620572000,7.089572021484375,-0.14857377392053603,-0.15759923028871417,-0.07512158421874046
1761336399630638800,7.099638916015625,-0.25042671319842336,-0.1504690861478448,-0.189000622985512
1761336399640704800,7.109704833984375,-0.3771194947004318,-0.13866627402082085,-0.26858861202858386
1761336399650770700,7.119770751953125,-0.534335424759984,-0.22983079215437172,-0.36134595231153066
1761336399660837600,7.129837646484375,-0.6435024864435196,-0.2325911967784166,-0.48379583554677663
