time,seconds_elapsed,z,y,x
1761336392604322300,0.073322265625,0.9525628685951233,-0.09588447958230972,0.36105039715766907
1761336392614388200,0.08338818359375,1.0354965925216675,-0.1818433254957199,0.3772538900375366
1761336392624455200,0.093455078125,1.1038411855697632,-0.27716559171676636,0.34047406911849976
1761336392634521300,0.103521240234375,1.1665085554122925,-0.4133460521697998,0.2775491774082184
1761336392644587300,0.113587158203125,1.2387690544128418,-0.5441504120826721,0.1938912272453308
1761336392654654200,0.123654296875,1.306596279144287,-0.5883232355117798,0.07966692745685577
1761336392664720400,0.133720458984375,1.3469269275665283,-0.5053092837333679,-0.05323055759072304
1761336392674786300,0.143786376953125,1.3528069257736206,-0.35522234439849854,-0.2121264636516571
1761336392684853200,0.153853271484375,1.3388711214065552,-0.16979241371154785,-0.3525778651237488
1761336392694919200,0.163919189453125,1.32700777053833,0.00325979758054018,-0.4691691994667053
1761336392704985000,0.173985107421875,1.3193262815475464,0.14727985858917236,-0.5503239035606384
1761336392715052000,0.184052001953125,1.3026067018508911,0.2710910141468048,-0.5831572413444519
1761336392725118200,0.1941181640625,1.260237455368042,0.3686433732509613,-0.5902172327041626
1761336392735185200,0.20418505859375,1.1593358516693115,0.41527268290519714,-0.5730736255645752
1761336392745251000,0.2142509765625,1.0531375408172607,0.38575178384780884,-0.5553679466247559
1761336392755317200,0.224317138671875,0.9520566463470459,0.31320884823799133,-0.5359074473381042
1761336392765384200,0.23438427734375,0.8623903393745422,0.17561769485473633,-0.5239371657371521
1761336392775450000,0.2444501953125,0.826015830039978,0.03708538040518761,-0.5089821815490723
1761336392785516300,0.254516357421875,0.8145085573196411,-0.05067296698689461,-0.4608484208583832
1761336392795583200,0.264583251953125,0.8249598741531372,-0.0958271324634552,-0.3854559361934662
1761336392805649400,0.2746494140625,0.8258904814720154,-0.12944185733795166,-0.29610756039619446
1761336392815715300,0.28471533203125,0.8132225871086121,-0.17554543912410736,-0.20293661952018738
1761336392825782300,0.2947822265625,0.7924184799194336,-0.21266674995422363,-0.10688697546720505
1761336392835848400,0.304848388671875,0.7673453092575073,-0.2216660976409912,-0.020598959177732468
1761336392845914000,0.3149140625,0.7213404178619385,-0.21273893117904663,0.04097616672515869
1761336392855981000,0.32498095703125,0.6596062183380127,-0.17394280433654785,0.08312548696994781
1761336392866047200,0.335047119140625,0.5855651497840881,-0.07673347741365433,0.08802152425050735
1761336392876114200,0.3451142578125,0.5248200297355652,0.08251743018627167,0.04239305108785629
1761336392886180000,0.35518017578125,0.4682549834251404,0.23998723924160004,-0.04425472021102905
1761336392896246300,0.365246337890625,0.4025489389896393,0.36425456404685974,-0.1596582680940628
1761336392906313200,0.375313232421875,0.320214182138443,0.45242878794670105,-0.25032901763916016
1761336392916379100,0.385379150390625,0.222426638007164,0.4845377206802368,-0.29731515049934387
1761336392926445300,0.3954453125,0.11409691721200943,0.44270676374435425,-0.30341118574142456
1761336392936512300,0.40551220703125,0.023028794676065445,0.3689712882041931,-0.25781014561653137
1761336392946578200,0.415578125,-0.038361191749572754,0.3456778824329376,-0.17313045263290405
1761336392956644400,0.425644287109375,-0.10054919868707657,0.3376351296901703,-0.07555888593196869
1761336392966711300,0.435711181640625,-0.15024620294570923,0.3119422495365143,0.029749326407909393
1761336392976777200,0.445777099609375,-0.17003029584884644,0.303774893283844,0.11892792582511902
1761336392986843100,0.455843017578125,-0.15220721065998077,0.29624441266059875,0.17497479915618896
1761336392996910300,0.465910400390625,-0.10148464143276215,0.2621932327747345,0.20982518792152405
1761336393006976000,0.47597607421875,-0.051596175879240036,0.21404463052749634,0.2372424304485321
1761336393017043200,0.486043212890625,-0.01274358481168747,0.18866492807865143,0.25386297702789307
1761336393027109000,0.496109130859375,0.015005741268396378,0.1631944328546524,0.2693518102169037
1761336393037175300,0.50617529296875,0.047663286328315735,0.1103687658905983,0.2743881046772003
1761336393047242200,0.5162421875,0.08648073673248291,0.04459402710199356,0.26198267936706543
1761336393057308200,0.52630810546875,0.1275184601545334,0.0038684355095028877,0.25536102056503296
1761336393067374300,0.536374267578125,0.14882278442382812,-0.019220292568206787,0.23618841171264648
1761336393077441300,0.546441162109375,0.1529666632413864,-0.009404413402080536,0.19671237468719482
1761336393087507200,0.556507080078125,0.13994543254375458,0.025681253522634506,0.1310930848121643
1761336393097573400,0.566573486328125,0.1106322854757309,0.07839666306972504,0.031153442338109016
1761336393107640300,0.576640380859375,0.0753888413310051,0.1428912729024887,-0.10475662350654602
1761336393117706200,0.586706298828125,0.05503483861684799,0.17174023389816284,-0.25091996788978577
1761336393127772400,0.5967724609375,0.05064428597688675,0.16244781017303467,-0.36008936166763306
1761336393137839400,0.60683935546875,0.06511963158845901,0.10051652789115906,-0.4097732901573181
1761336393147905000,0.616905029296875,0.09510857611894608,0.08433184772729874,-0.39651185274124146
1761336393157972200,0.62697216796875,0.13053874671459198,0.08906615525484085,-0.3315331041812897
1761336393168038100,0.6370380859375,0.1543566882610321,0.0957338809967041,-0.23444408178329468
1761336393178104000,0.64710400390625,0.16536299884319305,0.11355442553758621,-0.12795652449131012
1761336393188171300,0.657171142578125,0.15756964683532715,0.12046509236097336,-0.02893773466348648
1761336393198237200,0.6672373046875,0.16172416508197784,0.12798532843589783,0.01601322740316391
1761336393208303000,0.67730322265625,0.16917477548122406,0.1343056857585907,0.019132308661937714
1761336393218370300,0.687370361328125,0.16744637489318848,0.11570218950510025,-0.0081784063950181
1761336393228436200,0.697436279296875,0.16740009188652039,0.08394280821084976,-0.04629899561405182
1761336393238502100,0.707502197265625,0.159189835190773,0.03964804857969284,-0.07375911623239517
1761336393248569300,0.7175693359375,0.15195387601852417,-0.004583011381328106,-0.08008340001106262
1761336393258635300,0.72763525390625,0.16668301820755005,-0.03743283823132515,-0.07188938558101654
1761336393268702200,0.7377021484375,0.19675597548484802,-0.04341983050107956,-0.05838733911514282
1761336393278768400,0.747768310546875,0.22630001604557037,-0.04523210972547531,-0.038364361971616745
1761336393288834300,0.757834228515625,0.24634766578674316,-0.0314825102686882,-0.03030277043581009
1761336393298901200,0.7679013671875,0.23606200516223907,-0.028006551787257195,-0.021839510649442673
1761336393308967200,0.77796728515625,0.21956631541252136,-0.03405799716711044,-0.012675302103161812
1761336393319033000,0.788033203125,0.2022096961736679,-0.012076267041265965,-0.009940501302480698
1761336393329100000,0.79810009765625,0.19388772547245026,0.005287180654704571,-0.015355664305388927
1761336393339166200,0.808166259765625,0.19884388148784637,0.0036597242578864098,-0.010341997258365154
1761336393349232000,0.818232177734375,0.21069641411304474,0.02703072875738144,0.005429617129266262
1761336393359299000,0.828299072265625,0.22002120316028595,0.05469591170549393,0.021012037992477417
1761336393369365200,0.838365234375,0.21896947920322418,0.056710194796323776,0.020776309072971344
1761336393379431200,0.84843115234375,0.22396157681941986,0.0474272146821022,-0.0004781140014529228
1761336393389498000,0.858498046875,0.22726795077323914,0.03928079828619957,-0.037018679082393646
1761336393399564300,0.868564208984375,0.22971458733081818,0.033005859702825546,-0.0730094388127327
1761336393409631200,0.87863134765625,0.22285430133342743,0.020647209137678146,-0.0987682119011879
1761336393419697400,0.888697509765625,0.21667949855327606,0.015185330994427204,-0.11653389036655426
1761336393429763300,0.898763427734375,0.21331924200057983,-0.0030393823981285095,-0.11385911703109741
1761336393439830300,0.908830322265625,0.2094304859638214,-0.019799986854195595,-0.10344456136226654
1761336393449896400,0.918896484375,0.20686741173267365,-0.058093998581171036,-0.09688962250947952
1761336393459962000,0.928962158203125,0.19908033311367035,-0.09047669917345047,-0.09345494210720062
1761336393470029000,0.939029052734375,0.190445676445961,-0.08981667459011078,-0.08209720253944397
1761336393480095200,0.94909521484375,0.17547018826007843,-0.04716455191373825,-0.05879028141498566
1761336393490161200,0.9591611328125,0.15681111812591553,-0.012743975967168808,-0.02345658279955387
1761336393500228000,0.96922802734375,0.14495526254177094,0.019400112330913544,0.015584027394652367
1761336393510294500,0.97929443359375,0.1407863348722458,0.04375017434358597,0.03691503033041954
1761336393520361500,0.989361572265625,0.14521783590316772,0.04179168492555618,0.04020536690950394
1761336393530427400,0.999427490234375,0.1436564028263092,0.01990364119410515,0.0391293540596962
1761336393540493600,1.00949365234375,0.13103675842285156,-0.0004959078505635262,0.026296110823750496
1761336393550560500,1.019560546875,0.13629783689975739,-0.03836364671587944,0.030603628605604172
1761336393560626400,1.02962646484375,0.1342834234237671,-0.0677255317568779,0.03334561735391617
1761336393570692400,1.0396923828125,0.11935124546289444,-0.06666003167629242,0.0143321817740798
1761336393580759300,1.04975927734375,0.10731136053800583,-0.081736721098423,-0.01294790767133236
1761336393590825200,1.0598251953125,0.09871022403240204,-0.09214413166046143,-0.039049968123435974
1761336393600891400,1.069891357421875,0.0961511954665184,-0.09756366163492203,-0.04618670791387558
1761336393610958300,1.079958251953125,0.10149634629487991,-0.08098650723695755,-0.039890844374895096
1761336393621024300,1.090024169921875,0.10556112974882126,-0.05451149120926857,-0.034520577639341354
1761336393631090400,1.10009033203125,0.10247638821601868,-0.04680190607905388,-0.02156403288245201
1761336393641157400,1.110157470703125,0.09228900074958801,-0.045211732387542725,-0.000020124949514865875
1761336393651223300,1.120223388671875,0.08748959004878998,-0.03412803262472153,0.026413071900606155
1761336393661290500,1.13029052734375,0.07854988425970078,-0.00719388946890831,0.05531609058380127
1761336393671356400,1.1403564453125,0.0771600604057312,-0.0027272747829556465,0.06360555440187454
1761336393681422600,1.150422607421875,0.07609612494707108,0.009175190702080727,0.06036316230893135
1761336393691489500,1.160489501953125,0.07347013056278229,0.026387371122837067,0.044878050684928894
1761336393701555500,1.170555419921875,0.07649148255586624,0.040635284036397934,0.018830737099051476
1761336393711621400,1.180621337890625,0.0798024982213974,0.03494728356599808,-0.008568871766328812
1761336393721688600,1.1906884765625,0.08065364509820938,0.017674822360277176,-0.02589593082666397
1761336393731754200,1.200754150390625,0.07570688426494598,0.00814085453748703,-0.035863976925611496
1761336393741820400,1.2108203125,0.06910543888807297,-0.0064133210107684135,-0.05429598316550255
1761336393751887400,1.220887451171875,0.05646984279155731,-0.022907253354787827,-0.07751520723104477
1761336393761953300,1.230953369140625,0.03966396301984787,-0.022704586386680603,-0.11165852844715118
1761336393772019500,1.24101953125,0.02578634023666382,-0.008497834205627441,-0.14257141947746277
1761336393782086400,1.25108642578125,0.016433052718639374,0.018021658062934875,-0.17428115010261536
1761336393792152300,1.26115234375,0.011548946611583233,0.01580975204706192,-0.18723049759864807
1761336393802219300,1.27121923828125,0.024284448474645615,0.009315635077655315,-0.1701098382472992
1761336393812285400,1.281285400390625,0.03682985529303551,0.008808453567326069,-0.11382429301738739
1761336393822351400,1.291351318359375,0.04402012377977371,0.02208324894309044,-0.05474553257226944
1761336393832418600,1.30141845703125,0.03415614739060402,0.024678798392415047,-0.007927092723548412
1761336393842484500,1.311484375,0.01905655674636364,0.028392577543854713,0.017971083521842957
1761336393852550400,1.32155029296875,0.016430333256721497,0.025271127000451088,0.013616965152323246
1761336393862617600,1.33161767578125,0.01443988736718893,0.01613568514585495,0.0012316685169935226
1761336393872683300,1.341683349609375,0.016630869358778,-0.01380410511046648,-0.009562656283378601
1761336393882749400,1.35174951171875,0.016610097140073776,-0.03168989717960358,0.0024772286415100098
1761336393892816400,1.36181640625,0.018794260919094086,-0.04108096659183502,0.01049394253641367
1761336393902882300,1.37188232421875,0.018005965277552605,-0.03945803642272949,0.02292238175868988
1761336393912948500,1.381948486328125,0.013303595595061779,-0.01971556432545185,0.037332262843847275
1761336393923015400,1.392015380859375,0.004980152472853661,0.004845971241593361,0.05059507116675377
1761336393933081300,1.402081298828125,0.0033628547098487616,0.012707446701824665,0.04936850070953369
1761336393943148300,1.412148193359375,0.006190333049744368,0.00026382599025964737,0.04056275635957718
1761336393953214500,1.42221435546875,0.017611712217330933,-0.010954788886010647,0.03628579154610634
1761336393963280400,1.4322802734375,0.017434878274798393,-0.011853339150547981,0.038498081266880035
1761336393973347300,1.442347412109375,0.009870515204966068,-0.0005951337516307831,0.026693202555179596
1761336393983413500,1.45241357421875,-0.0015126345679163933,0.015194747596979141,0.010162162594497204
1761336393993479400,1.4624794921875,-0.010729941539466381,0.028913456946611404,-0.017231974750757217
1761336394003546400,1.47254638671875,-0.01713724061846733,0.04115494340658188,-0.041098691523075104
1761336394013612500,1.482612548828125,-0.03413144499063492,0.05682723969221115,-0.08098570257425308
1761336394023678200,1.49267822265625,-0.038379717618227005,0.027323145419359207,-0.11303737759590149
1761336394033745400,1.502745361328125,-0.014771471731364727,-0.009609170258045197,-0.1364368349313736
1761336394043811300,1.512811279296875,0.010923772118985653,-0.019293222576379776,-0.14309287071228027
1761336394053877200,1.522877197265625,0.022776499390602112,-0.03448185697197914,-0.13325753808021545
1761336394063944400,1.5329443359375,0.013810168951749802,-0.034735921770334244,-0.12071645259857178
1761336394074010400,1.54301025390625,0.00036870362237095833,-0.0222916342318058,-0.1065228208899498
1761336394084077300,1.553077392578125,-0.01124773919582367,-0.00046037230640649796,-0.08059987425804138
1761336394094143500,1.5631435546875,-0.014331893064081669,0.029607664793729782,-0.05023887753486633
1761336394104209400,1.57320947265625,-0.024626608937978745,0.04529714584350586,-0.017336588352918625
1761336394114276400,1.5832763671875,-0.03109486773610115,0.04893851652741432,0.009927242062985897
1761336394124342500,1.593342529296875,-0.035805199295282364,0.04409902170300484,0.026749897748231888
1761336394134408400,1.603408447265625,-0.03783607482910156,0.03167210891842842,0.024998199194669724
1761336394144475400,1.613475341796875,-0.03428022190928459,0.023928966373205185,0.007745710201561451
1761336394154541600,1.62354150390625,-0.027746912091970444,0.014561166986823082,-0.013143814168870449
1761336394164607200,1.633607177734375,-0.02700256183743477,-0.0038306228816509247,-0.019955113530158997
1761336394174674400,1.64367431640625,-0.02780461311340332,-0.010275764390826225,-0.009912362322211266
1761336394184740400,1.653740234375,-0.034275561571121216,-0.01039693783968687,-0.00331970676779747
1761336394194807300,1.663807373046875,-0.040591977536678314,-0.030942216515541077,0.0012132497504353523
1761336394204873200,1.673873291015625,-0.04448924958705902,-0.040800973773002625,-0.007366922218352556
1761336394214939400,1.683939453125,-0.0463079996407032,-0.026670729741454124,-0.009698901325464249
1761336394225006300,1.69400634765625,-0.044409435242414474,-0.017286550253629684,-0.011914119124412537
1761336394235072300,1.704072265625,-0.034243348985910416,-0.015255622565746307,-0.0068277474492788315
1761336394245138400,1.714138427734375,-0.020816491916775703,0.006665121763944626,0.0018656086176633835
1761336394255205400,1.724205322265625,-0.014336087740957737,0.024795765057206154,0.012149421498179436
1761336394265271600,1.734271484375,-0.018765989691019058,0.029037384316325188,0.019723450765013695
1761336394275337500,1.74433740234375,-0.020052868872880936,0.030771277844905853,0.015015441924333572
1761336394285404400,1.754404296875,-0.019256316125392914,0.022553563117980957,-0.002562485635280609
1761336394295470600,1.764470703125,-0.013957426883280277,-0.004772336222231388,-0.029933122918009758
1761336394305536500,1.77453662109375,-0.0024716388434171677,-0.02128363400697708,-0.04687715694308281
1761336394315603500,1.784603515625,0.006159000564366579,-0.028371527791023254,-0.06512271612882614
1761336394325669400,1.79466943359375,0.01794828101992607,-0.04037519171833992,-0.08027024567127228
1761336394335735300,1.8047353515625,0.032552991062402725,-0.044912319630384445,-0.08430789411067963
1761336394345802200,1.81480224609375,0.046568144112825394,-0.04789425805211067,-0.06848151981830597
1761336394355868400,1.824868408203125,0.05517834052443504,-0.045204147696495056,-0.0441836342215538
1761336394365935400,1.834935302734375,0.05906921997666359,-0.024483688175678253,-0.019406117498874664
1761336394376001300,1.845001220703125,0.06463070958852768,-0.002504025585949421,0.018212992697954178
1761336394386067500,1.8550673828125,0.067136749625206,0.01799112744629383,0.06689317524433136
1761336394396134400,1.865134521484375,0.0681166872382164,0.02836991846561432,0.10683869570493698
1761336394406200300,1.875200439453125,0.06867381930351257,0.0266263484954834,0.12541905045509338
1761336394416266500,1.8852666015625,0.06588876247406006,0.028477782383561134,0.1272878646850586
1761336394426333400,1.89533349609375,0.06626959145069122,0.018368689343333244,0.09843277931213379
1761336394436399400,1.9053994140625,0.062335506081581116,-0.004240427166223526,0.07238361239433289
1761336394446465500,1.915465576171875,0.0522003173828125,-0.025124669075012207,0.037698596715927124
1761336394456532500,1.925532470703125,0.043732888996601105,-0.022181369364261627,0.0000025979243218898773
1761336394466598400,1.935598388671875,0.02468196302652359,-0.005170694552361965,-0.030414428561925888
1761336394476664300,1.945664306640625,0.018457211554050446,0.02075691521167755,-0.04843032360076904
1761336394486731300,1.955731201171875,0.04157025367021561,0.012006566859781742,-0.037910573184490204
1761336394496797400,1.96579736328125,0.057172250002622604,0.01392788253724575,-0.025464273989200592
1761336394506864400,1.975864501953125,0.06333401054143906,0.004306148737668991,-0.013379382900893688
1761336394516929800,1.9859296875,0.059463273733854294,0.01838786154985428,0.006468682549893856
1761336394526995700,1.99599560546875,0.04940291494131088,0.03561478480696678,0.015530887991189957
1761336394537063000,2.00606298828125,0.03825690969824791,0.04432820528745651,0.014000792987644672
1761336394547128600,2.016128662109375,0.026354707777500153,0.05678514018654823,0.009382338263094425
1761336394557194800,2.02619482421875,0.019899699836969376,0.06235288083553314,0.009033425711095333
1761336394567261700,2.03626171875,0.014255130663514137,0.04405616596341133,0.0016860300675034523
1761336394577327600,2.04632763671875,0.012323086149990559,0.0147590022534132,-0.01535945013165474
1761336394587393800,2.056393798828125,0.012580880895256996,-0.017151260748505592,-0.03766821697354317
1761336394597460700,2.066460693359375,0.019644010812044144,-0.036931172013282776,-0.05616790056228638
1761336394607526700,2.076526611328125,0.021332187578082085,-0.04141806438565254,-0.06138210371136665
1761336394617592800,2.0865927734375,0.024380028247833252,-0.040189988911151886,-0.04854870215058327
1761336394627659800,2.09665966796875,0.017400149255990982,-0.03388601914048195,-0.03227093070745468
1761336394637726000,2.106725830078125,0.00797921884804964,-0.03324601426720619,-0.010107333771884441
1761336394647793000,2.11679296875,-0.005883599165827036,-0.019725680351257324,0.018115248531103134
1761336394657858800,2.12685888671875,-0.014975338242948055,0.012666956521570683,0.04438089206814766
1761336394667925000,2.136925048828125,-0.02105879783630371,0.04167996719479561,0.06542545557022095
1761336394677992000,2.146991943359375,-0.006942006293684244,0.04857194423675537,0.07313083112239838
1761336394688057600,2.1570576171875,0.0018746540881693363,0.05144070088863373,0.07244400680065155
1761336394698123800,2.167123779296875,0.010791240260004997,0.045146502554416656,0.05820822715759277
1761336394708190700,2.177190673828125,0.010829057544469833,0.03242005780339241,0.02552538365125656
1761336394718256600,2.187256591796875,0.007399700582027435,0.01072697527706623,-0.0038924114778637886
1761336394728322800,2.19732275390625,0.00023579737171530724,-0.00805736519396305,-0.0331546925008297
1761336394738389800,2.2073896484375,-0.0041899182833731174,-0.022265110164880753,-0.06360264122486115
1761336394748455700,2.21745556640625,0.0008586361072957516,-0.02074551209807396,-0.07953473180532455
1761336394758521900,2.22752197265625,0.0023752611596137285,-0.0015700003132224083,-0.07902619987726212
1761336394768588800,2.2375888671875,0.0023148073814809322,0.013371131382882595,-0.06773652881383896
1761336394778654700,2.24765478515625,-0.0012095523998141289,0.030352456495165825,-0.038058534264564514
1761336394788722000,2.257721923828125,-0.0031720357947051525,0.04497081786394119,-0.021938420832157135
1761336394798787800,2.267787841796875,-0.005410355981439352,0.04698517173528671,-0.014485304243862629
1761336394808853800,2.277853759765625,-0.0010582180693745613,0.03828755393624306,-0.022921133786439896
1761336394818921000,2.2879208984375,0.006177269387990236,0.013562838546931744,-0.022644037380814552
1761336394828987000,2.29798681640625,0.013665279373526573,0.00866848137229681,-0.013270244002342224
1761336394839052800,2.308052734375,0.019844986498355865,0.012989274226129055,0.004920247942209244
1761336394849119700,2.31811962890625,0.01885908469557762,0.002990436740219593,0.006859296001493931
1761336394859185700,2.328185546875,0.01654471829533577,-0.0031257402151823044,0.004099884070456028
1761336394869251800,2.338251953125,0.011884186416864395,0.0155209144577384,-0.0012384229339659214
1761336394879318800,2.34831884765625,0.007602074649184942,0.020733412355184555,0.004307548515498638
1761336394889384700,2.358384765625,0.006854525301605463,-0.0015247529372572899,0.006844742223620415
1761336394899451000,2.368450927734375,0.014039561152458191,-0.007021718192845583,0.018026728183031082
1761336394909517800,2.378517822265625,0.023128129541873932,-0.008209221065044403,0.02993185631930828
1761336394919583700,2.388583740234375,0.025111733004450798,-0.005742641165852547,0.038188304752111435
1761336394929650000,2.39864990234375,0.02186587080359459,-0.005858488380908966,0.027845919132232666
1761336394939716900,2.408716796875,0.024344131350517273,-0.011787445284426212,0.013463668525218964
1761336394949782800,2.41878271484375,0.02804858610033989,-0.013785614632070065,0.014737725257873535
1761336394959849700,2.428849609375,0.02443796582520008,-0.010219399817287922,0.022209463641047478
1761336394969916000,2.438916015625,0.021390510722994804,-0.0023364434018731117,0.029640480875968933
1761336394979981600,2.448981689453125,0.020827826112508774,-0.006383514031767845,0.03015318140387535
1761336394990048800,2.459048828125,0.02091171406209469,-0.005606403574347496,0.028965678066015244
1761336395000114700,2.46911474609375,0.019256573170423508,-0.0037943273782730103,0.02748292125761509
1761336395010180600,2.4791806640625,0.00804999191313982,0.0052287280559539795,0.02436915598809719
1761336395020247800,2.489247802734375,-0.0004481016658246517,0.01235572062432766,0.008302242495119572
1761336395030313700,2.499313720703125,-0.013641401194036007,0.037724725902080536,-0.0076330481097102165
1761336395040379600,2.509379638671875,0.0019728876650333405,0.010750695131719112,-0.011514340527355671
1761336395050446800,2.51944677734375,0.01231900230050087,-0.002868976444005966,-0.024618957191705704
1761336395060512800,2.5295126953125,0.009384621866047382,-0.00419264193624258,-0.04014229774475098
1761336395070578700,2.53957861328125,0.009527101181447506,-0.01171527337282896,-0.048428989946842194
1761336395080646000,2.54964599609375,0.008825411088764668,-0.014555382542312145,-0.04672760143876076
1761336395090711800,2.5597119140625,0.013102181255817413,-0.017513355240225792,-0.0434468537569046
1761336395100778800,2.56977880859375,0.013904005289077759,-0.0011239266023039818,-0.0284749586135149
1761336395110845000,2.579844970703125,0.007086313329637051,0.010509294457733631,-0.004992536269128323
1761336395120910800,2.589910888671875,0.0003106319345533848,0.006220906972885132,0.015965182334184647
1761336395130977800,2.599977783203125,-0.008718017488718033,-0.0009536491706967354,0.02163079008460045
1761336395141043700,2.610043701171875,-0.01360303908586502,-0.011541785672307014,0.018188487738370895
1761336395151109600,2.620109619140625,-0.013199303299188614,-0.026173725724220276,0.0061446065083146095
1761336395161176600,2.630176513671875,-0.014258429408073425,-0.03634671866893768,0.008184973150491714
1761336395171242800,2.64024267578125,-0.012954013422131538,-0.04757806658744812,0.0062278155237436295
1761336395181308700,2.65030859375,-0.01592496782541275,-0.05404773727059364,0.011913126334547997
1761336395191375600,2.660375732421875,-0.0186387300491333,-0.06078793480992317,0.018814709037542343
1761336395201441800,2.67044189453125,-0.017397191375494003,-0.05138172581791878,0.03112362138926983
1761336395211507700,2.6805078125,-0.015415799804031849,-0.0382254421710968,0.04892978072166443
1761336395221574700,2.69057470703125,-0.014534199610352516,-0.027433807030320168,0.061381902545690536
1761336395231640800,2.700640869140625,-0.018676746636629105,-0.021643828600645065,0.061533164232969284
1761336395241707800,2.710707763671875,-0.024077381938695908,-0.018935903906822205,0.05010486766695976
1761336395251774000,2.72077392578125,-0.02481614053249359,-0.014774981886148453,0.02656465396285057
1761336395261840000,2.73083984375,-0.02857751026749611,-0.010474097914993763,0.0032669706270098686
1761336395271906800,2.74090673828125,-0.03398985415697098,-0.025153174996376038,-0.021293766796588898
1761336395281973000,2.750972900390625,-0.03461306542158127,-0.03681305795907974,-0.04694586619734764
1761336395292038700,2.76103857421875,-0.03683893382549286,-0.0378093495965004,-0.07148795574903488
1761336395302105600,2.771105712890625,-0.03134212642908096,-0.026514790952205658,-0.08245424181222916
1761336395312171800,2.781171875,-0.0217030830681324,-0.03448083996772766,-0.07961025834083557
1761336395322237700,2.79123779296875,-0.010611817240715027,-0.02616218850016594,-0.05096130073070526
1761336395332304600,2.8013046875,-0.004626628011465073,-0.007007935084402561,-0.01634739711880684
1761336395342370800,2.811370849609375,-0.00474820239469409,-0.003535015508532524,0.008316118270158768
1761336395352436700,2.821436767578125,-0.00783161073923111,0.008967194706201553,0.03065044991672039
1761336395362503700,2.831503662109375,-0.013112231157720089,0.02330637164413929,0.04115792736411095
1761336395372569900,2.84156982421875,-0.019851095974445343,0.03059304691851139,0.03481241315603256
1761336395382635800,2.8516357421875,-0.020968757569789886,0.02015765756368637,0.014300733804702759
1761336395392702700,2.86170263671875,-0.018002528697252274,-0.007239875849336386,-0.008415230549871922
1761336395402769000,2.871768798828125,-0.00807374157011509,-0.022539794445037842,-0.030628740787506104
1761336395412835800,2.8818359375,0.008936665952205658,-0.030125543475151062,-0.03879399225115776
1761336395422901800,2.89190185546875,0.016478896141052246,-0.03557094559073448,-0.04693428426980972
1761336395432967700,2.9019677734375,0.02504388988018036,-0.028624622151255608,-0.03774850815534592
1761336395443035000,2.912034912109375,0.024038612842559814,-0.007375004235655069,-0.02372008189558983
1761336395453100800,2.922100830078125,0.021860679611563683,0.010810923762619495,-0.005679562222212553
1761336395463166700,2.932166748046875,0.007951960898935795,0.025149362161755562,-0.00028154533356428146
1761336395473233700,2.942233642578125,0.002671178663149476,0.02447584830224514,0.0007357820868492126
1761336395483299800,2.9522998046875,-0.0033458606339991093,0.01204691268503666,-0.01771959476172924
1761336395493365800,2.96236572265625,-0.0011554108932614326,-0.004857501946389675,-0.02355111949145794
1761336395503432700,2.9724326171875,0.013443478383123875,-0.020589934661984444,-0.031465716660022736
1761336395513499400,2.98249951171875,0.02800191380083561,-0.0215326938778162,-0.03653397783637047
1761336395523565600,2.992565673828125,0.03332654759287834,-0.023479752242565155,-0.03074314445257187
1761336395533632500,3.002632568359375,0.03396304324269295,-0.0357220359146595,-0.023801080882549286
1761336395543698400,3.012698486328125,0.025195635855197906,-0.03959326818585396,-0.024451781064271927
1761336395553765600,3.022765625,0.01353924535214901,-0.03336067125201225,-0.02470611222088337
1761336395563831600,3.03283154296875,0.0029948733281344175,-0.019468076527118683,-0.023152079433202744
1761336395573897500,3.0428974609375,-0.004276355728507042,-0.008735802955925465,-0.02078186720609665
1761336395583964700,3.052964599609375,0.00388303748331964,-0.0031223921105265617,-0.01807396486401558
1761336395594030300,3.0630302734375,0.005731084384024143,0.01003114040941,-0.002249843440949917
1761336395604096500,3.073096435546875,0.006655640434473753,0.015312479808926582,0.0016865935176610947
1761336395614163500,3.08316357421875,0.004529905039817095,0.018142888322472572,-0.00696069048717618
1761336395624229400,3.0932294921875,0.008898887783288956,0.028072696179151535,-0.009466997347772121
1761336395634295600,3.103295654296875,0.009088504128158092,0.03750534728169441,-0.003664235584437847
1761336395644362500,3.113362548828125,-0.00020282529294490814,0.031194698065519333,-0.014454774558544159
1761336395654428400,3.123428466796875,-0.005550186615437269,0.01788155734539032,-0.032846566289663315
1761336395664495400,3.133495361328125,0.004511835519224405,0.0124267702922225,-0.047932013869285583
1761336395674561500,3.1435615234375,0.011192907579243183,0.005271921865642071,-0.059007301926612854
1761336395684627500,3.15362744140625,0.010692605748772621,-0.007508508861064911,-0.06245606392621994
1761336395694694400,3.1636943359375,0.010398326441645622,-0.016263650730252266,-0.06510138511657715
1761336395704760600,3.173760498046875,0.006541563663631678,-0.010117799043655396,-0.06282096356153488
1761336395714826500,3.183826416015625,-0.0038082795217633247,-0.005941695533692837,-0.050569627434015274
1761336395724893700,3.193893798828125,-0.018424905836582184,-0.010635627433657646,-0.03757341578602791
1761336395734959400,3.20395947265625,-0.02171017974615097,-0.014462057501077652,-0.006115358788520098
1761336395745025300,3.214025390625,-0.013414778746664524,-0.0008929464966058731,0.0332053042948246
1761336395755092500,3.224092529296875,-0.01338761392980814,0.02107733115553856,0.07824335247278214
1761336395765158400,3.234158447265625,-0.017311573028564453,0.03389493376016617,0.10563196241855621
1761336395775224300,3.244224365234375,-0.02367279678583145,0.03637513518333435,0.10202977061271667
1761336395785291500,3.25429150390625,-0.023671597242355347,0.022094622254371643,0.08439616858959198
1761336395795357400,3.264357421875,-0.020886998623609543,0.00688557606190443,0.05058494210243225
1761336395805423600,3.274423583984375,-0.021298402920365334,0.005195951089262962,0.021089527755975723
1761336395815490600,3.284490478515625,-0.02115086279809475,-0.004572790116071701,-0.0077519724145531654
1761336395825556500,3.294556396484375,-0.011217139661312103,-0.02426675520837307,-0.03225916624069214
1761336395835623400,3.30462353515625,0.0018493933603167534,-0.03619612008333206,-0.03282508626580238
1761336395845689600,3.314689697265625,0.012697553262114525,-0.028394784778356552,-0.01771586760878563
1761336395855755500,3.324755615234375,0.012744158506393433,-0.025422699749469757,-0.003508168738335371
1761336395865822500,3.334822509765625,0.014854129403829575,-0.020971640944480896,0.003011085093021393
1761336395875888600,3.344888671875,0.02324734628200531,-0.017096208408474922,0.01463897805660963
1761336395885954300,3.354954345703125,0.03420097008347511,-0.011096816509962082,0.0335078164935112
1761336395896021200,3.365021240234375,0.04224397987127304,-0.017566166818141937,0.048578113317489624
1761336395906087400,3.37508740234375,0.04270534962415695,-0.032703761011362076,0.05463949963450432
1761336395916153300,3.3851533203125,0.044586606323719025,-0.04271511733531952,0.052148379385471344
1761336395926220500,3.395220458984375,0.04173743352293968,-0.0641060322523117,0.03482306748628616
1761336395936286500,3.405286376953125,0.036457985639572144,-0.0875042974948883,0.004050771705806255
1761336395946352400,3.415352294921875,0.03783635422587395,-0.09857475012540817,-0.019402209669351578
1761336395956419600,3.425419677734375,0.04419252276420593,-0.10203686356544495,-0.030751537531614304
1761336395966485500,3.435485595703125,0.04414166882634163,-0.10190657526254654,-0.013629985973238945
1761336395976551400,3.445551513671875,0.045438628643751144,-0.07712399959564209,0.021468613296747208
1761336395986618600,3.45561865234375,0.042487382888793945,-0.04806656762957573,0.059086285531520844
1761336395996684500,3.4656845703125,0.03358869254589081,-0.02290848270058632,0.07490519434213638
1761336396006751500,3.47575146484375,0.03355379402637482,-0.0026993686333298683,0.06893347203731537
1761336396016817700,3.485817626953125,0.036919765174388885,-0.0028687454760074615,0.04386087879538536
1761336396026883300,3.49588330078125,0.03487057983875275,-0.0023664208129048347,0.023108379915356636
1761336396036950500,3.505950439453125,0.030529625713825226,-0.007489809766411781,0.0025309333577752113
1761336396047016400,3.516016357421875,0.028104472905397415,-0.023165402933955193,-0.02259690687060356
1761336396057082400,3.526082275390625,0.03663910552859306,-0.044906653463840485,-0.04324918985366821
1761336396067149300,3.5361494140625,0.05406806990504265,-0.06680531054735184,-0.05958043411374092
1761336396077215500,3.546215576171875,0.0686158537864685,-0.08614598959684372,-0.061352502554655075
1761336396087281400,3.556281494140625,0.08321170508861542,-0.10165586322546005,-0.047890469431877136
1761336396097348400,3.566348388671875,0.09491337090730667,-0.09910029172897339,-0.020929690450429916
1761336396107414500,3.57641455078125,0.10340210050344467,-0.07093014568090439,0.009570184163749218
1761336396117481500,3.5864814453125,0.10726555436849594,-0.0478285551071167,0.042625073343515396
1761336396127547400,3.59654736328125,0.11090657114982605,-0.030621755868196487,0.07758288830518723
1761336396137613600,3.606613525390625,0.10849986970424652,-0.018018079921603203,0.09934038668870926
1761336396147680500,3.616680419921875,0.1072964295744896,-0.015342535451054573,0.10513094067573547
1761336396157746400,3.626746337890625,0.10717818886041641,-0.01604188233613968,0.10138280689716339
1761336396167812600,3.6368125,0.10439249873161316,-0.013502676039934158,0.08757492899894714
1761336396177879600,3.646879638671875,0.10456613451242447,-0.010854162275791168,0.06859911233186722
1761336396187945500,3.656945556640625,0.10026945173740387,-0.021315911784768105,0.03572983294725418
1761336396198011400,3.667011474609375,0.09966038912534714,-0.03502213954925537,0.003591603599488735
1761336396208078300,3.677078369140625,0.0961710512638092,-0.048375751823186874,-0.03400205820798874
1761336396218144500,3.68714453125,0.09394065290689468,-0.05934584513306618,-0.059793706983327866
1761336396228210400,3.69721044921875,0.08716069906949997,-0.03182997554540634,-0.06742382049560547
1761336396238277400,3.70727734375,0.07473491877317429,0.00220309104770422,-0.0595398023724556
1761336396248343600,3.717343505859375,0.0634760856628418,0.047284085303545,-0.04205334931612015
1761336396258409500,3.727409423828125,0.05187003314495087,0.11004387587308884,-0.02691834047436714
1761336396268476400,3.737476318359375,0.06659545749425888,0.14006520807743073,-0.004497898742556572
1761336396278542600,3.74754248046875,0.09908842295408249,0.13829633593559265,0.01861780509352684
1761336396288609500,3.757609619140625,0.10534476488828659,0.13181407749652863,0.020804837346076965
1761336396298675500,3.767675537109375,0.11987975984811783,0.13268892467021942,0.028146639466285706
1761336396308741600,3.77774169921875,0.1301189810037613,0.15508022904396057,0.0329584963619709
1761336396318808600,3.78780859375,0.14617492258548737,0.15151959657669067,0.025056898593902588
1761336396328874500,3.79787451171875,0.16166236996650696,0.14040225744247437,0.010091330856084824
1761336396338940400,3.8079404296875,0.17319704592227936,0.13508819043636322,-0.004998672753572464
1761336396349007400,3.81800732421875,0.18551786243915558,0.11871735751628876,-0.008722495287656784
1761336396359073300,3.8280732421875,0.2008478194475174,0.0913669615983963,-0.00720955291762948
1761336396369139500,3.838139404296875,0.2013043910264969,0.080570288002491,-0.010356694459915161
1761336396379206400,3.848206298828125,0.21875368058681488,0.04640619456768036,0.002507171593606472
1761336396389272600,3.8582724609375,0.27424752712249756,-0.0541408397257328,0.04684547707438469
1761336396399338500,3.86833837890625,0.27581876516342163,-0.09694982320070267,0.06705167889595032
1761336396409405400,3.878405517578125,0.25811800360679626,-0.1382942795753479,0.0869702622294426
1761336396419471600,3.8884716796875,0.22926238179206848,-0.14881296455860138,0.11421173065900803
1761336396429538600,3.89853857421875,0.19977134466171265,-0.14726407825946808,0.1473730355501175
1761336396439604500,3.9086044921875,0.1670970320701599,-0.14746728539466858,0.18173633515834808
1761336396449670700,3.918670654296875,0.13666126132011414,-0.14231164753437042,0.21259893476963043
1761336396459737600,3.928737548828125,0.1112549677491188,-0.1273883581161499,0.2358936071395874
1761336396469803500,3.938803466796875,0.08883175998926163,-0.09779992699623108,0.25629037618637085
1761336396479869400,3.948869384765625,0.0668625459074974,-0.06103845313191414,0.2600259780883789
1761336396489936600,3.9589365234375,0.049113061279058456,-0.02845717966556549,0.2543700337409973
1761336396500002300,3.969002197265625,0.036539476364851,-0.01658560521900654,0.23627838492393494
1761336396510068500,3.979068359375,0.024839211255311966,0.006077305413782597,0.2061803787946701
1761336396520134400,3.989134521484375,0.00822934228926897,0.027894720435142517,0.15352143347263336
1761336396530200600,3.99920068359375,-0.011479727923870087,0.04083794355392456,0.08802597224712372
1761336396540266500,4.0092666015625,-0.03293335437774658,0.04721275344491005,0.008850454352796078
1761336396550333400,4.01933349609375,-0.044857122004032135,0.04265208914875984,-0.06973942369222641
1761336396560399600,4.029399658203125,-0.050336845219135284,0.039179328829050064,-0.1327998787164688
1761336396570465500,4.039465576171875,-0.052860282361507416,0.03434646874666214,-0.1777060478925705
1761336396580532500,4.049532470703125,-0.051112718880176544,0.032158948481082916,-0.19223518669605255
1761336396590598700,4.0595986328125,-0.04457175359129906,0.04612289369106293,-0.17315252125263214
1761336396600664600,4.06966455078125,-0.04541277885437012,0.06683163344860077,-0.13219258189201355
1761336396610731500,4.0797314453125,-0.053806863725185394,0.09148404002189636,-0.07937516272068024
1761336396620797700,4.089797607421875,-0.08005338162183762,0.15681883692741394,-0.04266561567783356
1761336396630863400,4.09986328125,-0.05825748294591904,0.13275288045406342,-0.004242474213242531
1761336396640930300,4.109930419921875,-0.05196576565504074,0.11004357039928436,0.0034133149310946465
1761336396650996500,4.11999658203125,-0.087948277592659,0.09606055170297623,-0.037499573081731796
1761336396661062400,4.1300625,-0.13073089718818665,0.045024529099464417,-0.09706543385982513
1761336396671129300,4.14012939453125,-0.16126781702041626,0.006317256949841976,-0.1472351998090744
1761336396681195500,4.150195556640625,-0.17543236911296844,-0.006693616509437561,-0.16610530018806458
1761336396691262500,4.160262451171875,-0.17397989332675934,-0.000029115937650203705,-0.1470014601945877
1761336396701328600,4.17032861328125,-0.170380637049675,0.015441454015672207,-0.09136803448200226
1761336396711394600,4.18039453125,-0.1532621830701828,0.04751734435558319,-0.02196546457707882
1761336396721461500,4.19046142578125,-0.1207607090473175,0.07859350740909576,0.04943894222378731
1761336396731527700,4.200527587890625,-0.08547770977020264,0.10587921738624573,0.10502637177705765
1761336396741593600,4.210593505859375,-0.053646013140678406,0.1260036677122116,0.1261465847492218
1761336396751660500,4.22066064453125,-0.019616909325122833,0.13134923577308655,0.11603077501058578
1761336396761726700,4.230726806640625,0.01151091605424881,0.10909639298915863,0.08061206340789795
1761336396771792400,4.24079248046875,0.050561074167490005,0.07572849094867706,0.03986481949687004
1761336396781859600,4.250859619140625,0.08793001621961594,0.0520804226398468,0.006872517988085747
1761336396791925500,4.260925537109375,0.11819223314523697,0.030431047081947327,-0.016999870538711548
1761336396801991400,4.270991455078125,0.14061924815177917,0.010824591852724552,-0.04613085836172104
1761336396812058400,4.281058349609375,0.15659743547439575,-0.01205030269920826,-0.06844140589237213
1761336396822124500,4.29112451171875,0.16482633352279663,-0.029999207705259323,-0.08444886654615402
1761336396832191500,4.30119140625,0.17249462008476257,-0.036669157445430756,-0.07385356724262238
1761336396842257400,4.31125732421875,0.17350448668003082,-0.03025173768401146,-0.04511139914393425
1761336396852323600,4.321323486328125,0.16260413825511932,-0.031558893620967865,-0.005378052592277527
1761336396862390500,4.331390625,0.14053025841712952,-0.03389075770974159,0.0214889794588089
1761336396872456400,4.34145654296875,0.12100602686405182,-0.0446525514125824,0.030980898067355156
1761336396882522600,4.351522705078125,0.10086027532815933,-0.06619512289762497,0.03017396293580532
1761336396892589600,4.361589599609375,0.07581306248903275,-0.08274991065263748,0.01934167370200157
1761336396902655500,4.371655517578125,0.04775372892618179,-0.07525657117366791,0.022213362157344818
1761336396912721700,4.3817216796875,0.018758881837129593,-0.049831975251436234,0.03718072175979614
1761336396922788600,4.39178857421875,-0.006740353535860777,-0.006463995669037104,0.062232814729213715
1761336396932854500,4.4018544921875,-0.027837127447128296,0.03819506615400314,0.08126150816679001
1761336396942921500,4.41192138671875,-0.04659590125083923,0.07029175013303757,0.08814604580402374
1761336396952987400,4.4219873046875,-0.05737544596195221,0.0789996013045311,0.06912070512771606
1761336396963053600,4.432053466796875,-0.0626160129904747,0.07899241149425507,0.03586101904511452
1761336396973120500,4.44212060546875,-0.06359484791755676,0.07564233243465424,-0.019049525260925293
1761336396983186400,4.4521865234375,-0.06845138967037201,0.07677283883094788,-0.07838901877403259
1761336396993253400,4.46225341796875,-0.07036992907524109,0.07388649880886078,-0.14077435433864594
1761336397003319600,4.472319580078125,-0.06189228966832161,0.07893186807632446,-0.19529804587364197
1761336397013385500,4.482385498046875,-0.04459685459733009,0.0888076052069664,-0.2097630351781845
1761336397023452400,4.492452392578125,-0.014894618652760983,0.10186374932527542,-0.18858957290649414
1761336397033518600,4.5025185546875,0.018765874207019806,0.1077064573764801,-0.1536523550748825
1761336397043584500,4.51258447265625,0.05625279247760773,0.11163728684186935,-0.10885664820671082
1761336397053651500,4.5226513671875,0.08530793339014053,0.1114049032330513,-0.075015127658844
1761336397063717600,4.532717529296875,0.10571813583374023,0.09616149961948395,-0.061715297400951385
1761336397073783600,4.542783447265625,0.12194159626960754,0.07426584511995316,-0.05109559744596481
1761336397083850500,4.5528505859375,0.12894997000694275,0.058969177305698395,-0.04546833783388138
1761336397093916400,4.56291650390625,0.13234886527061462,0.05476196110248566,-0.032500188797712326
1761336397103982300,4.572982421875,0.12642227113246918,0.047107234597206116,-0.012851918116211891
1761336397114049500,4.583049560546875,0.12232993543148041,0.025886261835694313,0.015868928283452988
1761336397124115500,4.593115478515625,0.1133689284324646,0.007428422570228577,0.03871086239814758
1761336397134182400,4.603182373046875,0.10524782538414001,-0.018790874630212784,0.045469969511032104
1761336397144248600,4.61324853515625,0.09459064900875092,-0.044357217848300934,0.03552785515785217
1761336397154314500,4.623314453125,0.09222251176834106,-0.06995678693056107,0.022099535912275314
1761336397164381400,4.63338134765625,0.07968674600124359,-0.0898524671792984,0.011106273159384727
1761336397174447600,4.643447509765625,0.05894956365227699,-0.09963276982307434,0.016343815252184868
1761336397184513500,4.653513427734375,0.03355685621500015,-0.10928193479776382,0.025666741654276848
1761336397194580500,4.66358056640625,0.0065262774005532265,-0.10733705759048462,0.0425751656293869
1761336397204646700,4.673646728515625,-0.02753954753279686,-0.08825630694627762,0.056679002940654755
1761336397214712600,4.683712646484375,-0.06039466708898544,-0.05078742653131485,0.0699276477098465
1761336397224779500,4.693779541015625,-0.09129905700683594,-0.0193173810839653,0.08192971348762512
1761336397234845400,4.703845458984375,-0.11523374170064926,0.02645980939269066,0.08836720883846283
1761336397244911400,4.713911376953125,-0.1333770602941513,0.04695283621549606,0.07991433143615723
1761336397254978300,4.723978271484375,-0.14753276109695435,0.04250685125589371,0.06012599915266037
1761336397265044500,4.73404443359375,-0.14776845276355743,0.04793943464756012,0.03295110911130905
1761336397275111400,4.744111328125,-0.14097408950328827,0.05800562724471092,-0.0017448323778808117
1761336397285177300,4.75417724609375,-0.12327578663825989,0.069211944937706,-0.03525538742542267
1761336397295243500,4.764243408203125,-0.0931883379817009,0.07539334148168564,-0.06864430010318756
1761336397305310500,4.774310546875,-0.05743912234902382,0.08431945741176605,-0.0916108638048172
1761336397315376600,4.784376708984375,-0.028483770787715912,0.08582345396280289,-0.10618659853935242
1761336397325442600,4.794442626953125,-0.011340738274157047,0.08115813136100769,-0.12227768450975418
1761336397335509500,4.804509521484375,-0.012873334810137749,0.08018622547388077,-0.12413134425878525
1761336397345575700,4.81457568359375,-0.025742795318365097,0.08797650039196014,-0.1186356469988823
1761336397355641600,4.8246416015625,-0.05121271684765816,0.09232546389102936,-0.10970646142959595
1761336397365708500,4.83470849609375,-0.07433241605758667,0.10218608379364014,-0.09062384814023972
1761336397375774700,4.844774658203125,-0.09623690694570541,0.09871391206979752,-0.07476784288883209
1761336397385841700,4.854841552734375,-0.10796599835157394,0.07471803575754166,-0.05854785814881325
1761336397395907300,4.8649072265625,-0.11326845735311508,0.05387609452009201,-0.042204905301332474
1761336397405973500,4.874973388671875,-0.11747811734676361,0.04954579472541809,-0.02269112505018711
1761336397416040400,4.88504052734375,-0.1305260807275772,0.05656488239765167,0.007255064323544502
1761336397426106400,4.8951064453125,-0.15214402973651886,0.06434956192970276,0.041217558085918427
1761336397436172500,4.905172607421875,-0.17922592163085938,0.05895628035068512,0.07216179370880127
1761336397446239500,4.915239501953125,-0.19441232085227966,0.032997652888298035,0.10197881609201431
1761336397456305400,4.925305419921875,-0.19539211690425873,0.017753969877958298,0.11900880187749863
1761336397466371600,4.93537158203125,-0.19724273681640625,0.021831803023815155,0.12621131539344788
1761336397476438500,4.9454384765625,-0.1972104012966156,0.026015784591436386,0.11694110929965973
1761336397486504400,4.95550439453125,-0.19325906038284302,0.029847539961338043,0.1098903939127922
1761336397496570600,4.965570556640625,-0.2062281370162964,0.05959765613079071,0.09696890413761139
1761336397506637600,4.975637451171875,-0.1781725287437439,0.10282102227210999,0.0784817710518837
1761336397516704000,4.9857041015625,-0.16407068073749542,0.1355825960636139,0.05546870455145836
1761336397526770200,4.995770263671875,-0.15376850962638855,0.1463731974363327,0.03473999351263046
1761336397536837000,5.005837158203125,-0.14009936153888702,0.1412695199251175,0.008615504950284958
1761336397546903000,5.015903076171875,-0.10809642821550369,0.1285177767276764,-0.02235705778002739
1761336397556970200,5.02597021484375,-0.07217975705862045,0.13228875398635864,-0.049086108803749084
1761336397567036200,5.0360361328125,-0.04501045495271683,0.14172060787677765,-0.06285811215639114
1761336397577102000,5.04610205078125,-0.02705330401659012,0.1467568576335907,-0.07420141249895096
1761336397587169300,5.056169189453125,-0.014906628988683224,0.15548643469810486,-0.06797254830598831
1761336397597235200,5.066235107421875,0.0007735691033303738,0.1704004853963852,-0.0608581118285656
1761336397607301000,5.076301025390625,0.016752269119024277,0.17594145238399506,-0.04491403326392174
1761336397617368300,5.086368408203125,0.029398448765277863,0.18103152513504028,-0.03575468808412552
1761336397627434200,5.096434326171875,0.0344933457672596,0.19483895599842072,-0.03438342362642288
1761336397637500200,5.106500244140625,0.0316719226539135,0.20720751583576202,-0.030931692570447922
1761336397647567000,5.116567138671875,0.025933077558875084,0.20588818192481995,-0.0349554643034935
1761336397657633000,5.126633056640625,0.018164824694395065,0.18983682990074158,-0.035561978816986084
1761336397667700000,5.136699951171875,0.01741034910082817,0.15722589194774628,-0.04054901748895645
1761336397677766100,5.14676611328125,0.029518118128180504,0.10418438166379929,-0.055646926164627075
1761336397687832000,5.15683203125,0.048847079277038574,0.04650537669658661,-0.07396361231803894
1761336397697899000,5.16689892578125,0.07062143832445145,-0.0274449922144413,-0.0969984233379364
1761336397707965200,5.176965087890625,0.08338623493909836,-0.10508625209331512,-0.12187208235263824
1761336397718031000,5.187031005859375,0.08652904629707336,-0.18585854768753052,-0.13919904828071594
1761336397728098000,5.19709814453125,0.0884193554520607,-0.20563144981861115,-0.12194015830755234
1761336397738164200,5.207164306640625,0.07845237106084824,-0.1836468130350113,-0.07799513638019562
1761336397748230100,5.217230224609375,0.061364199966192245,-0.14761771261692047,-0.018112899735569954
1761336397758297000,5.227297119140625,0.04304054379463196,-0.09492720663547516,0.04955584928393364
1761336397768363300,5.23736328125,0.0314619205892086,-0.04734770208597183,0.11446667462587357
1761336397778429000,5.247428955078125,0.022745169699192047,-0.01023908331990242,0.1638299971818924
1761336397788496100,5.25749609375,0.00744317751377821,0.003900437615811825,0.18677419424057007
1761336397798562000,5.26756201171875,-0.0014068540185689926,-0.002039213664829731,0.1761433184146881
1761336397808628000,5.2776279296875,0.007247088011354208,-0.03357796370983124,0.13045784831047058
1761336397818695200,5.287695068359375,0.02597556635737419,-0.06319982558488846,0.06892896443605423
1761336397828761000,5.297760986328125,0.042560938745737076,-0.08636453747749329,0.004632532596588135
1761336397838828000,5.307828125,0.06181822717189789,-0.10196061432361603,-0.047537945210933685
1761336397848894200,5.317894287109375,0.07141253352165222,-0.09143313765525818,-0.07862928509712219
1761336397858960100,5.327960205078125,0.07006336748600006,-0.0523795410990715,-0.09102825075387955
1761336397869027000,5.338027099609375,0.053586915135383606,-0.01154129859060049,-0.09331697225570679
1761336397879093200,5.34809326171875,0.04246751219034195,0.022558104246854782,-0.09766224771738052
1761336397889159200,5.3581591796875,0.0274954866617918,0.03962017968297005,-0.10317952185869217
1761336397899226000,5.36822607421875,0.01883743144571781,0.05781612545251846,-0.10838029533624649
1761336397909292300,5.378292236328125,0.011541169136762619,0.08692527562379837,-0.11949233710765839
1761336397919358200,5.388358154296875,0.020871421322226524,0.06130662560462952,-0.128129780292511
1761336397929425200,5.398425048828125,0.0410001277923584,0.02617659978568554,-0.1524881273508072
1761336397939491000,5.408490966796875,0.04403124377131462,0.0025553610175848007,-0.1830856055021286
1761336397949557000,5.418556884765625,0.036046020686626434,-0.02603127434849739,-0.21050524711608887
1761336397959624000,5.4286240234375,0.016481652855873108,-0.033017486333847046,-0.2025284618139267
1761336397969690000,5.438690185546875,-0.0011934814974665642,-0.016267800703644753,-0.18149694800376892
1761336397979756000,5.448756103515625,-0.01757185347378254,-0.0003242660313844681,-0.12857039272785187
1761336397989823000,5.458822998046875,-0.030904168263077736,0.016740471124649048,-0.06299643963575363
1761336397999889200,5.46888916015625,-0.03609920293092728,0.0447414368391037,0.005723530426621437
1761336398009956000,5.4789560546875,-0.03239075094461441,0.0624312162399292,0.05486604571342468
1761336398020022300,5.489022216796875,-0.016467507928609848,0.051718488335609436,0.0642685815691948
1761336398030088200,5.499088134765625,0.005360026843845844,0.025280751287937164,0.047114890068769455
1761336398040155100,5.509155029296875,0.033388715237379074,-0.007045555394142866,0.018909523263573647
1761336398050221300,5.51922119140625,0.0505775548517704,-0.04398706182837486,-0.012469438835978508
1761336398060287200,5.529287353515625,0.06522004306316376,-0.054203249514102936,-0.032998744398355484
1761336398070354200,5.539354248046875,0.07678402215242386,-0.05242878198623657,-0.03660253435373306
1761336398080420400,5.54942041015625,0.08077370375394821,-0.049682047218084335,-0.02917414903640747
1761336398090486000,5.559486083984375,0.08425019681453705,-0.053656015545129776,-0.024192705750465393
1761336398100553000,5.569552978515625,0.09308996796607971,-0.05934041738510132,-0.01995977759361267
1761336398110619100,5.579619140625,0.11293558031320572,-0.05768739432096481,-0.02116326242685318
1761336398120685000,5.58968505859375,0.1276804506778717,-0.04428949952125549,-0.012734264135360718
1761336398130752000,5.599751953125,0.13622280955314636,-0.031540147960186005,0.004694527015089989
1761336398140818200,5.609818115234375,0.14959120750427246,-0.01526945736259222,0.021614938974380493
1761336398150885000,5.619885009765625,0.1588134616613388,0.003067205660045147,0.03296160325407982
1761336398160951000,5.629950927734375,0.16175679862499237,-0.004385651089251041,0.032879311591386795
1761336398171017200,5.640017333984375,0.16712482273578644,-0.012100065127015114,0.0006347540766000748
1761336398181084200,5.650084228515625,0.18544963002204895,-0.03921791911125183,-0.039010193198919296
1761336398191150000,5.660150146484375,0.1901322603225708,-0.047905948013067245,-0.07561880350112915
1761336398201216300,5.67021630859375,0.18995043635368347,-0.06304043531417847,-0.0997561439871788
1761336398211283200,5.680283203125,0.1882031410932541,-0.07917626202106476,-0.10818079113960266
1761336398221349000,5.69034912109375,0.18991486728191376,-0.09843055158853531,-0.09557323157787323
1761336398231415000,5.7004150390625,0.1905420422554016,-0.11337860673666,-0.06349838525056839
1761336398241482200,5.710482177734375,0.19366377592086792,-0.10813576728105545,-0.01815558597445488
1761336398251548200,5.720548095703125,0.20094725489616394,-0.0963859036564827,0.029666263610124588
1761336398261614000,5.730614013671875,0.2056700736284256,-0.08900418132543564,0.06619073450565338
1761336398271681000,5.740680908203125,0.21106085181236267,-0.09526367485523224,0.08909286558628082
1761336398281747200,5.750747314453125,0.21027997136116028,-0.11480554193258286,0.0975189134478569
1761336398291814100,5.760814208984375,0.19798655807971954,-0.12330768257379532,0.0822768434882164
1761336398301880000,5.770880126953125,0.19002516567707062,-0.13396629691123962,0.06604113429784775
1761336398311946200,5.7809462890625,0.19632035493850708,-0.15807269513607025,0.054831087589263916
1761336398322013200,5.79101318359375,0.19736938178539276,-0.16494497656822205,0.05209614709019661
1761336398332079000,5.8010791015625,0.18185727298259735,-0.15921837091445923,0.037868209183216095
1761336398342145300,5.811145263671875,0.16513901948928833,-0.16777265071868896,0.020877065137028694
1761336398352212200,5.821212158203125,0.14759758114814758,-0.15360942482948303,0.011001000180840492
1761336398362278100,5.831278076171875,0.13314476609230042,-0.13519050180912018,0.014447067864239216
1761336398372344300,5.84134423828125,0.11239421367645264,-0.10623076558113098,0.02773331105709076
1761336398382411300,5.851411376953125,0.10241309553384781,-0.08240386843681335,0.04837268590927124
1761336398392477000,5.861476806640625,0.09911264479160309,-0.05547451600432396,0.06833573430776596
1761336398402543000,5.871543212890625,0.09398764371871948,-0.04816042631864548,0.07081874459981918
1761336398412610000,5.881610107421875,0.07823557406663895,-0.03744333237409592,0.05654419958591461
1761336398422676000,5.891676025390625,0.05368715897202492,-0.03416694700717926,0.028839366510510445
1761336398432742100,5.9017421875,0.031827133148908615,-0.046696584671735764,-0.006993199698626995
1761336398442809000,5.91180908203125,0.023093577474355698,-0.07169770449399948,-0.04344223067164421
1761336398452875300,5.921875244140625,0.013910200446844101,-0.10458961129188538,-0.07418841868638992
1761336398462941200,5.931941162109375,0.015101762488484383,-0.1004953682422638,-0.0889178141951561
1761336398473008000,5.942008056640625,0.023834001272916794,-0.08013763278722763,-0.07240701466798782
1761336398483074300,5.95207421875,0.01932433806359768,-0.06474227458238602,-0.04001287370920181
1761336398493141200,5.962141357421875,0.006679116282612085,-0.05577674135565758,-0.008676786907017231
1761336398503207200,5.972207275390625,-0.012025982141494751,-0.045276790857315063,0.006245012395083904
1761336398513273000,5.982273193359375,-0.04036148265004158,-0.025661809369921684,0.005847402848303318
1761336398523340000,5.992340087890625,-0.06720875948667526,-0.011218803003430367,-0.003882824210450053
1761336398533406000,6.002406005859375,-0.08973058313131332,-0.020789938047528267,-0.010799852199852467
1761336398543472000,6.01247216796875,-0.1045161634683609,-0.03265559300780296,-0.0029215924441814423
1761336398553539000,6.0225390625,-0.10637691617012024,-0.023595253005623817,0.016876880079507828
1761336398563605000,6.03260498046875,-0.10393233597278595,-0.018433615565299988,0.049879588186740875
1761336398573671200,6.042671142578125,-0.10213949531316757,-0.027741096913814545,0.0597095787525177
1761336398583738000,6.052738037109375,-0.11146675050258636,-0.04267200827598572,0.055060215294361115
1761336398593804000,6.062803955078125,-0.1267666071653366,-0.05682191625237465,0.0374671071767807
1761336398603870200,6.0728701171875,-0.14801879227161407,-0.057219475507736206,0.009692123159766197
1761336398613937200,6.082937255859375,-0.17318406701087952,-0.05628204345703125,-0.017573852092027664
1761336398624003000,6.093003173828125,-0.20038408041000366,-0.0643109604716301,-0.04311590641736984
1761336398634070300,6.1030703125,-0.22016124427318573,-0.07745632529258728,-0.05487722158432007
1761336398644136200,6.11313623046875,-0.2255728542804718,-0.09100798517465591,-0.05187559872865677
1761336398654202000,6.1232021484375,-0.22196932137012482,-0.10017458349466324,-0.05604025349020958
1761336398664269300,6.133269287109375,-0.21431325376033783,-0.11335480213165283,-0.07499131560325623
1761336398674335000,6.1433349609375,-0.20760022103786469,-0.13977335393428802,-0.11216851323843002
1761336398684401200,6.153401123046875,-0.20272475481033325,-0.16153255105018616,-0.16999436914920807
1761336398694468000,6.163468017578125,-0.19934439659118652,-0.17632588744163513,-0.24332423508167267
1761336398704534000,6.173533935546875,-0.19114823639392853,-0.17022109031677246,-0.31113648414611816
1761336398714600200,6.18360009765625,-0.18287646770477295,-0.21725225448608398,-0.33654356002807617
1761336398724667100,6.193667236328125,-0.1590912640094757,-0.19500486552715302,-0.2707703113555908
1761336398734733000,6.203733154296875,-0.14992733299732208,-0.14192567765712738,-0.13658908009529114
1761336398744799200,6.21379931640625,-0.16282597184181213,-0.12705369293689728,-0.023685399442911148
1761336398754866200,6.2238662109375,-0.18053306639194489,-0.12001363188028336,0.037406716495752335
1761336398764932000,6.23393212890625,-0.19240902364253998,-0.10986974835395813,0.03726993873715401
1761336398774998300,6.243998291015625,-0.1932380646467209,-0.10093110799789429,0.015078882686793804
1761336398785065200,6.254065185546875,-0.18813015520572662,-0.057218123227357864,-0.0015350240282714367
1761336398795131100,6.264131103515625,-0.18416284024715424,-0.030497562140226364,0.006192936562001705
1761336398805198000,6.274197998046875,-0.19143904745578766,-0.029624290764331818,0.006602738983929157
1761336398815264000,6.284263916015625,-0.1936904788017273,-0.057651132345199585,-0.00517349224537611
1761336398825330000,6.294329833984375,-0.18017792701721191,-0.08080507814884186,-0.021939055994153023
1761336398835397000,6.304397216796875,-0.1658887267112732,-0.08376970887184143,-0.03221672773361206
1761336398845463000,6.314463134765625,-0.1692212074995041,-0.12622149288654327,-0.05566239356994629
1761336398855529000,6.324529052734375,-0.19327861070632935,-0.18624089658260345,-0.10165251791477203
1761336398865596200,6.33459619140625,-0.22175870835781097,-0.2133776992559433,-0.15651138126850128
1761336398875662000,6.344662109375,-0.2404053658246994,-0.2323351353406906,-0.20940068364143372
1761336398885728000,6.35472802734375,-0.24941042065620422,-0.23864901065826416,-0.25420936942100525
1761336398895795200,6.364795166015625,-0.26519790291786194,-0.23881866037845612,-0.30972588062286377
1761336398905861000,6.374861083984375,-0.27930209040641785,-0.2373848706483841,-0.36766284704208374
1761336398915927300,6.38492724609375,-0.2920525074005127,-0.2096126228570938,-0.393268883228302
1761336398925994200,6.394994140625,-0.29765525460243225,-0.19167380034923553,-0.3574877679347992
1761336398936060200,6.40506005859375,-0.2932131290435791,-0.15229177474975586,-0.29375192523002625
1761336398946127000,6.415127197265625,-0.2852121889591217,-0.0605243444442749,-0.22057461738586426
1761336398956193300,6.425193359375,-0.2856534719467163,0.03602909296751022,-0.19113630056381226
1761336398966259000,6.435259033203125,-0.29576927423477173,0.09105657041072845,-0.19024714827537537
1761336398976326000,6.445325927734375,-0.3058019280433655,0.10527145862579346,-0.22183996438980103
1761336398986392000,6.45539208984375,-0.31323757767677307,0.09366663545370102,-0.26383817195892334
1761336398996458000,6.4654580078125,-0.31132224202156067,0.05322759598493576,-0.304365873336792
1761336399006525000,6.47552490234375,-0.28813600540161133,0.042777277529239655,-0.33734002709388733
1761336399016591000,6.485591064453125,-0.244042307138443,0.0639004036784172,-0.34778812527656555
1761336399026657000,6.495656982421875,-0.18607209622859955,0.04170491546392441,-0.33315524458885193
1761336399036724000,6.505723876953125,-0.12307315319776535,0.0057522449642419815,-0.2869566082954407
1761336399046790100,6.5157900390625,-0.08779388666152954,-0.05411713570356369,-0.24125725030899048
1761336399056856000,6.52585595703125,-0.07180053740739822,-0.10922779142856598,-0.20497967302799225
1761336399066923300,6.53592333984375,-0.07014793157577515,-0.12562242150306702,-0.17352834343910217
1761336399076989200,6.5459892578125,-0.06812019646167755,-0.08710352331399918,-0.14791938662528992
1761336399087055000,6.55605517578125,-0.07204879075288773,-0.05601077526807785,-0.12020011246204376
1761336399097122300,6.566122314453125,-0.08012988418340683,-0.06246627867221832,-0.08476089686155319
1761336399107188000,6.57618798828125,-0.08433128893375397,-0.05840442329645157,-0.01771741360425949
1761336399117255200,6.586255126953125,-0.08090699464082718,-0.03560376912355423,0.08532508462667465
1761336399127321000,6.596321044921875,-0.07163462042808533,-0.000699448399245739,0.19727057218551636
1761336399137387000,6.606386962890625,-0.06301530450582504,0.024784337729215622,0.28699004650115967
1761336399147454000,6.616453857421875,-0.0630694180727005,0.03246709704399109,0.3317185044288635
1761336399157520100,6.62652001953125,-0.057497553527355194,0.027129855006933212,0.3546248972415924
1761336399167586000,6.6365859375,-0.056634578853845596,0.03315480798482895,0.35947003960609436
1761336399177653000,6.646653076171875,-0.05999362841248512,0.04411877319216728,0.3500663936138153
1761336399187719200,6.65671923828125,-0.07117839902639389,0.016027141362428665,0.32939499616622925
1761336399197785000,6.66678515625,-0.06797008961439133,-0.014340084977447987,0.29391345381736755
1761336399207852000,6.67685205078125,-0.045757513493299484,-0.02191510982811451,0.25697633624076843
1761336399217918200,6.686918212890625,-0.016560479998588562,-0.02113533578813076,0.20803913474082947
1761336399227984100,6.696984130859375,0.02071291022002697,-0.04633370414376259,0.15866719186306
1761336399238051000,6.707051025390625,0.05496169254183769,-0.0723666399717331,0.13792623579502106
1761336399248117200,6.7171171875,0.07707349210977554,-0.04451259970664978,0.13247694075107574
1761336399258183000,6.727182861328125,0.07626868039369583,-0.028661463409662247,0.13140234351158142
1761336399268250000,6.73725,0.06466071307659149,-0.01785503886640072,0.11918600648641586
1761336399278316000,6.74731591796875,0.052402980625629425,-0.009232789278030396,0.09788577258586884
1761336399288383000,6.757383056640625,0.046062953770160675,0.025696352124214172,0.07786782085895538
1761336399298449200,6.76744921875,0.035467036068439484,0.058929670602083206,0.053575269877910614
1761336399308515000,6.77751513671875,0.029907260090112686,0.0739917904138565,0.030067842453718185
1761336399318582000,6.78758203125,0.0334138423204422,0.06639458984136581,0.0031574005261063576
1761336399328648200,6.797648193359375,0.04515582695603371,0.04018379747867584,-0.031927019357681274
1761336399338714000,6.807714111328125,0.06289593875408173,0.010405394248664379,-0.054496243596076965
1761336399348781000,6.817781005859375,0.07274089008569717,-0.02472000941634178,-0.052070554345846176
1761336399358847200,6.82784716796875,0.07976498454809189,-0.021559368818998337,-0.02623150125145912
1761336399368913200,6.8379130859375,0.0801391676068306,-0.013257971964776516,0.032524578273296356
1761336399378980000,6.84797998046875,0.0847001001238823,0.003168937750160694,0.09195780754089355
1761336399389046300,6.85804638671875,0.08350586891174316,0.04383280128240585,0.1359761506319046
1761336399399112000,6.86811181640625,0.08269760012626648,0.08606227487325668,0.1508943736553192
1761336399409179100,6.87817919921875,0.08029314875602722,0.10470902919769287,0.13667884469032288
1761336399419245000,6.8882451171875,0.07984413951635361,0.11452650278806686,0.10421757400035858
1761336399429311000,6.89831103515625,0.07695192098617554,0.1308864951133728,0.07207725942134857
1761336399439378000,6.9083779296875,0.0725606381893158,0.1257529854774475,0.053754180669784546
1761336399449444000,6.918444091796875,0.07485415041446686,0.11475013941526413,0.05358986556529999
1761336399459511000,6.928510986328125,0.07562316209077835,0.1161903366446495,0.05677812919020653
1761336399469577000,6.938576904296875,0.07707410305738449,0.11176112294197083,0.05747738108038902
1761336399479643100,6.94864306640625,0.07813617587089539,0.09817979484796524,0.05088312551379204
1761336399489710000,6.9587099609375,0.0755215734243393,0.10254073888063431,0.0342140756547451
1761336399499776000,6.96877587890625,0.07173562794923782,0.13823215663433075,-0.0034643257968127728
1761336399509842200,6.97884228515625,0.05657579377293587,0.1872086077928543,-0.04383188858628273
1761336399519908600,6.98890869140625,0.04177234694361687,0.2138889580965042,-0.06709699332714081
1761336399529974800,6.998974853515625,0.03691666200757027,0.21885381639003754,-0.05165611207485199
1761336399540040700,7.009040771484375,0.04363342002034187,0.253690630197525,-0.010180575773119926
1761336399550107600,7.019107666015625,0.05238867923617363,0.3020089268684387,0.03930220380425453
1761336399560173800,7.029173828125,0.05539006367325783,0.38411471247673035,0.1106799840927124
1761336399570239700,7.03923974609375,-0.002224896103143692,0.5295602083206177,0.31588611006736755
1761336399580306700,7.049306640625,-0.056526221334934235,0.37952226400375366,0.2698850631713867
1761336399590372900,7.059372802734375,-0.06244742125272751,0.2869109809398651,0.155742809176445
1761336399600438800,7.069438720703125,-0.042870793491601944,0.14564922451972961,0.05353281646966934
1761336399610505700,7.079505615234375,-0.016126183792948723,0.05728926509618759,-0.05093758553266525
1761336399620572000,7.089572021484375,-0.01214023120701313,-0.0011612595990300179,-0.1404844969511032
1761336399630638800,7.099638916015625,-0.03813906013965607,-0.03758024051785469,-0.20181140303611755
1761336399640704800,7.109704833984375,-0.06795980781316757,-0.029010187834501266,-0.19974026083946228
1761336399650770700,7.119770751953125,-0.09381300210952759,0.052891746163368225,-0.09658873826265335
1761336399660837600,7.129837646484375,-0.13495111465454102,0.10931587219238281,0.035767968744039536
