time,seconds_elapsed,z,y,x
1761336349222952400,0.085952392578125,0.7380097391337156,0.8131050198674201,-0.7346186353906988
1761336349233019600,0.09601953125,0.8076502615928649,0.799123256266117,-0.5615279675900936
1761336349243085300,0.106085205078125,0.8703513401776551,0.8090493147358297,-0.42520047524776305
1761336349253151500,0.1161513671875,1.0342693982243538,0.9179182702556252,-0.33763767140060663
1761336349263218400,0.126218505859375,1.280408643361926,1.0470753960445522,-0.3614475495224818
1761336349273284400,0.136284423828125,1.5483663370758294,1.0499974209710956,-0.40794732529297467
1761336349283351300,0.146351318359375,1.787528144416213,0.9927540232703089,-0.38496355926431713
1761336349293417500,0.15641748046875,1.8753823689579963,0.8534916830524801,-0.3119422717930749
1761336349303483400,0.1664833984375,1.7477601976513861,0.6554445609107613,-0.1558678399188444
1761336349313550600,0.176550537109375,1.3651923744171857,0.5406681349128485,-0.01679667489156127
1761336349323616500,0.186616455078125,0.8727139776557683,0.4271916855975985,-0.008728921107016504
1761336349333683500,0.196683349609375,0.5452484484404325,0.4341664930462837,-0.09286478271279483
1761336349343749600,0.20674951171875,0.40742461659312246,0.46778775374963877,-0.23912874532099812
1761336349353815600,0.216815673828125,0.2638660404860973,0.35784605443179607,-0.34117738983407614
1761336349363882500,0.226882568359375,0.0757253953307867,0.09521905422136187,-0.2938371811840683
1761336349373948700,0.23694873046875,-0.09191431358754634,-0.17493468823209404,-0.1359238799775019
1761336349384015600,0.247015625,-0.1744599103271961,-0.3329904301166534,0.05009794639293104
1761336349394081500,0.25708154296875,-0.1173831013649702,-0.3145972798138857,0.06665745152775197
1761336349404147500,0.2671474609375,0.08718494697809219,-0.14495704472810028,-0.06760938195772469
1761336349414214400,0.27721435546875,0.34018414101302624,0.01831555502191186,-0.21016448011063038
1761336349424280300,0.2872802734375,0.4912339496582746,-0.05199629082754254,-0.24162315595261752
1761336349434347300,0.29734716796875,0.49821255649924273,-0.23020547068566083,-0.10960377260036766
1761336349444413400,0.307413330078125,0.35470308023095126,-0.31888942404985426,0.06421082556061446
1761336349454479400,0.317479248046875,0.03194645935893058,-0.2623053670406341,0.23588198195211588
1761336349464546600,0.327546630859375,-0.3116641489714384,-0.10070588813461363,0.4844561260864138
1761336349474612500,0.337612548828125,-0.6397919414877891,0.051153337197378274,0.7145728955753147
1761336349484679400,0.347679443359375,-0.8911673337131738,0.10503580709770322,0.820929868274182
1761336349494745600,0.35774560546875,-1.0845967329263686,0.0895106865119189,0.8273106553524732
1761336349504811500,0.3678115234375,-1.227625147679448,0.054948199435696,0.6669882837101817
1761336349514878500,0.37787841796875,-1.2478496050626038,0.015006576604396103,0.4414961052820086
1761336349524944600,0.387944580078125,-1.2432336356997489,-0.0349446182616055,0.3222121387317777
1761336349535010600,0.398010498046875,-1.2696405811101197,-0.20536416715681552,0.24902576035931706
1761336349545077500,0.408077392578125,-1.246609249612689,-0.3994542953010648,0.2941355065435171
1761336349555143700,0.418143798828125,-1.2194652220994233,-0.47990028941296037,0.41718160210624333
1761336349565210600,0.428210693359375,-1.1901508648097514,-0.44742399749364703,0.4920768302232027
1761336349575276300,0.4382763671875,-1.1506792706429958,-0.36827472866140304,0.5666173996835947
1761336349585343500,0.448343505859375,-1.0540262380957603,-0.27069007781986143,0.6157498255126178
1761336349595409400,0.458409423828125,-0.9390244789093732,-0.20465678607244042,0.5864809147998691
1761336349605475300,0.468475341796875,-0.8470125501662492,-0.20176161262020467,0.4359586371600628
1761336349615542500,0.47854248046875,-0.7515905207186937,-0.2700244717842899,0.1790970686085522
1761336349625608400,0.4886083984375,-0.7176385667562485,-0.4494436667529866,-0.060994128536432976
1761336349635674400,0.49867431640625,-0.7602934671342373,-0.6524149839565158,-0.2749709334768355
1761336349645741600,0.508741455078125,-0.8342775717556477,-0.7733785741567611,-0.43150384970828887
1761336349655807500,0.518807373046875,-0.9037479983448982,-0.7687392969835549,-0.5058648248180747
1761336349665874400,0.52887451171875,-0.8757254344314336,-0.6545949583441019,-0.4492541720628738
1761336349675940600,0.538940673828125,-0.8238181370615959,-0.585011792095378,-0.2993196311831474
1761336349686007600,0.549007568359375,-0.7425245862096548,-0.57399289688766,-0.15281199601218104
1761336349696073500,0.559073486328125,-0.6200304254412651,-0.5192786158056929,-0.058770168876647946
1761336349706139600,0.5691396484375,-0.5634264946877956,-0.42118291016947473,-0.0736826374568045
1761336349716206600,0.57920654296875,-0.5716396117597818,-0.3942657136820256,-0.12372121834531426
1761336349726272500,0.5892724609375,-0.6043021104335785,-0.46382926191482693,-0.15999503938406706
1761336349736338400,0.59933837890625,-0.6688461865365505,-0.5970428234877064,-0.2052411252990365
1761336349746405400,0.6094052734375,-0.7580377971619368,-0.716446215166524,-0.2511157183758914
1761336349756471300,0.61947119140625,-0.813433521169424,-0.7850673314500599,-0.28185484777167435
1761336349766538500,0.62953857421875,-0.7983423350214958,-0.8099684023421257,-0.27255276641920206
1761336349776604400,0.6396044921875,-0.7348235103130341,-0.763106844054535,-0.23519115014374256
1761336349786671400,0.64967138671875,-0.6369383056223392,-0.7092078614108264,-0.14626564310863613
1761336349796737500,0.659737548828125,-0.5850099654644727,-0.6337589449338614,-0.0349500250890851
1761336349806803500,0.669803466796875,-0.6187240190178156,-0.5600215085498988,0.03907631123885512
1761336349816870400,0.679870361328125,-0.6287503229916095,-0.4946154818553477,0.05260200163573026
1761336349826936600,0.6899365234375,-0.5345668954282998,-0.4505955402018502,0.015731968269497156
1761336349837003500,0.70000341796875,-0.4107353485763073,-0.38839046497307717,-0.01009615433961153
1761336349847069400,0.7100693359375,-0.31828853554725645,-0.32229170677401126,0.03687836280316114
1761336349857135600,0.720135498046875,-0.2813046665430069,-0.2799664584754966,0.1297967388667166
1761336349867202600,0.73020263671875,-0.3100695732563734,-0.2407455328678712,0.23086817237809298
1761336349877268500,0.7402685546875,-0.3772293848156929,-0.20529705673735588,0.3092778383567929
1761336349887335400,0.75033544921875,-0.4614847080826759,-0.21252249621255323,0.2715397899843752
1761336349897401600,0.760401611328125,-0.49937283245027064,-0.21944086076626554,0.16570684115961193
1761336349907467300,0.77046728515625,-0.46642684065997597,-0.1896981037303805,0.02530205290839076
1761336349917534500,0.780534423828125,-0.4223562282651663,-0.2043264581395313,-0.19926570415124295
1761336349927600400,0.790600341796875,-0.38027942003607745,-0.2854700791267678,-0.4100875521920621
1761336349937667300,0.800667236328125,-0.36443069351911545,-0.4426545911347493,-0.5671449306890368
1761336349947733500,0.8107333984375,-0.4106903403908014,-0.5719911286111921,-0.6694101040296256
1761336349957799400,0.82079931640625,-0.4693488655865192,-0.540003277795948,-0.6967284651964902
1761336349967866400,0.830866455078125,-0.5112754516899586,-0.3889701645571738,-0.6402420233428477
1761336349977932500,0.8409326171875,-0.5158452438235283,-0.2112055866613984,-0.48085517898499963
1761336349987998500,0.85099853515625,-0.47135026853680606,-0.07420041425321251,-0.27113910022899507
1761336349998065400,0.8610654296875,-0.3435439728349447,0.031000447213090955,-0.1153578791476786
1761336350008131600,0.871131591796875,-0.1976268509030342,0.06134864106252789,0.032778964660316705
1761336350018198500,0.881198486328125,-0.07345218970179557,0.012901457551307975,0.13583309642150998
1761336350028264400,0.891264404296875,-0.006102408528327941,-0.05015153974369168,0.18471300879418848
1761336350038330600,0.90133056640625,-0.003122515934705734,-0.09558207884747534,0.07857172467261553
1761336350048397600,0.9113974609375,0.06241290929317474,-0.1205977890951559,-0.02674757554158568
1761336350058463500,0.92146337890625,0.17903730124533176,-0.10845547934807837,-0.11032704537361859
1761336350068530400,0.931530517578125,0.21551497429311275,-0.07969751383215189,-0.12405746456235646
1761336350078596600,0.9415966796875,0.18308102367818355,-0.09843666456099599,-0.05163227982074022
1761336350088662300,0.951662353515625,0.1821937194496393,-0.12120309804454445,0.04489361921548843
1761336350098729500,0.9617294921875,0.15301555576026438,-0.09066416739597916,0.042791824630647894
1761336350108795400,0.97179541015625,0.10174480272829532,-0.06906747181154788,0.02547872464954853
1761336350118862300,0.9818623046875,0.034760347735881804,-0.07945694654192775,0.02787760248482227
1761336350128928500,0.991928466796875,-0.035136779832839964,-0.07144647590257228,0.023515461752563714
1761336350138994400,1.001994384765625,-0.09257716141045093,-0.08055953748896717,0.02579641229659319
1761336350149061400,1.012061279296875,-0.11628887638747691,-0.1376222083279863,0.0456913454644382
1761336350159127600,1.02212744140625,-0.15596972939074039,-0.17090090267136693,0.043954438669234513
1761336350169194500,1.032194580078125,-0.1792582505196333,-0.14245003034323453,0.014829904863238335
1761336350179260400,1.042260498046875,-0.20245733979940414,-0.09079634240828453,-0.061490241490304465
1761336350189326600,1.05232666015625,-0.16677169391214847,-0.058397024715319275,-0.140203712721169
1761336350199393500,1.0623935546875,-0.13273556879758833,-0.08016600812673569,-0.18573826018869877
1761336350209459500,1.07245947265625,-0.15475217029452323,-0.16920414522346108,-0.23434870797023175
1761336350219526700,1.082526611328125,-0.17911854978799818,-0.23630093801654875,-0.23428455669283865
1761336350229592600,1.092592529296875,-0.17003157249093054,-0.24020316961947827,-0.24922858945503829
1761336350239658500,1.102658447265625,-0.1318131932556629,-0.20086155850794166,-0.27190102451220155
1761336350249725700,1.1127255859375,-0.10402268453240394,-0.12966938616000115,-0.24428309587687252
1761336350259791400,1.122791259765625,-0.10042202969193458,-0.0781260267317295,-0.19670228340402243
1761336350269858300,1.1328583984375,-0.0968617068618536,-0.05916632858738303,-0.1428859375424683
1761336350279924500,1.142924560546875,-0.11476561234295367,-0.05022884276360273,-0.10606412723213433
1761336350289990400,1.152990478515625,-0.16097849746346474,-0.05048099089376628,-0.10068754876032471
1761336350300057300,1.163057373046875,-0.17211363946199415,-0.06190254861824214,-0.12162132345661521
1761336350310123500,1.17312353515625,-0.1617424675732851,-0.06434424268193542,-0.13634922925010323
1761336350320190500,1.1831904296875,-0.16161737988889216,-0.062092956623807545,-0.10814838616028427
1761336350330256400,1.19325634765625,-0.17025485985279082,-0.059139221384748815,-0.055259822668135165
1761336350340322600,1.203322509765625,-0.12035831778347492,-0.06822298381142318,0.007773848871886729
1761336350350389500,1.213389404296875,0.0036684593796730038,-0.12166852359920739,0.014887626399844884
1761336350360455400,1.223455322265625,0.06748363668620586,-0.1601088019568473,-0.019227263039350507
1761336350370522600,1.233522705078125,0.039433015722036356,-0.15990633818730712,-0.05319821396321058
1761336350380588500,1.243588623046875,-0.091816113910079,-0.09434037169069051,-0.024679390965402125
1761336350390654500,1.253654541015625,-0.22883389007151125,0.0010346037447452544,-0.024813684869557616
1761336350400721700,1.2637216796875,-0.28560616312921044,0.03617744799219072,-0.0012554068885743618
1761336350410787600,1.27378759765625,-0.2732633989065885,0.04679777233637869,0.003940408188849687
1761336350420854500,1.2838544921875,-0.19201602528393266,0.04007131362557411,-0.016588438968360424
1761336350430920400,1.29392041015625,-0.14531506438553332,0.030038652976229784,-0.0061624681524932385
1761336350440986400,1.303986328125,-0.122943073579669,0.024524273468926546,0.01575344944894314
1761336350451053300,1.31405322265625,-0.0729582687050104,-0.015094766344502568,0.039117520032078024
1761336350461119500,1.324119384765625,-0.00398059406876564,-0.029901801788806914,0.04255407035201788
1761336350471186000,1.33418603515625,0.06008709669411182,-0.052066506519541145,0.012130582776665687
1761336350481251800,1.344251953125,0.17238719570636749,-0.096027301864326,0.01594634167253971
1761336350491318000,1.354318115234375,0.27794191211163993,-0.12666969288736582,0.014921528669446706
1761336350501385000,1.364385009765625,0.3134843501359224,-0.12050086805932222,0.018292174146324395
1761336350511451000,1.374450927734375,0.20656419059634207,-0.12942775942385196,-0.0027025369569659233
1761336350521518000,1.38451806640625,0.09280687851309775,-0.14129574574157594,-0.011329057135432958
1761336350531584000,1.394583984375,0.0006143325060606002,-0.0941600466877222,-0.028329730166494843
1761336350541650200,1.404650146484375,-0.04196399550437927,-0.012428396679461001,-0.05838087729811668
1761336350551717000,1.414717041015625,-0.045668695241212844,0.026360914311558008,-0.040874592832475895
1761336350561783000,1.424782958984375,-0.05518237351775169,-0.002239303359389305,-0.014888649313151835
1761336350571850000,1.43485009765625,-0.10730886659622192,-0.043013650687783955,0.03735284844711423
1761336350581916200,1.444916259765625,-0.19813480042517184,-0.04764715570732951,0.08348857667818665
1761336350591981800,1.45498193359375,-0.32206337791085243,-0.054247357689961785,0.1042458257637918
1761336350602048800,1.465048828125,-0.36510873891115186,-0.05924092819355428,0.07965075208097695
1761336350612115000,1.475114990234375,-0.3471206622779369,-0.060014615979790686,0.03150543759316206
1761336350622182000,1.485181884765625,-0.2790875750154257,-0.11890841123610735,-0.03009308657720685
1761336350632247800,1.495247802734375,-0.17719313468337058,-0.1738394403412938,-0.052149581693112845
1761336350642314000,1.50531396484375,-0.07280103231668472,-0.16557115901596844,-0.0871539673179388
1761336350652381000,1.515380859375,0.013738017973303793,-0.13396912918053566,-0.086968966139853
1761336350662446800,1.52544677734375,0.06699088473320007,-0.10218648208118974,-0.08360080488100648
1761336350672514000,1.53551416015625,0.0635170711427927,-0.08029869459569454,-0.07162906592786311
1761336350682580000,1.545580078125,0.04439560656547546,-0.05604878108873963,-0.08871040297970176
1761336350692646100,1.555646240234375,0.0249310276389122,-0.060103682502731674,-0.10185615414828061
1761336350702713000,1.565713134765625,-0.00658522360920906,-0.11607369926683604,-0.09782266084849833
1761336350712779000,1.575779052734375,-0.025219196930527685,-0.11612301830127834,-0.09348989234119653
1761336350722846000,1.585845947265625,-0.0542366171002388,-0.052006519960612056,-0.1145011161878705
1761336350732912000,1.595912109375,-0.057171501508355135,-0.023700901322066783,-0.12339198639094828
1761336350742977800,1.605977783203125,-0.004013911816477775,-0.022749738077074286,-0.12540814851894974
1761336350753045000,1.616044921875,0.06504676492810249,-0.05647073282785713,-0.09030351739004254
1761336350763111000,1.62611083984375,0.09648001406788825,-0.07990801477767527,-0.08007219236344099
1761336350773177900,1.636177734375,0.0653033700376749,-0.05317994765415787,-0.08960413694903253
1761336350783243800,1.646243896484375,0.023511223968863487,0.02377703529819846,-0.07591215007454157
1761336350793310000,1.65631005859375,-0.020619009658694266,0.09231200766824185,-0.03189925921633839
1761336350803377000,1.666376953125,-0.021676994279026984,0.1586540000386536,0.029124972197413442
1761336350813443000,1.676443115234375,-0.014185761740803719,0.1959702428024262,0.04735387184917927
1761336350823509000,1.686509033203125,-0.05615092628896236,0.17429010671824216,0.01248071138858795
1761336350833576000,1.696575927734375,-0.06218669932186603,0.11404591976627707,-0.026702421225607394
1761336350843642000,1.70664208984375,-0.02532265730500221,0.059418622848019,-0.09058262659236788
1761336350853709000,1.716708984375,0.023667291313409805,0.026238164714723823,-0.15334756419360637
1761336350863775000,1.72677490234375,-0.00986263784468174,-0.007040054704621434,-0.1922045335933566
1761336350873841200,1.736841064453125,-0.058797641405463216,-0.03497800907455385,-0.22335575092136858
1761336350883908000,1.746908203125,-0.06191022046804428,-0.030750600637868046,-0.23615268865227698
1761336350893974000,1.75697412109375,-0.046534372159838674,-0.02920556315295398,-0.22344342920482158
1761336350904041000,1.767041015625,-0.019269933137297628,-0.042279491194337604,-0.17746785997152328
1761336350914107100,1.777107177734375,-0.002610474759340286,-0.045687546072155236,-0.12920374140962956
1761336350924172800,1.7871728515625,0.00258066414296627,-0.035862098432704805,-0.10550284008756279
1761336350934239700,1.79723974609375,-0.030787936973571777,-0.036567104896903034,-0.08022592162042856
1761336350944306000,1.807305908203125,-0.11158289065361023,-0.036500250205770135,0.0013224807754158973
1761336350954372900,1.817372802734375,-0.18921908804178236,-0.07025332059524952,0.057497956983745095
1761336350964439000,1.82743896484375,-0.2409697335451841,-0.07371573600880801,0.077600103161484
1761336350974505000,1.8375048828125,-0.3135369571059942,-0.07555632237419485,0.07170417699068785
1761336350984572000,1.847572021484375,-0.37498306719362734,-0.11595686795413493,0.08571984286159276
1761336350994638000,1.85763818359375,-0.3695727325826883,-0.14525661219656466,0.06777151371687651
1761336351004705000,1.867705078125,-0.3193669784337282,-0.1443122440185398,0.01674362953007221
1761336351014771000,1.87777099609375,-0.22295359986126423,-0.1439242676142603,-0.016790975803136824
1761336351024837000,1.887837158203125,-0.10759937397539615,-0.15416231464259325,-0.0014727029010653495
1761336351034904000,1.897904052734375,0.035034488502144814,-0.14276874090358613,0.00681421005949378
1761336351044970000,1.907969970703125,0.18983458959162233,-0.11689809432700275,0.0076766721077263355
1761336351055037000,1.918036865234375,0.2922299651831388,-0.11130955360494553,0.02871463783085346
1761336351065103000,1.92810302734375,0.32610826938748355,-0.1130362312670797,0.0704610450617969
1761336351075169000,1.9381689453125,0.2300561253428459,-0.09993987219817936,0.13562412984594702
1761336351085236000,1.948236083984375,0.01097147586941719,-0.10958908648788929,0.17216580804064868
1761336351095302000,1.958302001953125,-0.154579151815176,-0.15114398973472415,0.1930950526922941
1761336351105367800,1.968367919921875,-0.2863309702724218,-0.1626620666362345,0.14665917247086763
1761336351115435000,1.97843505859375,-0.3560883971095085,-0.16078282876089214,0.09592018822804092
1761336351125501000,1.9885009765625,-0.374808295148611,-0.1641566891081631,0.06529416381791234
1761336351135568000,1.99856787109375,-0.3082704148799181,-0.15283523075729608,0.04187222556769848
1761336351145634000,2.008634033203125,-0.16962240716814994,-0.10316796739920973,0.01304258305504918
1761336351155700000,2.018699951171875,-0.035867432194948194,-0.0911761355061084,0.0071855275899171825
1761336351165767000,2.028766845703125,0.07297580436170101,-0.11472608405016362,0.015040771134942768
1761336351175833000,2.0388330078125,0.1585743589311838,-0.1214734394185245,0.017141688936948774
1761336351185900000,2.048900146484375,0.16416297271847724,-0.07932517338842153,0.021751959211379287
1761336351195966000,2.058966064453125,0.11449614775180816,-0.05683920081406831,0.03319178324490785
1761336351206032100,2.0690322265625,0.04482172302305698,-0.04792648410536349,0.04304667617455125
1761336351216099000,2.07909912109375,-0.08292027527093887,-0.061634618397057056,0.044713148082047696
1761336351226165000,2.0891650390625,-0.1993470988243818,-0.07545885334908962,0.0006073182433843612
1761336351236232000,2.09923193359375,-0.2425344986438751,-0.0654951662827283,-0.08456088208481669
1761336351246298000,2.109298095703125,-0.20396248366534708,-0.07271174659803509,-0.1810791823364794
1761336351256363800,2.11936376953125,-0.07616203318238259,-0.10858268592432141,-0.2395788637086749
1761336351266431000,2.129430908203125,0.06649637921452523,-0.12135521986633538,-0.26991832626238466
1761336351276497000,2.139496826171875,0.16577157695889472,-0.11127046370357274,-0.2534454764977097
1761336351286563800,2.149563720703125,0.16871230658590794,-0.11942841652221978,-0.18982362980619072
1761336351296630000,2.159630126953125,0.09595277532339096,-0.10491013489142059,-0.11999255321100354
1761336351306696000,2.169696044921875,0.010121581041812896,-0.08338592002131044,-0.08763502883315086
1761336351316763000,2.179762939453125,-0.0803653300911188,-0.06681801238432526,-0.09614625206887721
1761336351326829000,2.1898291015625,-0.14999416211247443,-0.09139876528084277,-0.09067834205180406
1761336351336896000,2.19989599609375,-0.1893967826962471,-0.13280249655395746,-0.08033157395198941
1761336351346962000,2.2099619140625,-0.21461656414866445,-0.10921002404242754,-0.06707856301665306
1761336351357028000,2.220028076171875,-0.2266711590796709,-0.0741450673367828,-0.043526568645983935
1761336351367095000,2.230094970703125,-0.23175240786671636,-0.047907706339657304,-0.003406593573093414
1761336351377161000,2.240160888671875,-0.14873042578697204,-0.027277006243169307,0.0342823549605906
1761336351387228000,2.250227783203125,-0.059115621313452715,-0.01984364137202501,0.06831482681334018
1761336351397294000,2.260294189453125,-0.03131283763051033,-0.029321444617584347,0.0681724957332015
1761336351407360000,2.270360107421875,-0.017723872739076614,-0.05972001694738865,0.04801598901972175
1761336351417427000,2.280427001953125,-0.03251344559192657,-0.07558291812017559,-0.02182137118577957
1761336351427492900,2.290492919921875,-0.015341946038603782,-0.10648286410085857,-0.10320362323448061
1761336351437560000,2.30056005859375,0.03774842363595962,-0.16216661126948892,-0.16475772374123335
1761336351447626000,2.3106259765625,0.07083645424544811,-0.24240035087019204,-0.1664506452642381
1761336351457692000,2.32069189453125,0.09146890790760516,-0.2707579919569194,-0.1774457942701876
1761336351467758800,2.3307587890625,0.11785130339860915,-0.207352272234112,-0.17595321762487293
1761336351477825000,2.340824951171875,0.09506780918240547,-0.1295117113802582,-0.14965952333062887
1761336351487892000,2.35089208984375,0.027283143723011015,-0.08328370175585151,-0.07443754747733473
1761336351497958000,2.3609580078125,-0.05462123250365257,-0.061375894395634525,-0.011420242550224065
1761336351508024000,2.371024169921875,-0.15422785415947438,-0.021603271455690264,0.008006342453509568
1761336351518091000,2.381091064453125,-0.20269173307716845,-0.02699431684426963,0.0036063539288938044
1761336351528157000,2.391156982421875,-0.15442016186118124,-0.025551789885759353,-0.037885347888618706
1761336351538223000,2.40122314453125,-0.059766778698563575,-0.05851444054991006,-0.07471943315863609
1761336351548290000,2.4112900390625,0.07831482730209827,-0.1435650789130479,-0.07248802084475756
1761336351558356000,2.42135595703125,0.18105974698364732,-0.19989611100926993,-0.07190919804349541
1761336351568423000,2.4314228515625,0.2504687987744808,-0.18596578533425925,-0.09814970084577798
1761336351578489000,2.441489013671875,0.27139760503470894,-0.15622933017499743,-0.08069587721973658
1761336351588554800,2.4515546875,0.2085854672908783,-0.12152809221521019,-0.026726386623084544
1761336351598622200,2.461622314453125,0.08570493755340576,-0.07740202330611645,0.0026921616934239864
1761336351608687900,2.47168798828125,-0.03629296413064003,-0.027980916728824374,0.008033522721379995
1761336351618754800,2.4817548828125,-0.10153262128233909,0.022380320242792368,0.005775222400575876
1761336351628821000,2.491821044921875,-0.13268237730562688,0.001553805313259363,-0.00451586998924613
1761336351638887000,2.501886962890625,-0.14391981063485146,-0.03136127988211811,-0.028155688773840663
1761336351648953900,2.511953857421875,-0.17399229281544684,-0.08536145787797868,-0.056074207790940994
1761336351659020000,2.52202001953125,-0.20194529862403868,-0.10962715347595513,-0.07903861153200269
1761336351669087000,2.5320869140625,-0.1663251191884279,-0.09564180967807769,-0.08509586574435234
1761336351679153000,2.54215283203125,-0.12883505422770977,-0.063592036075145,-0.046854982416331764
1761336351689219000,2.552218994140625,-0.12758943808078765,-0.02134125951863825,-0.00043912206962704655
1761336351699286000,2.5622861328125,-0.12472002012431621,-0.00972775941863656,0.03450257358253002
1761336351709352000,2.57235205078125,-0.08482581663131714,-0.004600698728486895,0.014346797521412371
1761336351719419000,2.5824189453125,-0.011648936739563942,-0.00527845185957849,-0.03417319549769163
1761336351729485000,2.592485107421875,0.04478782075345516,-0.02957826892286539,-0.09599778350889682
1761336351739551000,2.602551025390625,0.09964052392542362,-0.07346994455419481,-0.09930500836074352
1761336351749618200,2.6126181640625,0.12107961779534816,-0.10828706397861242,-0.09558978722989558
1761336351759684000,2.62268408203125,0.11268120728433131,-0.13562544502019883,-0.09335355261042713
1761336351769751000,2.6327509765625,0.0962818611472845,-0.12734759214892982,-0.09943915613442658
1761336351779817000,2.64281689453125,0.05335749617815017,-0.09527831012792885,-0.09525485618710518
1761336351789883000,2.6528828125,0.02212298448085785,-0.11454254417680203,-0.07783259674310684
1761336351799949800,2.66294970703125,0.010498597660660743,-0.13340119309946893,-0.059839843934774394
1761336351810016000,2.67301611328125,-0.0007388356685638427,-0.113005836128816,-0.04877309099733829
1761336351820082000,2.68308203125,0.01872866586744785,-0.055744683575630186,-0.012016016486287116
1761336351830148900,2.69314892578125,-0.08051905934810638,-0.04811331191435456,0.09903539763912558
1761336351840215000,2.703215087890625,-0.07440320681631565,-0.1033237424828112,0.07125877131074666
1761336351850282000,2.713281982421875,-0.018161679634451866,-0.01866721800379455,0.02705371888130903
1761336351860348000,2.723347900390625,0.00897942526936531,-0.0008420037820935248,0.01086947679966688
1761336351870414000,2.7334140625,-0.02381225274205208,-0.05430427550897002,0.028108050239831206
1761336351880481000,2.74348095703125,-0.13376958802044392,-0.09202566500753163,0.01320230366140604
1761336351890547000,2.753546875,-0.21595336571037768,-0.10867007194682955,-0.034890842247754336
1761336351900614100,2.7636142578125,-0.29376725775301454,-0.11757935458943247,-0.07370967159420251
1761336351910680000,2.77368017578125,-0.4374608584165573,-0.165037636661157,-0.03711713999509811
1761336351920746000,2.78374609375,-0.5552881964176893,-0.15802030524499713,0.04582900036945939
1761336351930813200,2.793813232421875,-0.5641752672284841,-0.027796207811683415,0.10834858490750193
1761336351940878800,2.80387890625,-0.45406654078066344,0.10673325866535305,0.1656836064144969
1761336351950946000,2.813946044921875,-0.267749603921175,0.12709778210632502,0.22886267777457833
1761336351961012000,2.824011962890625,-0.10654080483317374,0.07854892831891774,0.20774477868303656
1761336351971078000,2.834077880859375,0.04495733210146427,0.02661255098506808,0.10496814868897199
1761336351981144800,2.844144775390625,0.17710779448747635,0.01730535506606102,-0.008083937734365464
1761336351991211000,2.8542109375,0.295131531843543,0.025040771623700855,-0.08916633005365729
1761336352001278000,2.86427783203125,0.39719489900171756,-0.029208412697166203,-0.11179682566523551
1761336352011344000,2.87434375,0.44936990739703175,-0.09689802028425037,-0.12805471750497818
1761336352021410000,2.88441015625,0.4509422712802887,-0.10876008831784129,-0.17782675641179083
1761336352031477000,2.89447705078125,0.4172831627845764,-0.14993768268488347,-0.26567601251751183
1761336352041543000,2.90454296875,0.35796471237540245,-0.20856164802387356,-0.3088208883695304
1761336352051610000,2.914610107421875,0.2501467272132635,-0.26677929758429525,-0.2644996622145176
1761336352061676000,2.924676025390625,0.1111877538561821,-0.3474926373954862,-0.15677169342339037
1761336352071742000,2.934741943359375,-0.08438216451704501,-0.3692664431124925,-0.051135874605923885
1761336352081809200,2.94480908203125,-0.27266543301343915,-0.3022887101218104,0.023046967457979916
1761336352091875000,2.954875,-0.4863683894485235,-0.21167817260921,0.04971738611012697
1761336352101942000,2.96494189453125,-0.6241454595446586,-0.09829173966497182,0.055101271105557674
1761336352112008200,2.97500830078125,-0.6955301953226327,-0.01739237576238811,0.08051525995582341
1761336352122073900,2.985073974609375,-0.7398790401369333,-0.017831570897251365,0.07229746670871973
1761336352132140800,2.995140869140625,-0.7369149296343326,-0.021530717676132915,0.016041180349141357
1761336352142207000,3.00520703125,-0.7450193256348371,-0.05010755447149277,-0.07877966833487153
1761336352152273000,3.01527294921875,-0.7550637497872114,-0.08877126632146537,-0.1360512692168355
1761336352162339800,3.02533984375,-0.7063081944465637,-0.05705759280510246,-0.16167875468730925
1761336352172406000,3.035406005859375,-0.5829202997088432,0.021746113992482424,-0.1870576722241938
1761336352182473000,3.045472900390625,-0.40213352444767947,0.11725567559301853,-0.18651319008395076
1761336352192539000,3.055538818359375,-0.19891805975735186,0.33968532464541495,-0.04347498458921909
1761336352202605000,3.06560498046875,0.0228700034558773,0.3045114276725799,-0.044555619432777166
1761336352212672000,3.075672119140625,0.2448971361219883,0.17713110229782758,-0.1788669131144881
1761336352222738000,3.085738037109375,0.39790509309768674,0.26492395204119384,-0.043201574475318194
1761336352232805000,3.09580517578125,0.49852118405699725,0.26318098083138464,0.1063042195983231
1761336352242871000,3.10587109375,0.6003560031563043,0.14250033575836568,0.07136530042514204
1761336352252937000,3.11593701171875,0.6562783813863993,0.09043945526201277,0.05989098960012197
1761336352263004200,3.126004150390625,0.6187462308496237,0.03332629634477198,0.12298472076430916
1761336352273069800,3.13606982421875,0.5937129118800163,-0.017158895800076426,0.20049305398911235
1761336352283137000,3.146136962890625,0.6097551151424646,-0.08323072945959865,0.23594781372994184
1761336352293203000,3.156202880859375,0.6350228273898363,-0.18226477539185434,0.22636618478372691
1761336352303268900,3.166268798828125,0.6385393110781907,-0.3550381574042141,0.188129685369879
1761336352313335800,3.176335693359375,0.6075514676183462,-0.5383863806512207,0.16255714495703577
1761336352323402000,3.186402099609375,0.510703789281845,-0.6716010382026434,0.10868906890824437
1761336352333469000,3.196468994140625,0.322853066983819,-0.7437156226251274,0.02640665314942598
1761336352343534800,3.206534912109375,0.021878069809079168,-0.698075861217454,0.09200096895769239
1761336352353601000,3.21660107421875,-0.45171325565278525,-0.5818740055263042,0.25514322032630443
1761336352363668000,3.22666796875,-0.9501040913283825,-0.4216881197452545,0.41766953175365923
1761336352373734000,3.23673388671875,-1.3288082248717545,-0.23986871350072322,0.5464968410663307
1761336352383801000,3.246801025390625,-1.5016595309585332,-0.08335011805556714,0.6242104876048863
1761336352393867000,3.256866943359375,-1.4637228912740945,-0.0030995734505355355,0.6673135701417923
1761336352403933000,3.266932861328125,-1.257086804485321,0.02116597601696849,0.6502002305164932
1761336352414000000,3.277000244140625,-0.9246955093055963,-0.013792159313336013,0.544327095811814
1761336352424066000,3.287066162109375,-0.5767664532542228,-0.06838599235340953,0.3095193920277059
1761336352434133000,3.297133056640625,-0.2800795086622238,-0.11180749318972229,0.027342764955759047
1761336352444199200,3.30719921875,-0.022394202637672424,-0.15351795232445,-0.2547650346636772
1761336352454264800,3.317264892578125,0.17723405121564864,-0.14472915425635874,-0.469612192697823
1761336352464331800,3.327331787109375,0.3290741334557533,-0.10793909079115838,-0.5651924814470112
1761336352474398500,3.3373984375,0.385908950355649,-0.062315440268069504,-0.5901389989160001
1761336352484464400,3.34746435546875,0.38116789330840106,0.006033581075817346,-0.6203168411672115
1761336352494531300,3.35753125,0.3655155661463737,0.07966901839002967,-0.6572963262572884
1761336352504597500,3.367597412109375,0.2535977444499731,0.08322557836044579,-0.6668813162043691
1761336352514664400,3.37766455078125,0.08740706529617309,0.04205949176810682,-0.6471246224634349
1761336352524730400,3.38773046875,-0.15133447080552578,0.04366784028019756,-0.6378259021118283
1761336352534796500,3.397796630859375,-0.39522272214591503,0.1152801742689684,-0.6336813496530056
1761336352544863500,3.407863525390625,-0.5141279185116291,0.23461050071157513,-0.5791740989178419
1761336352554929400,3.417929443359375,-0.5183282928109169,0.3258445404173806,-0.447115552598983
1761336352564996600,3.42799658203125,-0.4735498244076967,0.36825182270985096,-0.30833836554959415
1761336352575062500,3.4380625,-0.369642290687561,0.3950007864909246,-0.19808014762848614
1761336352585128400,3.44812841796875,-0.22830548228323458,0.413866522741504,-0.14708134340569376
1761336352595195600,3.458195556640625,-0.044293315234780306,0.39970370348487044,-0.14955197130292652
1761336352605261300,3.46826123046875,0.19865794751644134,0.3212573222249746,-0.12158829796984791
1761336352615328500,3.47832861328125,0.437687068387866,0.1839646929112263,-0.077421970115602
1761336352625394400,3.48839453125,0.6179226395070553,0.08294617689717561,-0.030152269418537617
1761336352635460400,3.49846044921875,0.6910001506775617,0.033421043689828366,-0.0048389644637703896
1761336352645527300,3.50852734375,0.6861129631578922,0.021824312061537055,0.006301438231766224
1761336352655593500,3.518593505859375,0.6513783343851566,0.06687907665548845,0.034888211899250746
1761336352665660400,3.528660400390625,0.5509907914847135,0.14126862027263268,0.03911642405353486
1761336352675726300,3.538726318359375,0.37320495160520073,0.16954651065403595,0.0784055012602359
1761336352685792500,3.54879248046875,0.22009294973313806,0.1507160649125464,0.17208492482416332
1761336352695859500,3.558859375,0.07336626498401165,0.14544868243625386,0.19353738963231443
1761336352705925400,3.56892529296875,-0.008770750954747199,0.14121084393709898,0.1735362926762551
1761336352715991600,3.578991455078125,-0.03775543789863586,0.13755752732763066,0.13483736338242888
1761336352726058500,3.58905859375,0.010744681376218795,0.13873303738040849,0.11912059268206357
1761336352736124400,3.59912451171875,0.03731412387192249,0.13299878631103784,0.1286793522093445
1761336352746191600,3.609191650390625,0.09239011440575122,0.10600878031570464,0.14344196399003267
1761336352756257500,3.619257568359375,0.12405074256062507,0.09890090280557051,0.15641776541918515
1761336352766323500,3.629323486328125,0.12748890031576157,0.11271271666744723,0.13628668540790675
1761336352776390700,3.639390625,0.13302841426432133,0.14710618558600544,0.12559906798116863
1761336352786456300,3.649456298828125,0.10666998417079449,0.11042073327274993,0.10201645927652717
1761336352796523300,3.659523193359375,0.05469546678364277,0.005540171535685658,0.015032441698014735
1761336352806589400,3.66958935546875,-0.022032968109846115,-0.0711108690063469,-0.14434395433105526
1761336352816655400,3.6796552734375,-0.18114800978899,-0.10725171131519601,-0.3299455825280398
1761336352826722300,3.689722412109375,-0.36903964861929417,-0.10113196805957704,-0.48010640644431113
1761336352836788500,3.69978857421875,-0.49396191331744194,-0.08151333108246325,-0.5538763568583875
1761336352846855400,3.70985546875,-0.48917117190957066,-0.09351623235885054,-0.5731770504601299
1761336352856921300,3.71992138671875,-0.4053898958951235,-0.14977178806606678,-0.5694252236459404
1761336352866987500,3.729987548828125,-0.29854397063553334,-0.1652117511190474,-0.5347293194483965
1761336352877054500,3.740054443359375,-0.19904548552930354,-0.16936386582981794,-0.448884096641466
1761336352887120400,3.750120361328125,-0.12521569468677043,-0.16635149573870003,-0.36058088622316714
1761336352897187600,3.7601875,-0.06496142473220824,-0.12033184990165754,-0.27256518750935793
1761336352907253500,3.77025341796875,-0.0512736756414175,-0.06604615122899413,-0.2145459831304848
1761336352917319400,3.7803193359375,-0.12455518495142459,0.014221435842383652,-0.1630481433443725
1761336352927386600,3.79038671875,-0.17400398325324057,0.10502778818802908,-0.10112345595955848
1761336352937452300,3.800452392578125,-0.23203707002699372,0.18318150664428248,0.04396912478171289
1761336352947519500,3.81051953125,-0.2107283245384693,0.08078355550318955,0.12250804316326976
1761336352957585400,3.82058544921875,-0.20108254431486128,0.18048209322616457,0.303105433332175
1761336352967651300,3.8306513671875,-0.08838613946139812,0.13094716927716507,0.3649254182334989
1761336352977718300,3.84071826171875,0.06620645635724068,0.09340811407556757,0.40212914053350685
1761336352987784400,3.850784423828125,0.22073533928990363,0.05993985197683796,0.45831974124573166
1761336352997850400,3.860850341796875,0.32169629816412926,-0.0036070115160197016,0.512046362997219
1761336353007917300,3.870917236328125,0.34216567021906374,-0.00917425372172147,0.5345923221305012
1761336353017983500,3.8809833984375,0.3179261319756508,0.042919633995089676,0.5132681598771364
1761336353028050400,3.891050537109375,0.3216460292816162,0.020204547106288374,0.4168219019483775
1761336353038116400,3.901116455078125,0.3234025175601244,-0.03552435437832027,0.25819478991664946
1761336353048182500,3.9111826171875,0.3371726842373609,-0.08262068953616544,0.08362703530080616
1761336353058249500,3.92124951171875,0.3086456779330969,-0.10128951497515663,-0.0764436996679753
1761336353068315400,3.9313154296875,0.22421616714298723,-0.054444889556057745,-0.17694200946651398
1761336353078382600,3.941382568359375,0.15772738671302794,0.04929908763282001,-0.2604696760460734
1761336353088448500,3.951448486328125,0.12254735226035117,0.050183724980242546,-0.3611987258605659
1761336353098514400,3.961514404296875,0.10414426508545875,-0.03875540872141719,-0.47012233417704696
1761336353108581600,3.97158154296875,0.03777414259910583,0.008159852514788507,-0.5845365027338266
1761336353118647300,3.981647216796875,-0.057283729711174965,0.09689323451127857,-0.5947398437749594
1761336353128714200,3.99171435546875,-0.15980127037763595,0.08642715088073163,-0.5156890303485095
1761336353138779400,4.001779296875,-0.23624621215462682,0.01809898966178298,-0.4670700339343399
1761336353148845300,4.01184521484375,-0.3139572283446789,-0.05344495526589453,-0.4850453241512179
1761336353158912500,4.02191259765625,-0.33040450527667997,-0.11093392522558569,-0.5482150431610644
1761336353168978400,4.031978515625,-0.3790975167751312,-0.13336024003457278,-0.598619534752518
1761336353179045400,4.04204541015625,-0.4272130206465721,-0.09965444285292178,-0.5870580571006984
1761336353189111600,4.052111572265625,-0.4245820876210928,-0.09086725222002714,-0.43882147924527526
1761336353199177500,4.062177490234375,-0.4249643649369478,-0.08070698313564062,-0.2538658208016306
1761336353209244400,4.072244384765625,-0.3935901525080204,-0.04456749253366142,-0.10104067304693162
1761336353219310600,4.082310546875,-0.3315110052138567,-0.01918901338819414,0.01763352757450193
1761336353229377500,4.09237744140625,-0.2787123119622469,-0.001346519238129258,0.11495393798928707
1761336353239443500,4.102443359375,-0.26668343599438665,-0.012570325900800525,0.21059487088453024
1761336353249509400,4.11250927734375,-0.2789040351420641,-0.033036702281050385,0.26531576437037435
1761336353259576300,4.122576416015625,-0.2528600778251886,0.022308022191561756,0.2808625487986952
1761336353269642200,4.132642333984375,-0.20906535976231097,0.09293481574170291,0.2679874312650412
1761336353279709400,4.14270947265625,-0.15838088218569754,0.12759773098509758,0.26492088330127295
1761336353289775400,4.152775390625,-0.10782441490292549,0.14046327697280794,0.2518797250183299
1761336353299841300,4.16284130859375,-0.1142506485581398,0.2017171889565885,0.25726331775281575
1761336353309908500,4.172908447265625,-0.10742810906171799,0.2441831426337361,0.1874162033382803
1761336353319974400,4.182974365234375,-0.030374095475673674,0.23011063200905918,0.07052570779584348
1761336353330041300,4.193041259765625,0.04296820411086082,0.24711525056287645,-0.0732403005167842
1761336353340107500,4.203107421875,0.12767945445179937,0.26128080976586787,-0.18819752644170074
1761336353350173400,4.21317333984375,0.2310416292488575,0.2560583258772269,-0.23473471161313353
1761336353360240400,4.223240478515625,0.3246475491851568,0.19967673263754696,-0.31062976442240176
1761336353370306600,4.233306640625,0.33749709388613697,0.12551153582818805,-0.4279520389782265
1761336353380372500,4.24337255859375,0.30656302644014355,0.0523429853733629,-0.5311725768148898
1761336353390439400,4.253439453125,0.2829191160023212,-0.015957630251534283,-0.6077947383223101
1761336353400505600,4.263505615234375,0.28209961631298064,-0.11254760749991982,-0.6452195194944739
1761336353410572500,4.273572509765625,0.2807417719632387,-0.18832553673554212,-0.6484909423805773
1761336353420638200,4.28363818359375,0.2605091312736273,-0.21679968034140765,-0.5729312224728986
1761336353430704400,4.293704345703125,0.1920581108599901,-0.17539879861250518,-0.4056039405046031
1761336353440771300,4.303771240234375,0.04594283600747585,-0.08151464625671505,-0.21131565943975
1761336353450837200,4.313837158203125,-0.15640169106721877,-0.03880027077645063,-0.051995158316381275
1761336353460904400,4.323904541015625,-0.30724457896351814,-0.0015924568232148885,0.01927837217207998
1761336353470971000,4.333970947265625,-0.407490667566657,0.031055794129520652,0.05453085080645978
1761336353481036800,4.344036865234375,-0.5317290416538715,-0.011960633037239312,0.07425744167007506
1761336353491104000,4.35410400390625,-0.5710533363044261,-0.09432890044860541,0.09925539706535637
1761336353501170000,4.364169921875,-0.5669195975005626,-0.148539798585698,0.07749171088356524
1761336353511236900,4.37423681640625,-0.5156354004651308,-0.14755049528740347,0.05902600680124014
1761336353521303000,4.384302978515625,-0.41681379170715804,-0.15682415426298976,0.06623341742940246
1761336353531368700,4.39436865234375,-0.29872049624621866,-0.1419287829481065,0.08316003884356468
1761336353541436000,4.404435791015625,-0.20235563299059867,-0.12196385328397154,0.0724046168776229
1761336353551501800,4.414501708984375,-0.12000234395265579,-0.09856514977887272,0.08708050022292882
1761336353561567700,4.424567626953125,-0.09073942458927631,-0.1258204556468874,0.08312255637738854
1761336353571634700,4.434634765625,-0.0657826779872179,-0.15909239145591855,0.06811221691332757
1761336353581700900,4.444700927734375,-0.0351613297522068,-0.1567811188388616,0.03690126875471324
1761336353591767800,4.454767822265625,-0.024931612160801885,-0.13875227180384098,0.004448503841459751
1761336353601833700,4.464833740234375,-0.02343874325454235,-0.1472949861563742,-0.03386931718029081
1761336353611900000,4.47489990234375,-0.06079612174630165,-0.14488536773137747,-0.06457213315367698
1761336353621966800,4.484966796875,-0.14099486309885978,-0.10541150854229926,-0.09308423414975404
1761336353632032800,4.49503271484375,-0.24448797079920767,-0.03541939616650343,-0.09733173552639782
1761336353642100000,4.505099853515625,-0.3182552177995443,0.05779891269169748,-0.10371891581285744
1761336353652166000,4.515165771484375,-0.36793197963833807,0.11688187384456396,-0.15263532427102328
1761336353662231800,4.525231689453125,-0.3833540051758289,0.1303779728207737,-0.2226916244568303
1761336353672299000,4.535299072265625,-0.33634500124156474,0.07860350805036723,-0.27017796357925977
1761336353682365000,4.545364990234375,-0.24356501073539255,0.016123524870350955,-0.26845961535405366
1761336353692432000,4.555431884765625,-0.1341138714134693,-0.07092771272547542,-0.2322386570136994
1761336353702498000,4.565498046875,-0.019990064105391503,-0.10935611798223108,-0.20858309267070144
1761336353712563700,4.575563720703125,0.06150339323282242,-0.09773447110839188,-0.20690303062926976
1761336353722630700,4.585630615234375,0.12936404653787612,-0.07440185510944575,-0.16250431879125535
1761336353732696800,4.59569677734375,0.18361586120724677,-0.004843786769360304,-0.04487637581974268
1761336353742763800,4.605763671875,0.1999362968891859,0.044339602061919864,0.1387645467635244
1761336353752829700,4.61582958984375,0.12006547231674193,0.09001863603405653,0.35456644823923705
1761336353762896000,4.625895751953125,-0.013643325427174568,0.06835183435548096,0.4816091391574591
1761336353772962800,4.635962890625,-0.07953413996398448,0.011293912756815553,0.4890492260303348
1761336353783028700,4.64602880859375,-0.06287409706413745,-0.026007972688041624,0.4260248337753117
1761336353793096000,4.656095947265625,0.011831307569146155,-0.09505516889654099,0.35952231708094473
1761336353803161900,4.666161865234375,0.13349836986362934,-0.17880363861992954,0.3655339055206626
1761336353813227800,4.676227783203125,0.27745909703075883,-0.22982147633675484,0.40493762208297845
1761336353823295000,4.686294921875,0.38532676655352116,-0.2125348259711638,0.43724100512079894
1761336353833361000,4.69636083984375,0.3766208975285291,-0.16132712823804468,0.49293330092206594
1761336353843426800,4.7064267578125,0.32668519249260425,-0.14962025076616556,0.533697747910954
1761336353853494000,4.716493896484375,0.269081144785881,-0.1632728189457208,0.5347167156951501
1761336353863560000,4.726559814453125,0.18522797257900236,-0.17558464004080743,0.4529886824160814
1761336353873627000,4.736626953125,0.07068389403223992,-0.17747549528870732,0.3520656809320673
1761336353883692800,4.74669287109375,-0.03915127617120743,-0.185580658474192,0.25172804158795625
1761336353893758700,4.7567587890625,-0.15694997259974477,-0.1851748541522771,0.18554113018140195
1761336353903825700,4.76682568359375,-0.28073943387567996,-0.1513718436738476,0.1346701535893604
1761336353913891800,4.776891845703125,-0.4014671694934368,-0.11841788777280599,0.1035053461274132
1761336353923958800,4.786958740234375,-0.5462018036425114,-0.08998509909063578,0.029661234498582777
1761336353934024700,4.797024658203125,-0.5913222173511982,-0.05326057514231652,-0.05356774139534682
1761336353944091000,4.8070908203125,-0.5481050069153308,-0.022444252324476836,-0.12297116716299206
1761336353954157800,4.81715771484375,-0.44712242073118685,-0.0024690204620361326,-0.16214560501407832
1761336353964223700,4.8272236328125,-0.33339842639565465,0.003130954969488084,-0.16128222965039313
1761336353974291000,4.837291015625,-0.24926000750660895,-0.005675451820529997,-0.1611180885972455
1761336353984356900,4.84735693359375,-0.18574644349515437,-0.005725136181153357,-0.19921642164941877
1761336353994423000,4.857423095703125,-0.1284241353392601,0.005798785939253866,-0.2705390885092318
1761336354004490000,4.867489990234375,-0.06946808850169181,0.0028040245700627566,-0.3262798265621066
1761336354014556000,4.877555908203125,-0.027638533031940457,-0.018143047999218107,-0.3132628528723493
1761336354024622800,4.887622802734375,0.02308452298939228,-0.04951137867663055,-0.2772767262011766
1761336354034689000,4.89768896484375,0.10200491496920586,-0.07038695691227913,-0.2157895169181749
1761336354044754700,4.907754638671875,0.18977204574942588,-0.04889514647442847,-0.1965372290354222
1761336354054822000,4.91782177734375,0.28535364967286586,-0.017173326184228063,-0.19002349975984542
1761336354064887800,4.9278876953125,0.3532902908235788,-0.024030754330940544,-0.14747461703959852
1761336354074954800,4.937954833984375,0.3493266478896141,-0.09068192224837839,-0.0731897393733263
1761336354085020700,4.948020751953125,0.33989480267763134,-0.14294661822114138,0.017853234739787876
1761336354095086800,4.9580869140625,0.3379892613172531,-0.1377558446450159,0.07621460361983627
1761336354105153800,4.96815380859375,0.3069377049714327,-0.09404533426687121,0.12194226250667124
1761336354115219700,4.9782197265625,0.2764940513908863,-0.061185961314104496,0.18775672387164086
1761336354125286000,4.988285888671875,0.2627209621042013,-0.044930188366211946,0.2467079118710011
1761336354135352800,4.998352783203125,0.19102409163713455,0.0033392639579251406,0.31038214633688327
1761336354145419000,5.0084189453125,0.054096331846714016,0.04851940849721431,0.3620684944324195
1761336354155486000,5.01848583984375,-0.1381833128094673,0.08152878437992185,0.3937940045170486
1761336354165551900,5.0285517578125,-0.4447551070779562,0.08597575385142117,0.3423890306461602
1761336354175618000,5.0386181640625,-0.6924819136679172,-0.0201554472675547,0.27118432761020955
1761336354185685000,5.04868505859375,-0.7896236065149307,-0.09467223399356008,0.13644852490611373
1761336354195751000,5.0587509765625,-0.7434311796605586,-0.10163893120102584,-0.012688655050843954
1761336354205817900,5.06881787109375,-0.6172925249099731,-0.11627203485053032,-0.15873188758045434
1761336354215883800,5.0788837890625,-0.42010815707743165,-0.1621489294823259,-0.24620993575360625
1761336354225949700,5.08894970703125,-0.20148411085307597,-0.1650019077606499,-0.29493845695685594
1761336354236016600,5.0990166015625,-0.03946984060108662,-0.1027741457760334,-0.25469514776524155
1761336354246082800,5.109082763671875,0.08606208042800426,-0.07960877610277384,-0.22426303849201648
1761336354256149800,5.119149658203125,0.18287702553868293,-0.07329053286667912,-0.2396308496242389
1761336354266215700,5.129215576171875,0.20596213304996489,-0.059545646761171515,-0.2543391374018043
1761336354276281900,5.13928173828125,0.17903788576722143,-0.11284483688082546,-0.23975619303695855
1761336354286348800,5.149348876953125,0.13592121309638022,-0.18370167632717638,-0.1860955857263878
1761336354296415000,5.1594150390625,0.08893734360337256,-0.20619155789166688,-0.17538926359917967
1761336354306481000,5.16948095703125,-0.010053776502609251,-0.18433949930667876,-0.15302549263238907
1761336354316547800,5.1795478515625,-0.17456746235489845,-0.12473843256384133,-0.1087123036533594
1761336354326614000,5.189614013671875,-0.2449702013581991,-0.11258209429141133,-0.04440371680669486
1761336354336681000,5.199680908203125,-0.20921967354118823,-0.13018559205383062,-0.036398616462200876
1761336354346747000,5.209746826171875,-0.09958967052102088,-0.14062054989375172,-0.043927550662308926
1761336354356813000,5.21981298828125,0.002021276694536209,-0.1670068178422749,-0.056153629702702164
1761336354366880000,5.2298798828125,0.044939211922883984,-0.19073647033479063,-0.032956586249545214
1761336354376945700,5.239945556640625,0.08167641268968581,-0.19169534196220336,0.013454305661097168
1761336354387012900,5.250012939453125,0.07381459327340126,-0.1784413811787963,0.05980572246946394
1761336354397078800,5.260078857421875,0.053179217001795766,-0.19150000205319373,0.1079271446250379
1761336354407144700,5.270144775390625,0.028200843089818954,-0.17336937514413148,0.1452398802574724
1761336354417211600,5.280211669921875,0.018070494219660758,-0.1358737937580794,0.15332454864419995
1761336354427277800,5.29027783203125,-0.0016840075641870497,-0.13887429074831306,0.18233707344308495
1761336354437344800,5.3003447265625,-0.040436639806628226,-0.12160751412697135,0.22611520569734275
1761336354447411000,5.310410888671875,-0.08490823421776295,-0.14117146177478135,0.26016945099048316
1761336354457476900,5.320476806640625,-0.09954290876984595,-0.2148998380694538,0.2415481910202652
1761336354467543800,5.330543701171875,-0.09024608811438083,-0.26021423998028037,0.1908448626127094
1761336354477609700,5.340609619140625,-0.07684884640276432,-0.2883870990846306,0.13330299342200158
1761336354487676700,5.3506767578125,-0.07566226696670054,-0.3217556271359324,0.10718465569466352
1761336354497742600,5.36074267578125,-0.06753039843738079,-0.34518341060504315,0.09213314396999776
1761336354507808800,5.370808837890625,-0.06901391499340534,-0.3383909739859402,0.10032755634151398
1761336354517875700,5.380875732421875,-0.08040624662339686,-0.2972382217992097,0.1019660442635417
1761336354527941600,5.390941650390625,-0.08480302027761935,-0.2612095346279442,0.1057816570289433
1761336354538007600,5.401007568359375,-0.07682488100528717,-0.2088070741523057,0.09879260185919701
1761336354548074500,5.411074462890625,-0.0966004255771637,-0.17725012556761502,0.11572795456908642
1761336354558140400,5.421140380859375,-0.14872165795862674,-0.18185593886263668,0.13944215376414357
1761336354568207600,5.43120751953125,-0.1962239983677864,-0.1908806645784527,0.1320292471591383
1761336354578273500,5.4412734375,-0.2149631856292486,-0.20200389694347975,0.09179711694866419
1761336354588339500,5.45133935546875,-0.18046470369994638,-0.21853476050570605,0.033091245479881765
1761336354598406700,5.46140673828125,-0.0759954444438219,-0.23882979890704154,-0.017142273458838463
1761336354608472600,5.47147265625,0.07371171742081642,-0.24077077690698204,-0.08172682770267128
1761336354618539500,5.48153955078125,0.19364976396560668,-0.23819909978806972,-0.14345073181837797
1761336354628605700,5.491605712890625,0.24444530070126055,-0.23870419976599513,-0.1966669928949326
1761336354638671600,5.501671630859375,0.2536702251642942,-0.25666984537169335,-0.18811901784539223
1761336354648738600,5.511738525390625,0.23415479283332824,-0.2636971867252141,-0.1445136118095368
1761336354658804700,5.5218046875,0.20635025558471679,-0.22325652833059428,-0.07766133182942866
1761336354668871700,5.53187158203125,0.18191607155203818,-0.13023900274150071,-0.025321926652640103
1761336354678937600,5.5419375,0.11057049874067305,-0.04464928906559944,0.06499803041554987
1761336354689003800,5.552003662109375,-0.1045388173609972,0.02650492589212954,0.12497267971113324
1761336354699070700,5.56207080078125,-0.3633890755116939,0.10599128119163215,0.1293085169583559
1761336354709136400,5.572136474609375,-0.5338368275880814,0.09060147742331028,0.07633950864113867
1761336354719202600,5.58220263671875,-0.6342594418019056,0.0315651318911463,-0.005511456897854805
1761336354729269500,5.59226953125,-0.6525415329456329,-0.03838299521245062,-0.06565590980239212
1761336354739335400,5.60233544921875,-0.6064777009069919,-0.10316899031251668,-0.1449799141470343
1761336354749402600,5.612402587890625,-0.5396691870033741,-0.14628361715674398,-0.20278912903703747
1761336354759468500,5.622468505859375,-0.4144230971783399,-0.16389825736768543,-0.24251564781293272
1761336354769534500,5.632534423828125,-0.24036124625802038,-0.14644881765581666,-0.23680004664510487
1761336354779601700,5.6426015625,-0.06943009457886219,-0.10233714259825646,-0.17201368621885776
1761336354789667600,5.65266748046875,-0.016976853764057158,-0.07344773272238671,-0.14076448840908706
1761336354799734500,5.662734619140625,0.00030161329507827757,-0.07125906357169151,-0.12840521144308148
1761336354809800700,5.67280078125,0.009019757279753685,-0.06782989284060895,-0.10931816059201956
1761336354819866600,5.68286669921875,-0.048069326642155644,-0.031086043137311933,-0.08774382296986877
1761336354829933600,5.69293359375,-0.00423895274400711,0.07467047945037483,-0.06506305847577751
1761336354839999700,5.702999755859375,0.03184475255012512,0.16218305094763635,-0.06361147142797709
1761336354850065700,5.713065673828125,0.08966682692170143,0.1389961635623127,-0.06089059509672224
1761336354860132600,5.723132568359375,0.1411672970563173,0.10090228748954833,-0.0714507867515087
1761336354870198500,5.733198486328125,0.15047639267146587,0.04752053365297615,-0.07471672974489629
1761336354880265700,5.743265625,0.16311375592648983,-0.019854381961748,-0.04528239933736622
1761336354890331400,5.753331298828125,0.25676293048262594,-0.0029448212802410125,-0.06429967288784683
1761336354900397600,5.7633974609375,0.43833881029486654,0.06370777140930295,-0.10455774125717579
1761336354910464500,5.773464599609375,0.5550111330419778,0.20571962953098116,-0.06935410673320293
1761336354920530400,5.783530517578125,0.567075664845109,0.2829088138040155,0.03276347483024001
1761336354930597600,5.79359765625,0.4398573981642723,0.24639972270466387,0.12209953542761504
1761336354940663600,5.80366357421875,0.3396627474874258,0.37256307350508866,0.24279936012513934
1761336354950729700,5.813729736328125,0.3021528087824583,0.38627091553583737,0.26357195291034874
1761336354960796700,5.823796630859375,0.20654373233020304,0.14890483250580727,0.15721381116770208
1761336354970862600,5.833862548828125,0.04542378056943416,-0.030090967685356733,0.025884236710518597
1761336354980928800,5.8439287109375,-0.24743454564511774,-0.19877682465575633,-0.16139504237510263
1761336354990995700,5.85399560546875,-0.48383448705673215,-0.2755402577973902,-0.3322868849571794
1761336355001061600,5.8640615234375,-0.5360398905903101,-0.19423706233426927,-0.44607422685250636
1761336355011128600,5.874128662109375,-0.5552648155421018,-0.2097076031886041,-0.5122518224414437
1761336355021194800,5.88419482421875,-0.46340077083706854,-0.14889935261309145,-0.3955043155662715
1761336355031260400,5.894260498046875,-0.37507016095519063,-0.36408129555955526,-0.41767099305838346
1761336355041327600,5.90432763671875,-0.31421383345425125,-0.07754252775534987,-0.06697276455461978
1761336355051393500,5.9143935546875,-0.2104892550855875,-0.13177081541866062,0.06370645623505115
1761336355061460500,5.92446044921875,-0.11751052713692188,-0.18896964332535862,-0.005328501546382904
1761336355071526400,5.9345263671875,-0.060414428952336306,-0.09668298929408192,0.004390416978672146
1761336355081592600,5.944592529296875,-0.06796002202630043,0.031039281386137006,0.1391141639187932
1761336355091659500,5.954659423828125,-0.1208341186016798,0.09206804284453392,0.3283435541588813
1761336355101725700,5.9647255859375,-0.18524492371380327,-0.2092139744527638,0.0452019545122981
1761336355111792600,5.974792724609375,-0.18525836771726606,-0.08347118715196847,-0.07105258121415972
1761336355121858600,5.984858642578125,-0.1246463703662157,-0.08316665124744177,-0.036815526700019835
1761336355131924700,5.9949248046875,-0.04235737873613834,-0.3824642167292535,-0.23479352912828325
1761336355141991700,6.00499169921875,0.08626198691427707,-0.40048824145868417,-0.2580868725627661
1761336355152057600,6.0150576171875,0.1408715289801359,-0.3913179697923362,-0.17699045171812175
1761336355162123800,6.025123779296875,0.1440700327605009,-0.27807942088618876,-0.04376242322847247
1761336355172190700,6.035190673828125,0.04074234475493431,-0.14900266685709357,0.10303820353969931
1761336355182256600,6.045256591796875,-0.09143383659422397,-0.0014269640631973742,0.26448709499388934
1761336355192323600,6.055323486328125,-0.21504151156246662,0.0831190127134323,0.4053874116770923
1761336355202389800,6.0653896484375,-0.3154343151599169,0.10299494891986251,0.499236054328084
1761336355212455400,6.075455322265625,-0.3493962059944868,0.10203311815038323,0.534555497251451
1761336355222522600,6.085522705078125,-0.35014030236005783,0.13359642341062425,0.632921471196413
1761336355232588500,6.095588623046875,-0.34375381619334217,-0.17580811006575822,0.38528365806415676
1761336355242655500,6.105655517578125,-0.3014420301645994,-0.25024025071561334,0.15190204156041145
1761336355252721700,6.1157216796875,-0.2126981633067131,-0.24107582426816224,-0.018082769179344177
1761336355262787600,6.12578759765625,-0.13561550814807413,-0.23783698847740886,-0.05818769281357526
1761336355272854500,6.1358544921875,-0.09478665415346622,-0.2101774126574397,-0.07686506688520311
1761336355282920700,6.145920654296875,-0.06130231770277023,-0.13176613924354313,-0.06581672638729215
1761336355292987600,6.155987548828125,-0.002435702714323997,-0.04952010997235775,-0.0260159002661705
1761336355303053600,6.166053466796875,0.006923661783337593,-0.0025669278785586357,0.013444003462791442
1761336355313119700,6.17611962890625,-0.008095043650269508,0.05918941720202565,0.02852539886906743
1761336355323186700,6.186186767578125,-0.0525198763102293,0.10622224040329456,-0.013177899872511625
1761336355333252600,6.196252685546875,-0.04994797999560833,0.10656623153537512,-0.11693228885754942
1761336355343318800,6.20631884765625,-0.0570469983458519,0.02551628018096089,-0.23578034820854663
1761336355353385700,6.2163857421875,-0.06732113960087299,-0.11187646677270531,-0.33677389417812226
1761336355363451600,6.22645166015625,-0.06542144345939159,-0.2275618243090808,-0.3682756785094738
1761336355373518600,6.2365185546875,-0.09146014007925987,-0.27951223016828297,-0.36659517807662484
1761336355383584500,6.24658447265625,-0.10682838960289955,-0.25233517716825005,-0.3203898917406797
1761336355393650400,6.256650390625,-0.1581780530899763,-0.1674995697952807,-0.20894655568823217
1761336355403717600,6.266717529296875,-0.2508317868679762,-0.10260784929841756,-0.07224719782620669
1761336355413783600,6.276783447265625,-0.30625790601372715,-0.07807239684835075,0.029259996753931043
1761336355423850500,6.2868505859375,-0.2997989391326904,-0.049810471221059555,0.051797114993631835
1761336355433916700,6.296916748046875,-0.28019992017149925,-0.004870820906758308,0.022913988728076217
1761336355443982600,6.306982666015625,-0.2675800925731659,0.007209639117866754,0.005347352377325296
1761336355454049500,6.317049560546875,-0.24726971047222612,-0.04482829889431596,0.00664206836298108
1761336355464115700,6.32711572265625,-0.21691256613135337,-0.08013137520477175,-0.00858706495091319
1761336355474182000,6.337181884765625,-0.1812532237291336,-0.09149360395744442,-0.0030533962212502953
1761336355484248800,6.347248779296875,-0.18996143084168432,-0.09511208671554923,0.06795344615504145
1761336355494315000,6.35731494140625,-0.20741525446772574,-0.06918751799464225,0.13060147937834263
1761336355504382000,6.3673818359375,-0.16520868237912653,0.010448328778147697,0.11368453910797834
1761336355514448000,6.37744775390625,-0.0631377164363861,0.07949599991068243,0.0672233783148229
1761336355524514000,6.38751416015625,0.047133507096767426,0.07137026886120439,0.014402765492349862
1761336355534581000,6.3975810546875,0.14909575196802616,0.012321575304120778,0.006515373243391513
1761336355544646700,6.407646728515625,0.2114174758464098,-0.0401718513906002,0.00909399155974388
1761336355554713900,6.4177138671875,0.24851941827237606,-0.0601578238427639,-0.032996406803280115
1761336355564779800,6.42777978515625,0.25486206529736516,-0.07037248999550938,-0.08432751172035932
1761336355574845700,6.437845703125,0.2626508194774389,-0.1019363797776401,-0.1292059333667159
1761336355584913000,6.447912841796875,0.2508218499958515,-0.12523615295290946,-0.12667670715004206
1761336355594978800,6.457978759765625,0.21351415586471556,-0.08916063096523284,-0.052688218614459034
1761336355605045800,6.468045654296875,0.20096739350259302,-0.022973025438934563,-0.01975464791432023
1761336355615112000,6.47811181640625,0.15536533375680445,0.009399842638522386,0.015271949542313814
1761336355625177900,6.488177734375,0.0809492674589157,-0.04505523951798677,0.01384410869628191
1761336355635244800,6.498244873046875,-0.01527531054317951,-0.12460165444165468,-0.029422493839263913
1761336355645311000,6.50831103515625,-0.08476151922345161,-0.14307663780897856,-0.07189926117137074
1761336355655377000,6.518376953125,-0.07969196087419986,-0.1204210077561438,-0.07725333555042743
1761336355665443800,6.52844384765625,-0.07163374210298061,-0.12135507373586296,-0.03482669097036123
1761336355675510000,6.538510009765625,-0.07054302425682545,-0.1234197511807084,-0.012463906384259461
1761336355685577000,6.548576904296875,-0.11125848100483417,-0.11249313736632466,-0.009515724103152752
1761336355695643000,6.558642822265625,-0.22924305539429188,-0.13219298635348678,0.007389817990362643
1761336355705708800,6.568708740234375,-0.3671200787335634,-0.12327552040442824,-0.014310118772834538
1761336355715776000,6.57877587890625,-0.4335007226139307,-0.09496931724399328,-0.03829480547234416
1761336355725841700,6.588841552734375,-0.41941082246303557,-0.060787938439846034,-0.04381692989468574
1761336355735908900,6.598908935546875,-0.32897301116883754,-0.042130584242939945,-0.04457008634954691
1761336355745974800,6.608974853515625,-0.18825579596757888,-0.051127545168995855,-0.07988178435787559
1761336355756040700,6.619040771484375,-0.09387070835232735,-0.11170520185902715,-0.10348185565397143
1761336355766108000,6.62910791015625,-0.001471241596341133,-0.18315934961140154,-0.10593319432884454
1761336355776173800,6.639173828125,0.058524085161089895,-0.22611849363297223,-0.14386910336092112
1761336355786240800,6.64924072265625,0.07700082209408282,-0.22175445320457218,-0.17379428602531552
1761336355796307000,6.659306884765625,0.03709843529462814,-0.1949488638654351,-0.15489333233088254
1761336355806372900,6.669372802734375,-0.026021160963177678,-0.15646028938665985,-0.11403890550360082
1761336355816439800,6.679439697265625,-0.06986030268967151,-0.133593208540231,-0.10415566326230764
1761336355826506000,6.689506103515625,-0.08205752096176147,-0.09194894650951027,-0.06667363547757267
1761336355836572000,6.699572021484375,-0.1273959613353014,-0.07209229952543973,-0.05361848520189524
1761336355846638800,6.709638916015625,-0.19899638569056988,-0.10014861957803368,-0.0604595832683146
1761336355856705000,6.719705078125,-0.203138307800889,-0.16135171469002962,-0.08002250800281763
1761336355866772000,6.72977197265625,-0.2031260328412056,-0.18708660605773328,-0.11463730978816747
1761336355876838000,6.739837890625,-0.14694821854531764,-0.17900705223754046,-0.08760507208630441
1761336355886903800,6.74990380859375,-0.04945113638937473,-0.15008359396159648,0.0038869244359433647
1761336355896970800,6.759970703125,0.028850831431150435,-0.10015651062354444,0.11279065900817513
1761336355907036700,6.77003662109375,0.06801555160582065,-0.06580956599414348,0.18166677296608685
1761336355917103900,6.780103759765625,0.06816402016580105,-0.06242080033868551,0.17803265424743295
1761336355927169800,6.790169677734375,0.049931028860807414,-0.038086569549143315,0.16158362374976276
1761336355937235700,6.800235595703125,0.008038929548859595,-0.03587649228423834,0.1769549420133233
1761336355947303000,6.810302978515625,-0.06921089887022971,-0.030889936043322085,0.16015709807798265
1761336355957368800,6.820368896484375,-0.11961305237412452,-0.029942718321084975,0.11082724998071788
1761336355967435000,6.83043505859375,-0.15335633202195167,-0.04833265375345945,0.08794409478232264
1761336355977502000,6.840501953125,-0.1468763223528862,-0.09386354795917869,0.04352203860133886
1761336355987567900,6.85056787109375,-0.08615501940846443,-0.13943097478300331,-0.0036265199340879913
1761336355997634800,6.860634765625,0.014548749834299086,-0.14497574942857025,-0.05223930580317974
1761336356007701000,6.870700927734375,0.08659048821628093,-0.08666574540957808,-0.09295680837780236
1761336356017767000,6.880766845703125,0.10629296755194663,-0.03645166182368993,-0.04020750722587108
1761336356027833900,6.890833740234375,-0.014680267259478567,-0.016786299628019332,-0.02207081590220332
1761336356037899800,6.900899658203125,-0.15855156257748604,0.03006042641662061,-0.11659027048684656
1761336356047967000,6.910967041015625,-0.17746902901530265,0.07552205477841198,-0.10264986180923878
1761336356058032600,6.92103271484375,-0.05249065021574497,0.07450907834358513,0.031020284424722194
1761336356068098800,6.931098876953125,0.1477127731770277,0.043561786089837545,0.21344678971692918
1761336356078165800,6.941165771484375,0.2237210771024227,-0.004328822984546423,0.14304025132134557
1761336356088231700,6.951231689453125,-0.04832768531739712,-0.03931048532091081,-0.0790616270814091
1761336356098297900,6.9612978515625,-0.2851402991831303,0.09847871360443532,-0.24923231578208505
1761336356108364800,6.97136474609375,-0.3270224616229534,0.0825924315560609,-0.18842983736023305
1761336356118431000,6.981430908203125,-0.37695582857131954,-0.14300028463713824,-0.1435778653293848
1761336356128498000,6.991497802734375,-0.3430120579153299,-0.35693142380490894,-0.41053127737157047
1761336356138563800,7.001563720703125,-0.18233926540017126,-0.29803930904902515,-0.6243200854592025
1761336356148630000,7.011630126953125,-0.04604571186006069,-0.32622363939546045,-0.5766541519861668
1761336356158697000,7.021697021484375,0.03333879050016403,-0.44002274479381737,-0.44272973873019217
1761336356168763000,7.031762939453125,0.04285422234237194,-0.40721345806047315,-0.3959145038023591
