time,seconds_elapsed,z,y,x
1761336349222952400,0.085952392578125,0.7984721660614014,-0.26898321509361267,0.1363678127527237
1761336349233019600,0.09601953125,0.8873744606971741,-0.2295282483100891,0.12212639302015305
1761336349243085300,0.106085205078125,0.9892414212226868,-0.17568977177143097,0.08748932182788849
1761336349253151500,0.1161513671875,1.0930209159851074,-0.11293266713619232,0.03493102267384529
1761336349263218400,0.126218505859375,1.1804101467132568,-0.04305239021778107,-0.055783700197935104
1761336349273284400,0.136284423828125,1.2575079202651978,0.018711194396018982,-0.18956178426742554
1761336349283351300,0.146351318359375,1.332889437675476,0.09599825739860535,-0.382480651140213
1761336349293417500,0.15641748046875,1.400517463684082,0.16131049394607544,-0.6232736110687256
1761336349303483400,0.1664833984375,1.473061442375183,0.16995485126972198,-0.8875830173492432
1761336349313550600,0.176550537109375,1.536306619644165,0.17152340710163116,-1.1137688159942627
1761336349323616500,0.186616455078125,1.5836647748947144,0.23746006190776825,-1.2540711164474487
1761336349333683500,0.196683349609375,1.5987169742584229,0.373556911945343,-1.327337622642517
1761336349343749600,0.20674951171875,1.5650155544281006,0.48464879393577576,-1.3358741998672485
1761336349353815600,0.216815673828125,1.4860907793045044,0.4923700988292694,-1.2829397916793823
1761336349363882500,0.226882568359375,1.3902766704559326,0.4101755917072296,-1.1801081895828247
1761336349373948700,0.23694873046875,1.2957266569137573,0.2803807258605957,-1.0160143375396729
1761336349384015600,0.247015625,1.219934344291687,0.15421532094478607,-0.7991978526115417
1761336349394081500,0.25708154296875,1.1437350511550903,0.04221426695585251,-0.5667170286178589
1761336349404147500,0.2671474609375,1.0601937770843506,-0.1190238893032074,-0.3862612545490265
1761336349414214400,0.27721435546875,0.9524622559547424,-0.37541383504867554,-0.297953724861145
1761336349424280300,0.2872802734375,0.8457165956497192,-0.6597843170166016,-0.2984437644481659
1761336349434347300,0.29734716796875,0.7527380585670471,-0.8954450488090515,-0.356323778629303
1761336349444413400,0.307413330078125,0.6580251455307007,-1.0611919164657593,-0.4385371506214142
1761336349454479400,0.317479248046875,0.5776432752609253,-1.1347405910491943,-0.5254878401756287
1761336349464546600,0.327546630859375,0.5292379260063171,-1.1309075355529785,-0.5841963887214661
1761336349474612500,0.337612548828125,0.5099939703941345,-1.0443494319915771,-0.6290044784545898
1761336349484679400,0.347679443359375,0.5112839937210083,-0.9130759239196777,-0.6542315483093262
1761336349494745600,0.35774560546875,0.5130388736724854,-0.760887622833252,-0.6637942790985107
1761336349504811500,0.3678115234375,0.5113725662231445,-0.6111868619918823,-0.6724268794059753
1761336349514878500,0.37787841796875,0.5057328939437866,-0.48105233907699585,-0.673021674156189
1761336349524944600,0.387944580078125,0.4810006618499756,-0.40586572885513306,-0.6929780840873718
1761336349535010600,0.398010498046875,0.4406735897064209,-0.38796675205230713,-0.7016025185585022
1761336349545077500,0.408077392578125,0.390533983707428,-0.3948443830013275,-0.6915586590766907
1761336349555143700,0.418143798828125,0.35109278559684753,-0.38947242498397827,-0.661003828048706
1761336349565210600,0.428210693359375,0.33410340547561646,-0.3560420274734497,-0.6098370552062988
1761336349575276300,0.4382763671875,0.33485734462738037,-0.29324841499328613,-0.5528592467308044
1761336349585343500,0.448343505859375,0.35447871685028076,-0.20935778319835663,-0.5005425214767456
1761336349595409400,0.458409423828125,0.3887394964694977,-0.15621118247509003,-0.4441151022911072
1761336349605475300,0.468475341796875,0.42436355352401733,-0.1546628177165985,-0.37878963351249695
1761336349615542500,0.47854248046875,0.45230329036712646,-0.21551235020160675,-0.3203008770942688
1761336349625608400,0.4886083984375,0.4461607038974762,-0.3134109377861023,-0.2655095160007477
1761336349635674400,0.49867431640625,0.40592721104621887,-0.38959330320358276,-0.20521046221256256
1761336349645741600,0.508741455078125,0.32976293563842773,-0.460257351398468,-0.15997934341430664
1761336349655807500,0.518807373046875,0.25147318840026855,-0.49393922090530396,-0.13269813358783722
1761336349665874400,0.52887451171875,0.1925070732831955,-0.45643100142478943,-0.14203809201717377
1761336349675940600,0.538940673828125,0.15622633695602417,-0.3788401484489441,-0.1790713369846344
1761336349686007600,0.549007568359375,0.13859142363071442,-0.27528607845306396,-0.22563190758228302
1761336349696073500,0.559073486328125,0.1344829648733139,-0.18060584366321564,-0.27824389934539795
1761336349706139600,0.5691396484375,0.1403706818819046,-0.10145562887191772,-0.31943368911743164
1761336349716206600,0.57920654296875,0.15220588445663452,-0.0565967857837677,-0.3490285277366638
1761336349726272500,0.5892724609375,0.16050322353839874,-0.037968505173921585,-0.3640149235725403
1761336349736338400,0.59933837890625,0.1419089436531067,-0.02878599986433983,-0.35756051540374756
1761336349746405400,0.6094052734375,0.1009276807308197,-0.021351784467697144,-0.33526960015296936
1761336349756471300,0.61947119140625,0.0418698824942112,-0.005712558515369892,-0.2888706922531128
1761336349766538500,0.62953857421875,-0.017953770235180855,0.016148531809449196,-0.23267719149589539
1761336349776604400,0.6396044921875,-0.07239162176847458,0.011660577729344368,-0.18535952270030975
1761336349786671400,0.64967138671875,-0.10614052414894104,-0.006379408296197653,-0.14174573123455048
1761336349796737500,0.659737548828125,-0.11130493879318237,-0.03929710388183594,-0.10835479199886322
1761336349806803500,0.669803466796875,-0.10092899948358536,-0.0700872391462326,-0.0689418762922287
1761336349816870400,0.679870361328125,-0.08104725182056427,-0.08863513916730881,-0.027595413848757744
1761336349826936600,0.6899365234375,-0.06470263004302979,-0.09802757948637009,0.00504082627594471
1761336349837003500,0.70000341796875,-0.057395901530981064,-0.13488860428333282,0.013514121063053608
1761336349847069400,0.7100693359375,-0.04818802326917648,-0.15683571994304657,0.0016308305785059929
1761336349857135600,0.720135498046875,-0.027720065787434578,-0.151815265417099,-0.02564236707985401
1761336349867202600,0.73020263671875,0.005177963990718126,-0.12732431292533875,-0.06277509033679962
1761336349877268500,0.7402685546875,0.03732282668352127,-0.09527164697647095,-0.09451725333929062
1761336349887335400,0.75033544921875,0.06760163605213165,-0.03943421691656113,-0.1227792501449585
1761336349897401600,0.760401611328125,0.1102813333272934,0.044823579490184784,-0.15154127776622772
1761336349907467300,0.77046728515625,0.14116281270980835,0.13048017024993896,-0.18446007370948792
1761336349917534500,0.780534423828125,0.14157864451408386,0.17077778279781342,-0.21809159219264984
1761336349927600400,0.790600341796875,0.11054109036922455,0.1739373654127121,-0.24165603518486023
1761336349937667300,0.800667236328125,0.06495033949613571,0.1674128770828247,-0.2479407787322998
1761336349947733500,0.8107333984375,0.01066686026751995,0.16769491136074066,-0.22358830273151398
1761336349957799400,0.82079931640625,-0.03259147331118584,0.1747906357049942,-0.19476847350597382
1761336349967866400,0.830866455078125,-0.06118476763367653,0.18564462661743164,-0.1399472951889038
1761336349977932500,0.8409326171875,-0.07074142247438431,0.20944610238075256,-0.0838630348443985
1761336349987998500,0.85099853515625,-0.06248030066490173,0.2172965705394745,-0.021218568086624146
1761336349998065400,0.8610654296875,-0.04288821294903755,0.1885577142238617,0.02562393993139267
1761336350008131600,0.871131591796875,-0.016853416338562965,0.15185803174972534,0.04029689356684685
1761336350018198500,0.881198486328125,0.012485562823712826,0.1264703869819641,0.03567231446504593
1761336350028264400,0.891264404296875,0.033815883100032806,0.11658765375614166,0.028044220060110092
1761336350038330600,0.90133056640625,0.047619812190532684,0.12992003560066223,0.02704222872853279
1761336350048397600,0.9113974609375,0.04326740652322769,0.15927019715309143,0.023116465657949448
1761336350058463500,0.92146337890625,0.032638490200042725,0.1491342931985855,0.010018447414040565
1761336350068530400,0.931530517578125,0.02731350250542164,0.07297347486019135,-0.01155075989663601
1761336350078596600,0.9415966796875,0.03842791169881821,0.009496679529547691,-0.032436542212963104
1761336350088662300,0.951662353515625,0.04893168434500694,-0.011758008040487766,-0.07237783074378967
1761336350098729500,0.9617294921875,0.05498118698596954,-0.018870294094085693,-0.1131795272231102
1761336350108795400,0.97179541015625,0.05946328863501549,-0.005154481157660484,-0.1394292414188385
1761336350118862300,0.9818623046875,0.058859918266534805,0.023275095969438553,-0.16166234016418457
1761336350128928500,0.991928466796875,0.05406436324119568,0.0364321768283844,-0.16514362394809723
1761336350138994400,1.001994384765625,0.055641911923885345,0.03123675473034382,-0.15370839834213257
1761336350149061400,1.012061279296875,0.05213293060660362,0.010615631937980652,-0.1435021013021469
1761336350159127600,1.02212744140625,0.05047077313065529,0.003647143952548504,-0.12568038702011108
1761336350169194500,1.032194580078125,0.050398603081703186,0.026665642857551575,-0.12056685984134674
1761336350179260400,1.042260498046875,0.049619510769844055,0.07198730111122131,-0.11258837580680847
1761336350189326600,1.05232666015625,0.048068754374980927,0.10439398139715195,-0.10516081750392914
1761336350199393500,1.0623935546875,0.04589277505874634,0.11309105902910233,-0.09741799533367157
1761336350209459500,1.07245947265625,0.03671659156680107,0.0984274372458458,-0.08503137528896332
1761336350219526700,1.082526611328125,0.02423509582877159,0.08398770540952682,-0.06869883835315704
1761336350229592600,1.092592529296875,0.010999184101819992,0.07933250069618225,-0.057033129036426544
1761336350239658500,1.102658447265625,-0.008947852998971939,0.05891809239983559,-0.0552658773958683
1761336350249725700,1.1127255859375,-0.021815981715917587,0.05592496320605278,-0.0678224116563797
1761336350259791400,1.122791259765625,-0.024485230445861816,0.05816461145877838,-0.07949226349592209
1761336350269858300,1.1328583984375,-0.022718224674463272,0.06930088996887207,-0.08350351452827454
1761336350279924500,1.142924560546875,-0.021605251356959343,0.06953636556863785,-0.07806430011987686
1761336350289990400,1.152990478515625,-0.021839875727891922,0.06522923707962036,-0.06667210161685944
1761336350300057300,1.163057373046875,-0.025076624006032944,0.06442145258188248,-0.04414417967200279
1761336350310123500,1.17312353515625,-0.03258141130208969,0.048156462609767914,-0.034645482897758484
1761336350320190500,1.1831904296875,-0.040849074721336365,0.03940221667289734,-0.02646036073565483
1761336350330256400,1.19325634765625,-0.038325197994709015,0.0465749055147171,-0.011911245062947273
1761336350340322600,1.203322509765625,-0.026541002094745636,0.05943656340241432,-0.002662030979990959
1761336350350389500,1.213389404296875,-0.019478831440210342,0.05562451109290123,-0.00880434550344944
1761336350360455400,1.223455322265625,-0.019946197047829628,0.028704244643449783,-0.0259520523250103
1761336350370522600,1.233522705078125,-0.025341229513287544,0.004747777245938778,-0.04099598154425621
1761336350380588500,1.243588623046875,-0.021430546417832375,-0.019760753959417343,-0.04245970398187637
1761336350390654500,1.253654541015625,-0.017649125307798386,-0.013804861344397068,-0.018335461616516113
1761336350400721700,1.2637216796875,-0.012451140210032463,0.008542872965335846,0.014845337718725204
1761336350410787600,1.27378759765625,-0.015095127746462822,0.02715437300503254,0.041692666709423065
1761336350420854500,1.2838544921875,-0.02080477960407734,0.03697897121310234,0.05095084011554718
1761336350430920400,1.29392041015625,-0.02092275768518448,0.039288196712732315,0.05169199779629707
1761336350440986400,1.303986328125,-0.013331196270883083,0.04573054611682892,0.058113083243370056
1761336350451053300,1.31405322265625,-0.004868468269705772,0.04357125610113144,0.06271262466907501
1761336350461119500,1.324119384765625,0.001257169060409069,0.042081017047166824,0.06392519921064377
1761336350471186000,1.33418603515625,0.006186946295201778,0.035882510244846344,0.05207573249936104
1761336350481251800,1.344251953125,0.01468062773346901,0.027476569637656212,0.02992020547389984
1761336350491318000,1.354318115234375,0.021103106439113617,0.0023906584829092026,-0.004618330858647823
1761336350501385000,1.364385009765625,0.025333983823657036,-0.025572411715984344,-0.042874161154031754
1761336350511451000,1.374450927734375,0.021555757150053978,-0.03221380338072777,-0.07309171557426453
1761336350521518000,1.38451806640625,0.02554578147828579,-0.011484576389193535,-0.08278445899486542
1761336350531584000,1.394583984375,0.018470028415322304,0.016612837091088295,-0.07616464048624039
1761336350541650200,1.404650146484375,0.017194660380482674,0.022578347474336624,-0.06693772971630096
1761336350551717000,1.414717041015625,0.022385427728295326,0.010986672714352608,-0.05916529521346092
1761336350561783000,1.424782958984375,0.028469951823353767,-0.009298359975218773,-0.05759456381201744
1761336350571850000,1.43485009765625,0.03208838775753975,-0.021826401352882385,-0.051904186606407166
1761336350581916200,1.444916259765625,0.039028100669384,-0.037077952176332474,-0.045598555356264114
1761336350591981800,1.45498193359375,0.045827947556972504,-0.01996421255171299,-0.021529437974095345
1761336350602048800,1.465048828125,0.05622916296124458,0.013042389415204525,0.006299854256212711
1761336350612115000,1.475114990234375,0.05452926829457283,0.036903247237205505,0.03922238200902939
1761336350622182000,1.485181884765625,0.04848571866750717,0.03850775212049484,0.0566975399851799
1761336350632247800,1.495247802734375,0.03648578003048897,0.029563523828983307,0.06521859019994736
1761336350642314000,1.50531396484375,0.030899256467819214,0.016452930867671967,0.05912909284234047
1761336350652381000,1.515380859375,0.029261678457260132,-0.0034808292984962463,0.044843368232250214
1761336350662446800,1.52544677734375,0.027295667678117752,-0.022401919588446617,0.022810842841863632
1761336350672514000,1.53551416015625,0.03126351162791252,-0.020598160102963448,0.006560768000781536
1761336350682580000,1.545580078125,0.03730369731783867,-0.00965438224375248,-0.007650190033018589
1761336350692646100,1.555646240234375,0.03075498342514038,-0.015030771493911743,-0.01400076411664486
1761336350702713000,1.565713134765625,0.024134561419487,-0.014742538332939148,-0.018861843273043633
1761336350712779000,1.575779052734375,0.02588212676346302,-0.011775776743888855,-0.021347902715206146
1761336350722846000,1.585845947265625,0.022165164351463318,-0.000089976005256176,-0.015043227933347225
1761336350732912000,1.595912109375,0.017770417034626007,0.015001092106103897,-0.005957054905593395
1761336350742977800,1.605977783203125,0.010968482121825218,0.007921457290649414,-0.005794539116322994
1761336350753045000,1.616044921875,0.004594205413013697,-0.00847083143889904,-0.015014668926596642
1761336350763111000,1.62611083984375,-0.005143307149410248,-0.019697729498147964,-0.031682852655649185
1761336350773177900,1.636177734375,-0.010809981264173985,-0.0205179825425148,-0.0491582527756691
1761336350783243800,1.646243896484375,-0.026210462674498558,-0.02228887751698494,-0.059507761150598526
1761336350793310000,1.65631005859375,-0.027147097513079643,-0.01019626297056675,-0.06487935781478882
1761336350803377000,1.666376953125,-0.021774526685476303,0.009206514805555344,-0.06015663594007492
1761336350813443000,1.676443115234375,-0.011803118512034416,0.009973505511879921,-0.06191591918468475
1761336350823509000,1.686509033203125,-0.004897360224276781,0.015244584530591965,-0.058611463755369186
1761336350833576000,1.696575927734375,0.000007916241884231567,0.02556646429002285,-0.04913380742073059
1761336350843642000,1.70664208984375,-0.009805269539356232,0.0326857790350914,-0.048079974949359894
1761336350853709000,1.716708984375,-0.024928295984864235,0.014044186100363731,-0.055417247116565704
1761336350863775000,1.72677490234375,-0.03668191283941269,0.003886869177222252,-0.05914260447025299
1761336350873841200,1.736841064453125,-0.0478631965816021,0.016000524163246155,-0.061282187700271606
1761336350883908000,1.746908203125,-0.0603974387049675,0.036603815853595734,-0.062294282019138336
1761336350893974000,1.75697412109375,-0.07269005477428436,0.04667322710156441,-0.06367193162441254
1761336350904041000,1.767041015625,-0.0767100602388382,0.04817996919155121,-0.07132946699857712
1761336350914107100,1.777107177734375,-0.07512760907411575,0.037625063210725784,-0.08192378282546997
1761336350924172800,1.7871728515625,-0.07455850392580032,0.009586133062839508,-0.08851581811904907
1761336350934239700,1.79723974609375,-0.07573588937520981,-0.03145983815193176,-0.09240243583917618
1761336350944306000,1.807305908203125,-0.069085493683815,-0.07177627086639404,-0.07695306837558746
1761336350954372900,1.817372802734375,-0.06194715201854706,-0.06278783082962036,-0.06390251219272614
1761336350964439000,1.82743896484375,-0.058145612478256226,-0.05802912265062332,-0.04344799369573593
1761336350974505000,1.8375048828125,-0.05853284150362015,-0.04140673950314522,-0.024442879483103752
1761336350984572000,1.847572021484375,-0.056091103702783585,-0.005322860553860664,0.00022875051945447922
1761336350994638000,1.85763818359375,-0.05533849447965622,0.02809528261423111,0.025497090071439743
1761336351004705000,1.867705078125,-0.05716472491621971,0.043943483382463455,0.049512188881635666
1761336351014771000,1.87777099609375,-0.06028807535767555,0.04368036240339279,0.07033731788396835
1761336351024837000,1.887837158203125,-0.05950770899653435,0.041594427078962326,0.07202435284852982
1761336351034904000,1.897904052734375,-0.05372704938054085,0.03890730068087578,0.06000763550400734
1761336351044970000,1.907969970703125,-0.05390813946723938,0.025224309414625168,0.0322200283408165
1761336351055037000,1.918036865234375,-0.048226818442344666,0.002658548764884472,-0.006532425992190838
1761336351065103000,1.92810302734375,-0.03671363368630409,-0.019792776554822922,-0.05448742210865021
1761336351075169000,1.9381689453125,-0.023050552234053612,-0.034496355801820755,-0.08659156411886215
1761336351085236000,1.948236083984375,-0.004888703115284443,-0.04045515134930611,-0.09013009071350098
1761336351095302000,1.958302001953125,0.009459343738853931,-0.02945602685213089,-0.06644846498966217
1761336351105367800,1.968367919921875,0.015151584520936012,-0.020872393622994423,-0.026058167219161987
1761336351115435000,1.97843505859375,0.012868190184235573,-0.007303588092327118,0.009961884468793869
1761336351125501000,1.9885009765625,0.008949633687734604,0.016006290912628174,0.046220678836107254
1761336351135568000,1.99856787109375,0.0017654909752309322,0.04516391083598137,0.0664772167801857
1761336351145634000,2.008634033203125,-0.00008233590051531792,0.058106452226638794,0.06382685154676437
1761336351155700000,2.018699951171875,-0.0010192357003688812,0.05615781992673874,0.05364372581243515
1761336351165767000,2.028766845703125,0.002715048613026738,0.050527364015579224,0.024310071021318436
1761336351175833000,2.0388330078125,0.012452630326151848,0.028249220922589302,-0.0036222287453711033
1761336351185900000,2.048900146484375,0.013043515384197235,0.008108343929052353,-0.026013564318418503
1761336351195966000,2.058966064453125,0.024221599102020264,-0.00788793247193098,-0.04415262117981911
1761336351206032100,2.0690322265625,0.03485783562064171,-0.02989835850894451,-0.0453435480594635
1761336351216099000,2.07909912109375,0.04508756846189499,-0.028301794081926346,-0.0308290533721447
1761336351226165000,2.0891650390625,0.05166516453027725,-0.005217689089477062,-0.006709972862154245
1761336351236232000,2.09923193359375,0.046985991299152374,0.016526222229003906,0.01914932206273079
1761336351246298000,2.109298095703125,0.03691999241709709,0.03604622930288315,0.03575078397989273
1761336351256363800,2.11936376953125,0.025394361466169357,0.044268205761909485,0.03975430876016617
1761336351266431000,2.129430908203125,0.012025434523820877,0.03175731748342514,0.023415839299559593
1761336351276497000,2.139496826171875,0.0038545900024473667,0.004289476200938225,-0.007386547978967428
1761336351286563800,2.149563720703125,0.002546842908486724,-0.019309118390083313,-0.03756915032863617
1761336351296630000,2.159630126953125,0.0014035478234291077,-0.027134018018841743,-0.053439460694789886
1761336351306696000,2.169696044921875,0.007344813086092472,-0.02174748107790947,-0.05461325868964195
1761336351316763000,2.179762939453125,0.011649280786514282,-0.03132074698805809,-0.05194370448589325
1761336351326829000,2.1898291015625,0.010264219716191292,-0.03458694741129875,-0.03623809292912483
1761336351336896000,2.19989599609375,0.0022081579081714153,-0.027742089703679085,-0.020846087485551834
1761336351346962000,2.2099619140625,-0.003038997296243906,-0.021110093221068382,-0.004758989438414574
1761336351357028000,2.220028076171875,-0.005405482370406389,-0.008656885474920273,0.014058373868465424
1761336351367095000,2.230094970703125,-0.0020303060300648212,0.0070908814668655396,0.030735816806554794
1761336351377161000,2.240160888671875,0.0072545381262898445,0.009478937834501266,0.0318591371178627
1761336351387228000,2.250227783203125,0.015450093895196915,-0.004203008487820625,0.02751661092042923
1761336351397294000,2.260294189453125,0.023276591673493385,-0.0186700988560915,0.018398746848106384
1761336351407360000,2.270360107421875,0.02519570291042328,-0.031181707978248596,0.016055293381214142
1761336351417427000,2.280427001953125,0.028713738545775414,-0.03107757680118084,0.020336590707302094
1761336351427492900,2.290492919921875,0.02326815202832222,-0.021501533687114716,0.023146018385887146
1761336351437560000,2.30056005859375,0.010125184431672096,-0.01629425585269928,0.017307039350271225
1761336351447626000,2.3106259765625,0.0019587106071412563,-0.010737326927483082,0.0009240536019206047
1761336351457692000,2.32069189453125,-0.007920552045106888,-0.003950793296098709,-0.01231185719370842
1761336351467758800,2.3307587890625,-0.017874062061309814,-0.005485346540808678,-0.03281742334365845
1761336351477825000,2.340824951171875,-0.021319925785064697,-0.014353140257298946,-0.04491350054740906
1761336351487892000,2.35089208984375,-0.020222563296556473,-0.02770105190575123,-0.05006270855665207
1761336351497958000,2.3609580078125,-0.009917994029819965,-0.03602635860443115,-0.04129398241639137
1761336351508024000,2.371024169921875,-0.006425623781979084,-0.028119772672653198,-0.017582830041646957
1761336351518091000,2.381091064453125,0.0003190981224179268,0.004464536905288696,0.008201362565159798
1761336351528157000,2.391156982421875,0.00016161473467946053,0.03596445918083191,0.026692088693380356
1761336351538223000,2.40122314453125,-0.004772690590471029,0.048505816608667374,0.025713909417390823
1761336351548290000,2.4112900390625,-0.009866492822766304,0.05264471843838692,0.0068991519510746
1761336351558356000,2.42135595703125,-0.015627708286046982,0.04454178735613823,-0.015583786182105541
1761336351568423000,2.4314228515625,-0.021504707634449005,0.02861647680401802,-0.04649677127599716
1761336351578489000,2.441489013671875,-0.026816383004188538,0.0065484605729579926,-0.0720285028219223
1761336351588554800,2.4515546875,-0.026437625288963318,-0.009243589825928211,-0.09598978608846664
1761336351598622200,2.461622314453125,-0.021564573049545288,-0.01727994531393051,-0.10689649730920792
1761336351608687900,2.47168798828125,-0.016934067010879517,-0.0029293103143572807,-0.10703922808170319
1761336351618754800,2.4817548828125,-0.011497754603624344,0.01695917546749115,-0.09835492819547653
1761336351628821000,2.491821044921875,-0.00936293974518776,0.031517162919044495,-0.08673001825809479
1761336351638887000,2.501886962890625,-0.007231878582388163,0.02915414236485958,-0.0784720927476883
1761336351648953900,2.511953857421875,-0.011871477589011192,0.024499744176864624,-0.062419064342975616
1761336351659020000,2.52202001953125,-0.014355141669511795,0.032446883618831635,-0.044225677847862244
1761336351669087000,2.5320869140625,-0.019274678081274033,0.041226353496313095,-0.03434146195650101
1761336351679153000,2.54215283203125,-0.021505877375602722,0.04445517063140869,-0.025970613583922386
1761336351689219000,2.552218994140625,-0.01647297292947769,0.05352657288312912,-0.018374569714069366
1761336351699286000,2.5622861328125,-0.010289378464221954,0.07054896652698517,-0.013328943401575089
1761336351709352000,2.57235205078125,-0.003806609194725752,0.08589363098144531,-0.00703398697078228
1761336351719419000,2.5824189453125,-0.006135544274002314,0.0930495485663414,-0.006596163380891085
1761336351729485000,2.592485107421875,-0.005936496425420046,0.09201622009277344,-0.012751278467476368
1761336351739551000,2.602551025390625,-0.008430546149611473,0.07675124704837799,-0.026496384292840958
1761336351749618200,2.6126181640625,-0.00917697511613369,0.06846105307340622,-0.03759833052754402
1761336351759684000,2.62268408203125,-0.01393311470746994,0.06463675200939178,-0.04667757824063301
1761336351769751000,2.6327509765625,-0.015027642250061035,0.06387761980295181,-0.05432907119393349
1761336351779817000,2.64281689453125,-0.013390863314270973,0.06722201406955719,-0.060818396508693695
1761336351789883000,2.6528828125,-0.009473560377955437,0.06814435124397278,-0.060569293797016144
1761336351799949800,2.66294970703125,-0.00236718263477087,0.06491100788116455,-0.05202001705765724
1761336351810016000,2.67301611328125,0.0038908340502530336,0.031015710905194283,-0.04138345643877983
1761336351820082000,2.68308203125,0.01637306995689869,-0.11805978417396545,0.06298502534627914
1761336351830148900,2.69314892578125,0.03571104258298874,-0.18540319800376892,0.14575183391571045
1761336351840215000,2.703215087890625,0.05160798504948616,-0.21542420983314514,0.18140943348407745
1761336351850282000,2.713281982421875,0.05001393333077431,-0.24049857258796692,0.17145496606826782
1761336351860348000,2.723347900390625,0.04774971306324005,-0.2181439995765686,0.13225802779197693
1761336351870414000,2.7334140625,0.04227786511182785,-0.15889649093151093,0.06994495540857315
1761336351880481000,2.74348095703125,0.03777472674846649,-0.04479547590017319,-0.005701069720089436
1761336351890547000,2.753546875,0.02699936181306839,0.07191798835992813,-0.07473431527614594
1761336351900614100,2.7636142578125,-0.0027529429644346237,0.10247589647769928,-0.09458258748054504
1761336351910680000,2.77368017578125,-0.02138678915798664,0.1049838736653328,-0.061681147664785385
1761336351920746000,2.78374609375,-0.024733318015933037,0.11811192333698273,0.007685408927500248
1761336351930813200,2.793813232421875,-0.01595691218972206,0.12633752822875977,0.06886269152164459
1761336351940878800,2.80387890625,0.000561609398573637,0.12152226269245148,0.11255983263254166
1761336351950946000,2.813946044921875,0.023701872676610947,0.12323208898305893,0.13475258648395538
1761336351961012000,2.824011962890625,0.04328010231256485,0.13699476420879364,0.1336207389831543
1761336351971078000,2.834077880859375,0.05351756513118744,0.15753766894340515,0.11661147326231003
1761336351981144800,2.844144775390625,0.05449867248535156,0.16711492836475372,0.09438925981521606
1761336351991211000,2.8542109375,0.05935783311724663,0.16357307136058807,0.06013961881399155
1761336352001278000,2.86427783203125,0.0616617314517498,0.14076577126979828,0.01941109448671341
1761336352011344000,2.87434375,0.06489331275224686,0.12550270557403564,-0.019957836717367172
1761336352021410000,2.88441015625,0.05963516980409622,0.1263866126537323,-0.06371010839939117
1761336352031477000,2.89447705078125,0.045889612287282944,0.14366775751113892,-0.10404231399297714
1761336352041543000,2.90454296875,0.027247484773397446,0.1570562720298767,-0.14297373592853546
1761336352051610000,2.914610107421875,0.021600322797894478,0.1643599271774292,-0.16943542659282684
1761336352061676000,2.924676025390625,0.019590968266129494,0.14535586535930634,-0.18531133234500885
1761336352071742000,2.934741943359375,0.02447092905640602,0.12204098701477051,-0.18526583909988403
1761336352081809200,2.94480908203125,0.031844690442085266,0.12090568244457245,-0.1740826815366745
1761336352091875000,2.954875,0.04744323343038559,0.1407383680343628,-0.13937421143054962
1761336352101942000,2.96494189453125,0.0737677812576294,0.13791941106319427,-0.08827134966850281
1761336352112008200,2.97500830078125,0.09975176304578781,0.10336804389953613,-0.017302926629781723
1761336352122073900,2.985073974609375,0.13035094738006592,0.06088130176067352,0.05782670900225639
1761336352132140800,2.995140869140625,0.1455060839653015,-0.0016866130754351616,0.1250973790884018
1761336352142207000,3.00520703125,0.1511719524860382,-0.06143622845411301,0.1707005500793457
1761336352152273000,3.01527294921875,0.1417529135942459,-0.09062711894512177,0.2198072224855423
1761336352162339800,3.02533984375,0.12577126920223236,-0.09488098323345184,0.2675076127052307
1761336352172406000,3.035406005859375,0.10057265311479568,-0.07892318814992905,0.3095156252384186
1761336352182473000,3.045472900390625,0.10942526161670685,-0.057024285197257996,0.35014641284942627
1761336352192539000,3.055538818359375,0.1393955796957016,-0.021792802959680557,0.39058440923690796
1761336352202605000,3.06560498046875,0.1345134824514389,0.007866823114454746,0.3879622519016266
1761336352212672000,3.075672119140625,0.12669438123703003,-0.00008820276707410812,0.36231958866119385
1761336352222738000,3.085738037109375,0.15073448419570923,-0.00861138291656971,0.34743359684944153
1761336352232805000,3.09580517578125,0.15839307010173798,0.00449841283261776,0.32267582416534424
1761336352242871000,3.10587109375,0.1544065773487091,0.010362694039940834,0.2874552309513092
1761336352252937000,3.11593701171875,0.13890714943408966,-0.0014087529852986336,0.2333904504776001
1761336352263004200,3.126004150390625,0.134230375289917,0.01131449919193983,0.18022416532039642
1761336352273069800,3.13606982421875,0.13391391932964325,0.07566681504249573,0.12987028062343597
1761336352283137000,3.146136962890625,0.13411444425582886,0.1538657397031784,0.07327011227607727
1761336352293203000,3.156202880859375,0.13743044435977936,0.2105157971382141,0.0081443777307868
1761336352303268900,3.166268798828125,0.13278108835220337,0.22482256591320038,-0.06715037673711777
1761336352313335800,3.176335693359375,0.11778857558965683,0.20858079195022583,-0.16452234983444214
1761336352323402000,3.186402099609375,0.08493821322917938,0.17367446422576904,-0.2767724394798279
1761336352333469000,3.196468994140625,0.056809160858392715,0.12598060071468353,-0.391568660736084
1761336352343534800,3.206534912109375,0.042489077895879745,0.06903689354658127,-0.4663792550563812
1761336352353601000,3.21660107421875,0.05764159932732582,0.023606102913618088,-0.48049402236938477
1761336352363668000,3.22666796875,0.09083549678325653,0.01983799785375595,-0.41500768065452576
1761336352373734000,3.23673388671875,0.13658279180526733,0.05907280743122101,-0.2804640233516693
1761336352383801000,3.246801025390625,0.19821713864803314,0.1168287843465805,-0.10986484587192535
1761336352393867000,3.256866943359375,0.2624114751815796,0.15860658884048462,0.0693715363740921
1761336352403933000,3.266932861328125,0.33487874269485474,0.16775721311569214,0.2246766984462738
1761336352414000000,3.277000244140625,0.3964579403400421,0.15218380093574524,0.33011457324028015
1761336352424066000,3.287066162109375,0.4351416826248169,0.10998042672872543,0.3918519914150238
1761336352434133000,3.297133056640625,0.4464801847934723,0.0703936368227005,0.4191257655620575
1761336352444199200,3.30719921875,0.43248340487480164,0.05156349390745163,0.42199745774269104
1761336352454264800,3.317264892578125,0.40256673097610474,0.029564762488007545,0.4021833837032318
1761336352464331800,3.327331787109375,0.371879905462265,0.0031059924513101578,0.36599770188331604
1761336352474398500,3.3373984375,0.34642359614372253,-0.025380879640579224,0.318665474653244
1761336352484464400,3.34746435546875,0.3215842843055725,-0.04135425388813019,0.261434942483902
1761336352494531300,3.35753125,0.29652202129364014,-0.055791229009628296,0.1977195292711258
1761336352504597500,3.367597412109375,0.26283887028694153,-0.08534033596515656,0.1323586255311966
1761336352514664400,3.37766455078125,0.22740840911865234,-0.11760815232992172,0.09945938736200333
1761336352524730400,3.38773046875,0.18350352346897125,-0.13219109177589417,0.10101573914289474
1761336352534796500,3.397796630859375,0.13181668519973755,-0.11586016416549683,0.14047540724277496
1761336352544863500,3.407863525390625,0.08512427657842636,-0.07235982269048691,0.19992196559906006
1761336352554929400,3.417929443359375,0.048308294266462326,-0.03311818838119507,0.2614262104034424
1761336352564996600,3.42799658203125,0.033387936651706696,-0.0014228429645299911,0.3143405616283417
1761336352575062500,3.4380625,0.035030800849199295,0.04460291936993599,0.3578861951828003
1761336352585128400,3.44812841796875,0.03716026246547699,0.08511971682310104,0.3930068910121918
1761336352595195600,3.458195556640625,0.03817545622587204,0.12432859092950821,0.4145509600639343
1761336352605261300,3.46826123046875,0.033200137317180634,0.15065152943134308,0.4058799743652344
1761336352615328500,3.47832861328125,0.0317874476313591,0.15837766230106354,0.3562379479408264
1761336352625394400,3.48839453125,0.03378481790423393,0.13566063344478607,0.26676690578460693
1761336352635460400,3.49846044921875,0.029976222664117813,0.11240120232105255,0.1646648347377777
1761336352645527300,3.50852734375,0.02828005701303482,0.10372062027454376,0.07608091831207275
1761336352655593500,3.518593505859375,0.015770718455314636,0.09783358871936798,0.004616767168045044
1761336352665660400,3.528660400390625,0.007038479670882225,0.08422483503818512,-0.049531154334545135
1761336352675726300,3.538726318359375,0.0069778356701135635,0.08276940137147903,-0.07626041024923325
1761336352685792500,3.54879248046875,0.017755648121237755,0.0891716405749321,-0.08064477145671844
1761336352695859500,3.558859375,0.02041168138384819,0.09808936715126038,-0.06247437000274658
1761336352705925400,3.56892529296875,0.018339211121201515,0.12658677995204926,-0.04272303730249405
1761336352715991600,3.578991455078125,0.0019911867566406727,0.17431937158107758,-0.02358878031373024
1761336352726058500,3.58905859375,-0.012564053758978844,0.22887688875198364,-0.022970659658312798
1761336352736124400,3.59912451171875,-0.012524974532425404,0.27319464087486267,-0.03330346196889877
1761336352746191600,3.609191650390625,-0.011759315617382526,0.31156066060066223,-0.046371862292289734
1761336352756257500,3.619257568359375,-0.006578630302101374,0.33910420536994934,-0.06290984898805618
1761336352766323500,3.629323486328125,0.0013005980290472507,0.35336917638778687,-0.07959561794996262
1761336352776390700,3.639390625,0.016898617148399353,0.3362244963645935,-0.0871066078543663
1761336352786456300,3.649456298828125,0.040685173124074936,0.28987404704093933,-0.09476638585329056
1761336352796523300,3.659523193359375,0.06127939745783806,0.22708281874656677,-0.10040483623743057
1761336352806589400,3.66958935546875,0.06398703157901764,0.17330613732337952,-0.11009634286165237
1761336352816655400,3.6796552734375,0.0405031219124794,0.1600145399570465,-0.11249879747629166
1761336352826722300,3.689722412109375,0.015795113518834114,0.19804953038692474,-0.09808789938688278
1761336352836788500,3.69978857421875,-0.003738509025424719,0.23950424790382385,-0.05637899786233902
1761336352846855400,3.70985546875,-0.011167395859956741,0.23919028043746948,-0.0053147501312196255
1761336352856921300,3.71992138671875,-0.02538151666522026,0.21659213304519653,0.029074084013700485
1761336352866987500,3.729987548828125,-0.03271479532122612,0.15799672901630402,0.05953638628125191
1761336352877054500,3.740054443359375,-0.040762655436992645,0.08825556933879852,0.07053055614233017
1761336352887120400,3.750120361328125,-0.03873519226908684,0.032245293259620667,0.06300047039985657
1761336352897187600,3.7601875,-0.03070831298828125,-0.004900883883237839,0.038827091455459595
1761336352907253500,3.77025341796875,-0.015007915906608105,-0.032021183520555496,0.013441305607557297
1761336352917319400,3.7803193359375,0.007377836387604475,-0.03611709922552109,-0.004014264326542616
1761336352927386600,3.79038671875,0.04660273343324661,-0.019257158041000366,0.0005085822194814682
1761336352937452300,3.800452392578125,0.06065870076417923,0.020037375390529633,0.01368902437388897
1761336352947519500,3.81051953125,0.09902020543813705,0.009026003070175648,0.05919179692864418
1761336352957585400,3.82058544921875,0.13324081897735596,-0.01218285784125328,0.10694632679224014
1761336352967651300,3.8306513671875,0.16118963062763214,-0.03581228852272034,0.14615178108215332
1761336352977718300,3.84071826171875,0.17560435831546783,-0.05860542505979538,0.1562204360961914
1761336352987784400,3.850784423828125,0.1765279471874237,-0.08466152101755142,0.13226424157619476
1761336352997850400,3.860850341796875,0.16648967564105988,-0.09957267343997955,0.08097424358129501
1761336353007917300,3.870917236328125,0.15660561621189117,-0.0820741057395935,0.025995410978794098
1761336353017983500,3.8809833984375,0.1487865149974823,-0.02363649755716324,-0.03209683671593666
1761336353028050400,3.891050537109375,0.13726593554019928,0.05397147685289383,-0.08626260608434677
1761336353038116400,3.901116455078125,0.12203651666641235,0.1130378246307373,-0.1469590663909912
1761336353048182500,3.9111826171875,0.10477922856807709,0.1464887261390686,-0.20058903098106384
1761336353058249500,3.92124951171875,0.0837736651301384,0.18028858304023743,-0.24634863436222076
1761336353068315400,3.9313154296875,0.0351259708404541,0.24478714168071747,-0.2914753556251526
1761336353078382600,3.941382568359375,0.022444309666752815,0.19702479243278503,-0.2820754051208496
1761336353088448500,3.951448486328125,0.001302005723118782,0.15538041293621063,-0.2636074423789978
1761336353098514400,3.961514404296875,-0.03781909495592117,0.12831030786037445,-0.25714704394340515
1761336353108581600,3.97158154296875,-0.0918722078204155,0.10258523374795914,-0.2537992000579834
1761336353118647300,3.981647216796875,-0.12369745969772339,0.07588987052440643,-0.24836857616901398
1761336353128714200,3.99171435546875,-0.1410682052373886,0.07712957262992859,-0.24313120543956757
1761336353138779400,4.001779296875,-0.1560298353433609,0.09335114061832428,-0.23572547733783722
1761336353148845300,4.01184521484375,-0.18344201147556305,0.10605122148990631,-0.22410956025123596
1761336353158912500,4.02191259765625,-0.22047510743141174,0.1058468222618103,-0.20677980780601501
1761336353168978400,4.031978515625,-0.2698916494846344,0.10853581875562668,-0.1821647435426712
1761336353179045400,4.04204541015625,-0.3084832727909088,0.10129356384277344,-0.1378040313720703
1761336353189111600,4.052111572265625,-0.33396679162979126,0.08633884787559509,-0.09498998522758484
1761336353199177500,4.062177490234375,-0.3393625020980835,0.07666612416505814,-0.0574873648583889
1761336353209244400,4.072244384765625,-0.3333818316459656,0.08846419304609299,-0.03149570897221565
1761336353219310600,4.082310546875,-0.31494444608688354,0.10108603537082672,-0.028270648792386055
1761336353229377500,4.09237744140625,-0.29857826232910156,0.09549393504858017,-0.02938837744295597
1761336353239443500,4.102443359375,-0.2700645625591278,0.08312581479549408,-0.026096679270267487
1761336353249509400,4.11250927734375,-0.24926820397377014,0.0801372155547142,-0.01284239161759615
1761336353259576300,4.122576416015625,-0.2319091111421585,0.08162958174943924,0.009025364182889462
1761336353269642200,4.132642333984375,-0.21422332525253296,0.07078225910663605,0.02734684944152832
1761336353279709400,4.14270947265625,-0.19260148704051971,0.057850681245326996,0.041240252554416656
1761336353289775400,4.152775390625,-0.1865321397781372,0.07752984762191772,0.0332702100276947
1761336353299841300,4.16284130859375,-0.1645626425743103,0.05998587608337402,0.039630137383937836
1761336353309908500,4.172908447265625,-0.12746933102607727,0.0399320088326931,0.05788477510213852
1761336353319974400,4.182974365234375,-0.12373357266187668,0.045382872223854065,0.06535611301660538
1761336353330041300,4.193041259765625,-0.12548671662807465,0.04622656852006912,0.066914863884449
1761336353340107500,4.203107421875,-0.13390937447547913,0.04983372241258621,0.0650012195110321
1761336353350173400,4.21317333984375,-0.14236223697662354,0.047639548778533936,0.04419846832752228
1761336353360240400,4.223240478515625,-0.16447991132736206,0.03818336874246597,0.011087226681411266
1761336353370306600,4.233306640625,-0.19590893387794495,0.036218222230672836,-0.03411167860031128
1761336353380372500,4.24337255859375,-0.23579061031341553,0.03372698649764061,-0.07124686241149902
1761336353390439400,4.253439453125,-0.28082120418548584,0.03259514272212982,-0.1034892201423645
1761336353400505600,4.263505615234375,-0.33311355113983154,0.024092618376016617,-0.13653598725795746
1761336353410572500,4.273572509765625,-0.3956514894962311,0.012026902288198471,-0.17219677567481995
1761336353420638200,4.28363818359375,-0.4435369670391083,-0.007518669590353966,-0.2083122879266739
1761336353430704400,4.293704345703125,-0.47882649302482605,-0.02655068412423134,-0.24185852706432343
1761336353440771300,4.303771240234375,-0.48753949999809265,-0.0380103662610054,-0.2606128752231598
1761336353450837200,4.313837158203125,-0.4828912317752838,-0.025651702657341957,-0.2563888430595398
1761336353460904400,4.323904541015625,-0.4759994149208069,0.0009721377864480019,-0.22444595396518707
1761336353470971000,4.333970947265625,-0.46323835849761963,0.02107980288565159,-0.18472544848918915
1761336353481036800,4.344036865234375,-0.4484803378582001,0.03759756684303284,-0.12957200407981873
1761336353491104000,4.35410400390625,-0.4367824196815491,0.07419898360967636,-0.07387837022542953
1761336353501170000,4.364169921875,-0.42786282300949097,0.0790119469165802,-0.022937532514333725
1761336353511236900,4.37423681640625,-0.42566224932670593,0.08763659000396729,0.014920635148882866
1761336353521303000,4.384302978515625,-0.4186214208602905,0.10220985114574432,0.03179874271154404
1761336353531368700,4.39436865234375,-0.4090777337551117,0.10596171766519547,0.03487975150346756
1761336353541436000,4.404435791015625,-0.39250460267066956,0.09654957056045532,0.02934357337653637
1761336353551501800,4.414501708984375,-0.3744622766971588,0.08359687775373459,0.024468887597322464
1761336353561567700,4.424567626953125,-0.35710805654525757,0.0711817592382431,0.01709752529859543
1761336353571634700,4.434634765625,-0.33836159110069275,0.04959177225828171,0.012849831953644753
1761336353581700900,4.444700927734375,-0.32290834188461304,0.020595809444785118,0.008424723520874977
1761336353591767800,4.454767822265625,-0.3096519112586975,-0.010872848331928253,0.0022617261856794357
1761336353601833700,4.464833740234375,-0.30026108026504517,-0.04296953231096268,-0.008928876370191574
1761336353611900000,4.47489990234375,-0.29947176575660706,-0.07366390526294708,-0.019070787355303764
1761336353621966800,4.484966796875,-0.29893380403518677,-0.10134773701429367,-0.02134086564183235
1761336353632032800,4.49503271484375,-0.2931297719478607,-0.10997810959815979,-0.013019324280321598
1761336353642100000,4.505099853515625,-0.2826787233352661,-0.09559277445077896,0.006849721074104309
1761336353652166000,4.515165771484375,-0.2791956067085266,-0.06697412580251694,0.04166591539978981
1761336353662231800,4.525231689453125,-0.28082969784736633,-0.03658799082040787,0.08086605370044708
1761336353672299000,4.535299072265625,-0.29430562257766724,-0.030970916152000427,0.11969561874866486
1761336353682365000,4.545364990234375,-0.312477707862854,-0.05379101261496544,0.13893136382102966
1761336353692432000,4.555431884765625,-0.3309391736984253,-0.07719376683235168,0.1468343883752823
1761336353702498000,4.565498046875,-0.3471229374408722,-0.08187028020620346,0.13467545807361603
1761336353712563700,4.575563720703125,-0.3660261034965515,-0.08633679896593094,0.11319953203201294
1761336353722630700,4.585630615234375,-0.3812766969203949,-0.08127759397029877,0.08648642897605896
1761336353732696800,4.59569677734375,-0.38886305689811707,-0.07778573036193848,0.06442715972661972
1761336353742763800,4.605763671875,-0.3777422308921814,-0.06615303456783295,0.04193196818232536
1761336353752829700,4.61582958984375,-0.34968021512031555,-0.06704183667898178,0.021560806781053543
1761336353762896000,4.625895751953125,-0.31624794006347656,-0.03458695486187935,0.020719513297080994
1761336353772962800,4.635962890625,-0.29059308767318726,0.013487341813743114,0.03761790320277214
1761336353783028700,4.64602880859375,-0.2864569425582886,0.05369655042886734,0.06132163479924202
1761336353793096000,4.656095947265625,-0.2868313789367676,0.07009279727935791,0.07823354005813599
1761336353803161900,4.666161865234375,-0.28705960512161255,0.0810844674706459,0.0784149020910263
1761336353813227800,4.676227783203125,-0.27372726798057556,0.09118624031543732,0.054220642894506454
1761336353823295000,4.686294921875,-0.26032838225364685,0.08186864107847214,0.0131829297170043
1761336353833361000,4.69636083984375,-0.2313234657049179,0.07558369636535645,-0.037629634141922
1761336353843426800,4.7064267578125,-0.19891546666622162,0.08045142143964767,-0.0743226632475853
1761336353853494000,4.716493896484375,-0.1718691736459732,0.06986549496650696,-0.10145225375890732
1761336353863560000,4.726559814453125,-0.1531255692243576,0.0569521002471447,-0.12094739079475403
1761336353873627000,4.736626953125,-0.13808275759220123,0.0576787143945694,-0.1406908929347992
1761336353883692800,4.74669287109375,-0.13104988634586334,0.060181014239788055,-0.14755572378635406
1761336353893758700,4.7567587890625,-0.12068810313940048,0.058263957500457764,-0.14551526308059692
1761336353903825700,4.76682568359375,-0.11359583586454391,0.04968032240867615,-0.12827716767787933
1761336353913891800,4.776891845703125,-0.0995275229215622,0.03865296393632889,-0.09537242352962494
1761336353923958800,4.786958740234375,-0.08958780020475388,0.04743713513016701,-0.04244982451200485
1761336353934024700,4.797024658203125,-0.0852057933807373,0.05737536400556564,0.015939775854349136
1761336353944091000,4.8070908203125,-0.08857575803995132,0.052164092659950256,0.06450039148330688
1761336353954157800,4.81715771484375,-0.09089591354131699,0.04565693438053131,0.08710075169801712
1761336353964223700,4.8272236328125,-0.09121868759393692,0.03423676639795303,0.09262601286172867
1761336353974291000,4.837291015625,-0.09236758202314377,0.010455229319632053,0.09212950617074966
1761336353984356900,4.84735693359375,-0.09853066504001617,-0.0014781299978494644,0.08695471286773682
1761336353994423000,4.857423095703125,-0.10714814066886902,-0.010422462597489357,0.09290483593940735
1761336354004490000,4.867489990234375,-0.12097287178039551,-0.022639447823166847,0.10103573650121689
1761336354014556000,4.877555908203125,-0.13586574792861938,-0.03887274116277695,0.10396874696016312
1761336354024622800,4.887622802734375,-0.14398784935474396,-0.05140824243426323,0.10445024073123932
1761336354034689000,4.89768896484375,-0.15519264340400696,-0.05729779973626137,0.09434185177087784
1761336354044754700,4.907754638671875,-0.16286174952983856,-0.057520441710948944,0.07163920253515244
1761336354054822000,4.91782177734375,-0.17360670864582062,-0.05104441940784454,0.039413563907146454
1761336354064887800,4.9278876953125,-0.17863130569458008,-0.03556399792432785,0.0053927479311823845
1761336354074954800,4.937954833984375,-0.18711654841899872,-0.02045605145394802,-0.028801294043660164
1761336354085020700,4.948020751953125,-0.18941646814346313,-0.008745599538087845,-0.06089531257748604
1761336354095086800,4.9580869140625,-0.18847744166851044,-0.005639644805341959,-0.08806241303682327
1761336354105153800,4.96815380859375,-0.1776580810546875,-0.0026678238064050674,-0.11071047186851501
1761336354115219700,4.9782197265625,-0.16753149032592773,-0.00973077304661274,-0.14197315275669098
1761336354125286000,4.988285888671875,-0.15402740240097046,-0.022937655448913574,-0.1700790822505951
1761336354135352800,4.998352783203125,-0.13860391080379486,-0.05360454320907593,-0.194996178150177
1761336354145419000,5.0084189453125,-0.11256538331508636,-0.06661541014909744,-0.20595082640647888
1761336354155486000,5.01848583984375,-0.08104217052459717,-0.08629485964775085,-0.1967221200466156
1761336354165551900,5.0285517578125,-0.05055403709411621,-0.08934763073921204,-0.14903928339481354
1761336354175618000,5.0386181640625,-0.04243350401520729,-0.04195340722799301,-0.07856597006320953
1761336354185685000,5.04868505859375,-0.05053936690092087,0.020643126219511032,-0.008206586353480816
1761336354195751000,5.0587509765625,-0.06937733292579651,0.0684196949005127,0.03954660892486572
1761336354205817900,5.06881787109375,-0.08353283256292343,0.1019081398844719,0.07380364835262299
1761336354215883800,5.0788837890625,-0.09878168255090714,0.11359822750091553,0.08219847083091736
1761336354225949700,5.08894970703125,-0.12435788661241531,0.12369586527347565,0.06936576217412949
1761336354236016600,5.0990166015625,-0.12436489015817642,0.0795435979962349,0.05980970710515976
1761336354246082800,5.109082763671875,-0.11097557842731476,0.017444010823965073,0.03861600533127785
1761336354256149800,5.119149658203125,-0.11894121766090393,-0.006537634879350662,-0.000055209267884492874
1761336354266215700,5.129215576171875,-0.1299366056919098,-0.035321079194545746,-0.039768267422914505
1761336354276281900,5.13928173828125,-0.13828608393669128,-0.0508660227060318,-0.07121805846691132
1761336354286348800,5.149348876953125,-0.13912098109722137,-0.057953499257564545,-0.08068932592868805
1761336354296415000,5.1594150390625,-0.1445184051990509,-0.07346763461828232,-0.080753855407238
1761336354306481000,5.16948095703125,-0.1509382277727127,-0.09101653844118118,-0.06735256314277649
1761336354316547800,5.1795478515625,-0.14407575130462646,-0.07108377665281296,-0.026615286245942116
1761336354326614000,5.189614013671875,-0.13966529071331024,-0.03572365641593933,0.014706321060657501
1761336354336681000,5.199680908203125,-0.14089542627334595,-0.02007974311709404,0.036689795553684235
1761336354346747000,5.209746826171875,-0.1473139077425003,-0.021682700142264366,0.034162987023591995
1761336354356813000,5.21981298828125,-0.15155816078186035,-0.023530054837465286,0.0133351506665349
1761336354366880000,5.2298798828125,-0.15324766933918,-0.02818259596824646,-0.012570749036967754
1761336354376945700,5.239945556640625,-0.1496557593345642,-0.03465987741947174,-0.04123670607805252
1761336354387012900,5.250012939453125,-0.14270783960819244,-0.03929617628455162,-0.054019078612327576
1761336354397078800,5.260078857421875,-0.13046938180923462,-0.03168784826993942,-0.0643300861120224
1761336354407144700,5.270144775390625,-0.11913550645112991,-0.027488842606544495,-0.063016876578331
1761336354417211600,5.280211669921875,-0.10680270940065384,-0.02040548250079155,-0.06561751663684845
1761336354427277800,5.29027783203125,-0.0850641280412674,-0.0005223210901021957,-0.05850847437977791
1761336354437344800,5.3003447265625,-0.06153356283903122,0.013757865875959396,-0.05114348232746124
1761336354447411000,5.310410888671875,-0.03907006233930588,0.023908769711852074,-0.046778563410043716
1761336354457476900,5.320476806640625,-0.012891888618469238,0.025899548083543777,-0.04386768490076065
1761336354467543800,5.330543701171875,0.004398684483021498,0.01725572533905506,-0.04292039945721626
1761336354477609700,5.340609619140625,0.011462941765785217,0.008956401608884335,-0.047427061945199966
1761336354487676700,5.3506767578125,0.01690351404249668,0.0024199383333325386,-0.05690338835120201
1761336354497742600,5.36074267578125,0.022494446486234665,0.0012685386463999748,-0.06861397624015808
1761336354507808800,5.370808837890625,0.03400382772088051,0.012541431933641434,-0.07666124403476715
1761336354517875700,5.380875732421875,0.04653875157237053,0.016199976205825806,-0.09072653204202652
1761336354527941600,5.390941650390625,0.05775199085474014,0.016630874946713448,-0.09244906157255173
1761336354538007600,5.401007568359375,0.0693446472287178,0.010641731321811676,-0.09351125359535217
1761336354548074500,5.411074462890625,0.0815533772110939,-0.005877857096493244,-0.08972157537937164
1761336354558140400,5.421140380859375,0.09772080928087234,-0.011858228594064713,-0.07410889863967896
1761336354568207600,5.43120751953125,0.10525836050510406,-0.01202494278550148,-0.05228642001748085
1761336354578273500,5.4412734375,0.11279091238975525,-0.003027789294719696,-0.025481432676315308
1761336354588339500,5.45133935546875,0.11620987951755524,0.01855659857392311,-0.00491596944630146
1761336354598406700,5.46140673828125,0.11765237152576447,0.03978794068098068,-0.0027083144523203373
1761336354608472600,5.47147265625,0.11079499870538712,0.04784826561808586,-0.019766127690672874
1761336354618539500,5.48153955078125,0.09964403510093689,0.052626173943281174,-0.04891305789351463
1761336354628605700,5.491605712890625,0.08863505721092224,0.06072245165705681,-0.07120984047651291
1761336354638671600,5.501671630859375,0.07844109833240509,0.06221139430999756,-0.08927234262228012
1761336354648738600,5.511738525390625,0.0790693387389183,0.05391032248735428,-0.10540151596069336
1761336354658804700,5.5218046875,0.07512421905994415,0.04066557064652443,-0.12356174737215042
1761336354668871700,5.53187158203125,0.07974187284708023,-0.006935769692063332,-0.1497827023267746
1761336354678937600,5.5419375,0.09329645335674286,-0.05611373856663704,-0.16895674169063568
1761336354689003800,5.552003662109375,0.11529895663261414,-0.0963868647813797,-0.16964250802993774
1761336354699070700,5.56207080078125,0.1421763300895691,-0.09595239162445068,-0.14565928280353546
1761336354709136400,5.572136474609375,0.1483583301305771,-0.06703899055719376,-0.09293802082538605
1761336354719202600,5.58220263671875,0.1466372013092041,-0.0455579049885273,-0.038096945732831955
1761336354729269500,5.59226953125,0.1365416944026947,-0.01998410001397133,0.01232335064560175
1761336354739335400,5.60233544921875,0.11847198009490967,0.012262796983122826,0.0584481805562973
1761336354749402600,5.612402587890625,0.10241098701953888,0.040180183947086334,0.09146977961063385
1761336354759468500,5.622468505859375,0.08085731416940689,0.0624561533331871,0.11369345337152481
1761336354769534500,5.632534423828125,0.06295740604400635,0.06886585056781769,0.11860539019107819
1761336354779601700,5.6426015625,0.050849445164203644,0.038430508226156235,0.10104481130838394
1761336354789667600,5.65266748046875,0.037908878177404404,-0.006879182532429695,0.08041489869356155
1761336354799734500,5.662734619140625,0.022892309352755547,-0.0608973428606987,0.056881338357925415
1761336354809800700,5.67280078125,-0.0034663272090256214,-0.14473313093185425,0.037029337137937546
1761336354819866600,5.68286669921875,-0.01746421866118908,-0.1833331435918808,0.02705537900328636
1761336354829933600,5.69293359375,-0.010135732591152191,-0.20367570221424103,0.029798168689012527
1761336354839999700,5.702999755859375,0.007841885089874268,-0.20713290572166443,0.024514302611351013
1761336354850065700,5.713065673828125,0.0214032344520092,-0.1997508853673935,0.007173393853008747
1761336354860132600,5.723132568359375,0.015731360763311386,-0.1988583207130432,-0.025132091715931892
1761336354870198500,5.733198486328125,-0.003415169194340706,-0.2029300332069397,-0.0796978622674942
1761336354880265700,5.743265625,-0.025774367153644562,-0.1769074946641922,-0.14339236915111542
1761336354890331400,5.753331298828125,-0.05343342199921608,-0.15256966650485992,-0.21215838193893433
1761336354900397600,5.7633974609375,-0.06452246755361557,-0.13697631657123566,-0.2908868193626404
1761336354910464500,5.773464599609375,-0.0630718395113945,-0.17505818605422974,-0.37308475375175476
1761336354920530400,5.783530517578125,-0.047834768891334534,-0.2327495664358139,-0.43200990557670593
1761336354930597600,5.79359765625,-0.023100659251213074,-0.2830931544303894,-0.47295016050338745
1761336354940663600,5.80366357421875,0.028149794787168503,-0.35347846150398254,-0.4945884644985199
1761336354950729700,5.813729736328125,0.061988186091184616,-0.3886444568634033,-0.4879835546016693
1761336354960796700,5.823796630859375,0.0748063251376152,-0.39088234305381775,-0.4865972697734833
1761336354970862600,5.833862548828125,0.055375900119543076,-0.42488184571266174,-0.4894726872444153
1761336354980928800,5.8439287109375,0.03274494782090187,-0.41994041204452515,-0.46422088146209717
1761336354990995700,5.85399560546875,0.0012187142856419086,-0.3233800530433655,-0.40284034609794617
1761336355001061600,5.8640615234375,-0.0456649474799633,-0.2272488921880722,-0.33110105991363525
1761336355011128600,5.874128662109375,-0.05135638639330864,-0.16204112768173218,-0.27068406343460083
1761336355021194800,5.88419482421875,-0.10193054378032684,-0.08038096874952316,-0.23044340312480927
1761336355031260400,5.894260498046875,-0.129227414727211,-0.0859895870089531,-0.1889079511165619
1761336355041327600,5.90432763671875,-0.09805212914943695,-0.10129828006029129,-0.15535053610801697
1761336355051393500,5.9143935546875,-0.11553072184324265,-0.08688738197088242,-0.14402198791503906
1761336355061460500,5.92446044921875,-0.130135640501976,-0.09314385801553726,-0.13347889482975006
1761336355071526400,5.9345263671875,-0.1368023306131363,-0.12338991463184357,-0.14540693163871765
1761336355081592600,5.944592529296875,-0.060887470841407776,-0.15406598150730133,-0.15438269078731537
1761336355091659500,5.954659423828125,-0.06673470884561539,-0.13818074762821198,-0.16646412014961243
1761336355101725700,5.9647255859375,-0.09106868505477905,-0.15422965586185455,-0.15393805503845215
1761336355111792600,5.974792724609375,-0.0544947013258934,-0.18375292420387268,-0.1336658000946045
1761336355121858600,5.984858642578125,-0.0812702476978302,-0.1537531018257141,-0.11872944980859756
1761336355131924700,5.9949248046875,-0.10912185162305832,-0.12295950204133987,-0.11380180716514587
1761336355141991700,6.00499169921875,-0.13275964558124542,-0.12274009734392166,-0.1259501427412033
1761336355152057600,6.0150576171875,-0.1498883068561554,-0.11344247311353683,-0.1490839570760727
1761336355162123800,6.025123779296875,-0.15461145341396332,-0.0991630032658577,-0.1697748899459839
1761336355172190700,6.035190673828125,-0.1379813402891159,-0.08846588432788849,-0.18223875761032104
1761336355182256600,6.045256591796875,-0.10842008143663406,-0.08812074363231659,-0.17366838455200195
1761336355192323600,6.055323486328125,-0.06452879309654236,-0.08399657160043716,-0.13916553556919098
1761336355202389800,6.0653896484375,-0.0216937568038702,-0.08868544548749924,-0.09076797962188721
1761336355212455400,6.075455322265625,0.05857791379094124,-0.13359779119491577,-0.04162067174911499
1761336355222522600,6.085522705078125,0.08431848138570786,-0.11288382858037949,-0.017722640186548233
1761336355232588500,6.095588623046875,0.0886881947517395,-0.0767199695110321,0.005082541145384312
1761336355242655500,6.105655517578125,0.07492560148239136,-0.058591872453689575,0.012292908504605293
1761336355252721700,6.1157216796875,0.05708322301506996,-0.03888607770204544,-0.0009027882479131222
1761336355262787600,6.12578759765625,0.04979592561721802,-0.0045467037707567215,-0.016343655064702034
1761336355272854500,6.1358544921875,0.0390135832130909,0.035141587257385254,-0.03534024953842163
1761336355282920700,6.145920654296875,0.038468942046165466,0.07226437330245972,-0.0463438406586647
1761336355292987600,6.155987548828125,0.04157391935586929,0.06788773089647293,-0.055615369230508804
1761336355303053600,6.166053466796875,0.04848390817642212,0.029071267694234848,-0.05895327031612396
1761336355313119700,6.17611962890625,0.05931338295340538,-0.021193500608205795,-0.047656141221523285
1761336355323186700,6.186186767578125,0.07693299651145935,-0.03564869612455368,-0.02354510873556137
1761336355333252600,6.196252685546875,0.07655695825815201,-0.029104512184858322,-0.013547602109611034
1761336355343318800,6.20631884765625,0.053007300943136215,-0.03634978458285332,0.003489450551569462
1761336355353385700,6.2163857421875,0.01518934965133667,-0.05558047443628311,0.0052023958414793015
1761336355363451600,6.22645166015625,-0.020813917741179466,-0.05808538943529129,-0.0057023572735488415
1761336355373518600,6.2365185546875,-0.048899080604314804,-0.03624879941344261,-0.01654914580285549
1761336355383584500,6.24658447265625,-0.06584977358579636,-0.025380564853549004,-0.021280068904161453
1761336355393650400,6.256650390625,-0.0658646821975708,-0.03022085875272751,-0.02775155007839203
1761336355403717600,6.266717529296875,-0.04985946789383888,-0.027178768068552017,-0.018342409282922745
1761336355413783600,6.276783447265625,-0.026654016226530075,-0.014762313105165958,0.007734998129308224
1761336355423850500,6.2868505859375,-0.01711280271410942,-0.02108093909919262,0.04449865594506264
1761336355433916700,6.296916748046875,-0.010511890985071659,-0.03553710877895355,0.07985798269510269
1761336355443982600,6.306982666015625,-0.007201135624200106,-0.0386657640337944,0.12360294163227081
1761336355454049500,6.317049560546875,-0.003731303382664919,-0.023689741268754005,0.1538332849740982
1761336355464115700,6.32711572265625,-0.0012389612384140491,-0.0031486162915825844,0.1734904646873474
1761336355474182000,6.337181884765625,-0.006609225180000067,0.008974891155958176,0.18730267882347107
1761336355484248800,6.347248779296875,-0.0046996804885566235,0.022719141095876694,0.19135786592960358
1761336355494315000,6.35731494140625,0.0023800665512681007,0.0728273093700409,0.19604769349098206
1761336355504382000,6.3673818359375,0.018665505573153496,0.11917063593864441,0.1962120234966278
1761336355514448000,6.37744775390625,0.022832820191979408,0.13607318699359894,0.18351192772388458
1761336355524514000,6.38751416015625,0.02610299177467823,0.12097011506557465,0.1570199877023697
1761336355534581000,6.3975810546875,0.03204130753874779,0.09734361618757248,0.13153965771198273
1761336355544646700,6.407646728515625,0.03832624852657318,0.08054430037736893,0.10443437099456787
1761336355554713900,6.4177138671875,0.0422392301261425,0.05537530034780502,0.07583335787057877
1761336355564779800,6.42777978515625,0.03743787482380867,0.03854113072156906,0.05061400681734085
1761336355574845700,6.437845703125,0.03462690860033035,0.01280140969902277,0.026511868461966515
1761336355584913000,6.447912841796875,0.03202831745147705,-0.008694200776517391,0.01310540921986103
1761336355594978800,6.457978759765625,0.037722423672676086,-0.011778407730162144,0.0025092242285609245
1761336355605045800,6.468045654296875,0.04991966485977173,-0.014672854915261269,-0.01561842579394579
1761336355615112000,6.47811181640625,0.067214235663414,-0.021859927102923393,-0.02726762369275093
1761336355625177900,6.488177734375,0.07297675311565399,-0.023989256471395493,-0.034735433757305145
1761336355635244800,6.498244873046875,0.07393442839384079,-0.019499698653817177,-0.02958514541387558
1761336355645311000,6.50831103515625,0.06445889919996262,-0.012923821806907654,-0.027826927602291107
1761336355655377000,6.518376953125,0.05861563980579376,0.0021944260224699974,-0.02619336172938347
1761336355665443800,6.52844384765625,0.06091659888625145,0.012658420950174332,-0.03474975749850273
1761336355675510000,6.538510009765625,0.06742936372756958,0.01211060956120491,-0.04507243633270264
1761336355685577000,6.548576904296875,0.07144588232040405,-0.005734046455472708,-0.04607103765010834
1761336355695643000,6.558642822265625,0.06984132528305054,-0.014825013466179371,-0.02273082360625267
1761336355705708800,6.568708740234375,0.06587686389684677,-0.00714922696352005,0.01763221248984337
1761336355715776000,6.57877587890625,0.05576830357313156,0.0036147376522421837,0.07326138019561768
1761336355725841700,6.588841552734375,0.04204728454351425,0.019035065546631813,0.11664976179599762
1761336355735908900,6.598908935546875,0.04173383116722107,0.05080018192529678,0.13145029544830322
1761336355745974800,6.608974853515625,0.03771855682134628,0.07267557084560394,0.12779434025287628
1761336355756040700,6.619040771484375,0.0288022942841053,0.07262630760669708,0.10519503057003021
1761336355766108000,6.62910791015625,0.01590842753648758,0.0607830211520195,0.07611121982336044
1761336355776173800,6.639173828125,0.0023907539434731007,0.05004382133483887,0.05251801013946533
1761336355786240800,6.64924072265625,-0.010994575917720795,0.030805598944425583,0.030169090256094933
1761336355796307000,6.659306884765625,-0.016463110223412514,0.011825784109532833,0.01841496303677559
1761336355806372900,6.669372802734375,-0.024191072210669518,-0.0036818021908402443,0.02449762262403965
1761336355816439800,6.679439697265625,-0.027983680367469788,-0.011095510795712471,0.0360080748796463
1761336355826506000,6.689506103515625,-0.02872340939939022,-0.020607244223356247,0.04921090975403786
1761336355836572000,6.699572021484375,-0.024113478139042854,-0.02766302414238453,0.05902012810111046
1761336355846638800,6.709638916015625,-0.025036832317709923,-0.017468251287937164,0.08319155126810074
1761336355856705000,6.719705078125,-0.03582929074764252,-0.0018490776419639587,0.09847863018512726
1761336355866772000,6.72977197265625,-0.046443309634923935,0.02447359822690487,0.1201021745800972
1761336355876838000,6.739837890625,-0.04895014315843582,0.04573121666908264,0.13174471259117126
1761336355886903800,6.74990380859375,-0.04694444313645363,0.058521293103694916,0.13165614008903503
1761336355896970800,6.759970703125,-0.02745090052485466,0.05749357491731644,0.12346293032169342
1761336355907036700,6.77003662109375,-0.010893607512116432,0.06246564909815788,0.0965079516172409
1761336355917103900,6.780103759765625,0.005542622413486242,0.06506995856761932,0.07328304648399353
1761336355927169800,6.790169677734375,0.0150010846555233,0.06020074710249901,0.055222537368535995
1761336355937235700,6.800235595703125,0.02882981486618519,0.045987989753484726,0.04839419573545456
1761336355947303000,6.810302978515625,0.04422878473997116,0.04027143865823746,0.04792400822043419
1761336355957368800,6.820368896484375,0.05308832228183746,0.0408855602145195,0.06482335925102234
1761336355967435000,6.83043505859375,0.0619046576321125,0.06138157099485397,0.08733614534139633
1761336355977502000,6.840501953125,0.06268150359392166,0.08885180950164795,0.0998000055551529
1761336355987567900,6.85056787109375,0.06028633937239647,0.10726839303970337,0.09953068941831589
1761336355997634800,6.860634765625,0.05284173786640167,0.13224191963672638,0.08518610894680023
1761336356007701000,6.870700927734375,0.050317373126745224,0.1315637230873108,0.06707960367202759
1761336356017767000,6.880766845703125,0.04132147878408432,0.1040431559085846,0.04976026341319084
1761336356027833900,6.890833740234375,0.039242055267095566,0.106296107172966,0.03243965283036232
1761336356037899800,6.900899658203125,0.039837270975112915,0.10400499403476715,0.04067867621779442
1761336356047967000,6.910967041015625,0.04616799205541611,0.08606070280075073,0.06158971041440964
1761336356058032600,6.92103271484375,0.06140660122036934,0.05240074545145035,0.08204305171966553
1761336356068098800,6.931098876953125,0.08823858201503754,0.061491236090660095,0.08241088688373566
1761336356078165800,6.941165771484375,0.04259839653968811,0.1582084596157074,0.22790202498435974
1761336356088231700,6.951231689453125,-0.02926865592598915,0.03645949065685272,0.19418147206306458
1761336356098297900,6.9612978515625,-0.028888355940580368,-0.017791762948036194,0.14198057353496552
1761336356108364800,6.97136474609375,0.011451300233602524,-0.0728178471326828,0.11160024255514145
1761336356118431000,6.981430908203125,0.04459593817591667,-0.07804350554943085,0.08635267615318298
1761336356128498000,6.991497802734375,0.03758165240287781,-0.06222209334373474,0.044691093266010284
1761336356138563800,7.001563720703125,0.004065504297614098,-0.08227622509002686,-0.012257145717740059
1761336356148630000,7.011630126953125,-0.02829490229487419,-0.10289648175239563,-0.058130893856287
1761336356158697000,7.021697021484375,-0.03802875429391861,-0.039203520864248276,-0.04102328047156334
1761336356168763000,7.031762939453125,-0.06919869035482407,0.04126296192407608,0.01158236339688301
