time,seconds_elapsed,z,y,x
1761391665330347500,0.077347412109375,0.3607727555334568,0.18296587286591529,-0.13179386750068514
1761391665340413700,0.08741357421875,0.32404724520444866,0.21919833898097277,-0.03609724976229481
1761391665350479600,0.097479736328125,0.5106681334465741,0.2202767818674445,-0.03630723011801019
1761391665360545500,0.107545654296875,0.5905740293323993,0.07551262936294079,0.0042983821805100885
1761391665370612700,0.11761279296875,0.3861620483338833,0.07743424507528543,0.007236426660092547
1761391665380678700,0.1276787109375,0.20159867714345453,0.12600816023871303,0.12485031370678916
1761391665390744600,0.13774462890625,0.06828326263129711,0.019945786572247742,0.20123411814738063
1761391665400810800,0.147810791015625,0.04797346505224705,-0.010662848311662674,0.3169648857280612
1761391665410876400,0.15787646484375,0.10321487528085709,-0.009095891255885362,0.44030543419271706
1761391665420942600,0.167942626953125,0.1718985354065895,-0.02040375947281718,0.44222204493638123
1761391665431008500,0.178008544921875,0.2512923901170492,-0.02543240128979087,0.44955808691289273
1761391665441075500,0.188075439453125,0.2899181811094284,-0.0780760501101613,0.47582069194912907
1761391665451141600,0.1981416015625,0.32208734330832955,-0.11145517262071371,0.41946247958503663
1761391665461207600,0.20820751953125,0.35957448565959926,-0.11044584944769739,0.3093325642187148
1761391665471274500,0.2182744140625,0.374758026266098,-0.08472615564912557,0.1898352654450573
1761391665481340400,0.22834033203125,0.32905367518961426,-0.051473582127690314,0.15419205219373106
1761391665491406300,0.23840625,0.17607962048351763,-0.045548722123354674,0.11646003170330077
1761391665501473500,0.2484736328125,-0.05745674819052219,-0.06917495077401399,0.0470401662575081
1761391665511539500,0.25853955078125,-0.28818741179406643,-0.046958588921278716,-0.04388404031414538
1761391665521605400,0.26860546875,-0.3470955278366804,0.15045841862335801,-0.04076638321764767
1761391665531671300,0.27867138671875,-0.22817221129238605,0.33564825114905833,-0.04927479344177991
1761391665541737200,0.2887373046875,-0.10449147108793258,0.36796442060321566,-0.056724780654162164
1761391665551803400,0.298803466796875,-0.03833586813509464,0.2764979969136417,-0.16212649845480917
1761391665561869300,0.308869384765625,-0.12987901032269,0.18269553149193524,-0.3289388897035271
1761391665571936300,0.318936279296875,-0.5443003539353609,0.027899960447102783,-0.640428558890894
1761391665582002400,0.32900244140625,-0.5703033947199583,-0.11314371022954582,-0.5917496124504134
1761391665592068400,0.339068359375,-0.12544658083319662,-0.316387085840106,-0.5287333669692278
1761391665602134500,0.349134521484375,-0.3226689425885677,-0.44720147731676696,-0.3704381172403693
1761391665612200200,0.3592001953125,-0.42979719192087645,-0.5897977842628955,-0.262617574794963
1761391665622266400,0.369266357421875,-0.34035832853615283,-0.7766716243527829,-0.11536670177495106
1761391665632332300,0.379332275390625,0.005300444495677948,-0.8032119868844747,0.18470621372722087
1761391665642399200,0.389399169921875,0.33879707056879993,-0.8657818403050302,0.5420907881271094
1761391665652465400,0.39946533203125,0.42566754477024077,-1.0245943919062614,0.7821057782307267
1761391665662531300,0.40953125,0.21787176655232904,-1.082242278754711,0.7803983167257159
1761391665672597500,0.419597412109375,-0.10598726260364055,-1.022937272349,0.7470479088529944
1761391665682663400,0.429663330078125,-0.2979232083886862,-0.9946141180537641,0.7476878141917288
1761391665692729600,0.4397294921875,-0.23691607424020766,-0.9338792249754071,0.6271122003957629
1761391665702795300,0.449795166015625,-0.032433950614929194,-0.7968024121031164,0.44991449913512915
1761391665712862500,0.459862548828125,0.05797872623801231,-0.7720747980818152,0.4126061108842492
1761391665722928400,0.469928466796875,-0.03318389219939708,-0.8577604464128613,0.38263307049013673
1761391665732994300,0.479994384765625,-0.25894611974060533,-0.9452233335494995,0.0947568435370922
1761391665743060200,0.490060302734375,-0.5480728582113981,-0.9149493374474346,-0.23043730668015777
1761391665753126400,0.50012646484375,-0.8825742774128913,-0.8310860822379589,-0.2991806611038744
1761391665763192300,0.5101923828125,-1.1810048508018254,-0.7163315758109092,-0.3021453561283648
1761391665773259500,0.520259521484375,-1.3790852906912565,-0.46115079995319247,-0.28020803041271863
1761391665783325400,0.530325439453125,-1.450735983929038,-0.2103393252208829,-0.29270547374039885
1761391665793391400,0.540391357421875,-1.3742173923939465,-0.07129873799495398,-0.2632099146649241
1761391665803457300,0.550457275390625,-1.279955638897419,-0.001822612317278981,-0.30181086347699165
1761391665813523200,0.560523193359375,-0.9815794260442257,0.05596205265335738,-0.24834917627200484
1761391665823589400,0.57058935546875,-0.4445587077230215,0.0963290612898767,-0.15188340992517768
1761391665833655300,0.5806552734375,0.19660861377120017,0.024694588534533976,0.00012684125006198882
1761391665843722200,0.59072216796875,0.8291559909582138,-0.05118482831418514,0.10779979191832244
1761391665853788400,0.600788330078125,1.1485872667998074,-0.16163330811038612,0.11953699146322905
1761391665863854300,0.610854248046875,1.224296295517683,-0.22763620471954343,0.06364310867525637
1761391665873920500,0.62092041015625,1.2538818709641695,-0.2800140422105789,0.06042794602103531
1761391665883986400,0.630986328125,1.1902028872579336,-0.446578376982361,0.02009374367557466
1761391665894052400,0.64105224609375,0.7393623227864503,-0.5246884754925966,-0.17274631134234367
1761391665904118300,0.6511181640625,0.5422767391532659,-0.43523368388637895,-0.03550648992806673
1761391665914185200,0.661185302734375,0.5884878707081079,-0.4634764664217829,0.412554746023193
1761391665924251400,0.67125146484375,0.7186568038880825,-0.4787161211296916,0.6736326170954853
1761391665934317300,0.6813173828125,0.8312310436666012,-0.3231232622273266,0.930231881448999
1761391665944383500,0.691383544921875,0.7788800941824913,-0.2940050120316446,1.1740198142200708
1761391665954449400,0.701449462890625,0.4355336897462606,-0.2991865063227713,1.2313619961202145
1761391665964515300,0.711515380859375,-0.2262695925414562,-0.17598901959061622,0.968278118987754
1761391665974581500,0.72158154296875,-1.4886474891722201,-0.12496639610081911,0.37470023166425526
1761391665984648400,0.7316484375,-2.981132364550233,0.062305941787362096,-0.12905293476209043
1761391665994714400,0.74171435546875,-4.058075952374935,0.6531924711350351,-0.020462503922730683
1761391666004780300,0.7517802734375,-4.495528042963147,1.3078911090493202,0.532544668885693
1761391666014846200,0.76184619140625,-4.401008515313268,1.6829503102190793,1.0194047873739152
1761391666024912400,0.771912353515625,-3.7504602020114657,1.8223548353865742,1.1911395835861562
1761391666034978300,0.781978271484375,-2.744186479693651,1.701340391781926,1.1993028701670467
1761391666045044500,0.79204443359375,-1.7243237924844026,1.3423228093527257,0.9655654990281909
1761391666055111400,0.802111328125,-1.0757985094428062,0.9391747010350227,0.5373366524025798
1761391666065177300,0.81217724609375,-0.7966127347499131,0.5941632859960198,0.03720313777811825
1761391666075243500,0.822243408203125,-0.6473363655179739,0.38275764671787615,-0.3194187816862017
1761391666085309200,0.83230908203125,-0.5147422510176897,0.2831998326398432,-0.43438627327680585
1761391666095375400,0.842375244140625,-0.3818856861889362,0.2699668415792286,-0.43191155372634527
1761391666105441300,0.852441162109375,-0.15598083530664444,0.38156668336763977,-0.3543689529057592
1761391666115508200,0.86250830078125,0.2378805353581905,0.5034074947938323,-0.18864589126370845
1761391666125574400,0.872574462890625,0.7064420499593019,0.48058586052432656,-0.010837401160970329
1761391666135640300,0.882640380859375,0.47644028515219683,0.11320581568032502,-0.7484736308071762
1761391666145706500,0.89270654296875,-0.19278408704698086,-1.1240906850554049,-2.702134221383929
1761391666155772400,0.9027724609375,1.039705451798439,-1.1315092907488344,-2.025193575718999
1761391666165838600,0.912838623046875,1.6484803237318992,-0.5965088262088597,-2.054806477563828
1761391666175904300,0.922904296875,1.5013666854918002,-0.5343639202021062,-2.2636161089994014
1761391666185971200,0.93297119140625,1.2774427792936562,-0.5317834021896124,-1.9493099210865794
1761391666196037400,0.943037353515625,0.8363491173326969,-0.6317905674703419,-2.1701500359252095
1761391666206103300,0.953103271484375,0.6976105087280273,-0.6977971173413098,-2.2636180086955426
1761391666216169500,0.96316943359375,0.9167436735183,-0.5082037891596556,-1.4265784248806535
1761391666226235400,0.9732353515625,0.7175017886340618,-0.01613441159054637,-0.45228908277936275
1761391666236301300,0.98330126953125,0.2688607800334692,0.45682066179439423,-0.05363960105516016
1761391666246367500,0.993367431640625,-0.028704700958728787,0.5573737705200911,-0.11992036475762724
1761391666256434400,1.003434326171875,-0.08815291522741317,0.4273097590193152,-0.23511355486288665
1761391666266500400,1.013500244140625,0.16155717413425444,0.3596661094658077,-0.2909789422087371
1761391666276566300,1.023566162109375,0.6054495269030332,0.370993559166044,-0.28628647354356945
1761391666286632200,1.033632080078125,0.927954218840599,0.3533212704837322,-0.13949315329901874
1761391666296698400,1.043698486328125,0.884195741134882,0.3508260926671326,0.009731120419502257
1761391666306764300,1.053764404296875,0.6438771649748086,0.4503820070490241,0.0745818513188511
1761391666316830500,1.06383056640625,0.4159235648691654,0.6327243411891162,0.13225626084804534
1761391666326897400,1.0738974609375,0.2178478011548519,0.7150469428278505,0.17064174027852713
1761391666336963300,1.08396337890625,-0.06263385856747627,0.7122557046741247,0.13693937716297805
1761391666347029500,1.094029541015625,-0.4339443747282028,0.7070202882386744,0.009152151487767695
1761391666357095400,1.104095458984375,-0.6338064373373985,0.7386709795214236,-0.16199527329057453
1761391666367161300,1.114161376953125,-0.5108721315860748,0.7383212893009186,-0.16389759978055954
1761391666377227300,1.124227294921875,-0.24127193136215208,0.6112058984726667,-0.03751271518394351
1761391666387293400,1.13429345703125,0.08814239383339881,0.5809422776341437,-0.10684219893254339
1761391666397360400,1.1443603515625,0.31396541165113445,0.576617107911408,-0.1699123300254345
1761391666407426300,1.15442626953125,0.39179567030668255,0.46001609683483835,-0.11492898621112108
1761391666417492500,1.164492431640625,0.8606342482835054,0.3019935265675187,0.0015477408986538648
1761391666427558400,1.174558349609375,0.9726064305156469,0.3373739058978855,0.020788374876230954
1761391666437624600,1.18462451171875,0.4443202227920294,0.6749144005343317,0.0296148015409708
1761391666447690500,1.1946904296875,0.2251549092978239,0.3485439730793237,0.22291867467835544
1761391666457757400,1.20475732421875,-0.15767945591807364,0.22548136477321384,0.029417379272729156
1761391666467822800,1.21482275390625,-0.366923094856739,0.19209552026093005,-0.6218477770615368
1761391666477888800,1.224888671875,-0.31700784808695315,0.004425999748706817,-0.9297764658316969
1761391666487955000,1.234954833984375,-0.14347732756435871,-0.08187588078454136,-0.7761943622298538
1761391666498020900,1.245020751953125,0.17625497705042362,0.06040186173170805,-0.4285610011894256
1761391666508086800,1.255086669921875,0.5134568873822689,0.2900309938341379,0.0723135410606861
1761391666518152700,1.265152587890625,0.5635732096821069,0.45329219540730115,0.4761535041000694
1761391666528219600,1.2752197265625,0.32515374514162537,0.4772548164054751,0.5555254392396658
1761391666538285800,1.285285888671875,-0.008610591956973076,0.3831834709145128,0.39318756305649877
1761391666548351700,1.295351806640625,-0.3280371916234493,0.2293647820778191,0.15146204270794986
1761391666558418000,1.30541796875,-0.6483160242050886,0.07765826308950781,-0.059268985244259234
1761391666568483800,1.31548388671875,-0.7913841864466666,-0.043335283857584,-0.16660758939161896
1761391666578549800,1.3255498046875,-0.7205541619420052,-0.07795315438285469,-0.18190438111424445
1761391666588616000,1.335615966796875,-0.4922521867901086,-0.017530542124062777,-0.08771532752774655
1761391666598683000,1.345682861328125,-0.3178822928339243,0.0022165070056915284,0.0027651538643985985
1761391666608748800,1.355748779296875,-0.19549860670268535,0.007345394326746463,0.04001169239282608
1761391666618814700,1.365814697265625,-0.04234335021078586,0.024462679474800825,0.12190320913791655
1761391666628880600,1.375880615234375,0.09950842197835445,0.003586187923699617,0.21027648911774158
1761391666638946800,1.38594677734375,0.21154256353080272,0.013912205496430395,0.24409922720994798
1761391666649012700,1.3960126953125,0.2953296847641468,-0.018570260435342788,0.21976674998607484
1761391666659079000,1.406078857421875,0.33177111745476723,-0.05584726716727018,0.16629066892955452
1761391666669145900,1.416145751953125,0.26830840684771534,-0.07393675834834575,0.09691782096326351
1761391666679211800,1.426211669921875,0.2293102754116058,-0.10485036752820015,-0.06531327037718147
1761391666689278000,1.43627783203125,0.28962416659891604,-0.08446122110262512,-0.17076996976807712
1761391666699343600,1.446343505859375,0.14385668227076528,-0.15165522719249128,-0.11928656036611646
1761391666709409800,1.456409912109375,0.01585223364830017,-0.12686959937363862,-0.1075126455400139
1761391666719475700,1.466475830078125,0.0980026935905218,-0.02711903920248151,0.009164353382214904
1761391666729542700,1.476542724609375,0.21007658263146875,-0.04852466919422149,0.19703520515281706
1761391666739608800,1.48660888671875,0.21301731225848197,-0.046395255950093264,0.2203901791140437
1761391666749674800,1.4966748046875,0.16197861441671849,0.00132803373336792,0.13837730101160703
1761391666759741000,1.506740966796875,0.10452245074808597,-0.007982377056032419,0.13413834826759993
1761391666769806800,1.516806884765625,0.009727613288164138,-0.05036196762397885,0.21172628606725483
1761391666779872800,1.526872802734375,-0.0166962832570076,-0.05411182167679071,0.25925551448334005
1761391666789938700,1.536938720703125,-0.016674655947089195,-0.01756298308894038,0.27724863261785354
1761391666800006000,1.547005859375,-0.09594108488559722,0.06244418121427297,0.19454521496798843
1761391666810071800,1.55707177734375,-0.19786533583402632,0.11274755051881075,0.12984682508613912
1761391666820137700,1.5671376953125,-0.1947995185226202,0.12029518941938877,0.08205331971067935
1761391666830203600,1.57720361328125,-0.13880933575332163,0.1695538719765842,0.11142444868888705
1761391666840269800,1.587269775390625,-0.1324585054218769,0.21911372943744062,0.16831296853739766
1761391666850335700,1.597335693359375,-0.10646773959696293,0.25820406920164823,0.23333828881867227
1761391666860402000,1.60740185546875,-0.013213701838254929,0.33498569558709856,0.25435086437221616
1761391666870468900,1.61746875,0.012127660167217254,0.3991170992359519,0.2210828740859404
1761391666880534800,1.62753466796875,-0.0557353312253952,0.40767976039797066,0.11380962679237126
1761391666890600700,1.6376005859375,-0.07411386848092079,0.4535996539212763,-0.041714769983664156
1761391666900666600,1.64766650390625,0.13640519722104072,0.5277233131438493,-0.17132124697528778
1761391666910732800,1.65773291015625,0.40956455123126506,0.6038178340479731,-0.2716732436383143
1761391666920798700,1.667798828125,0.6402659887403249,0.6023984687693417,-0.38469007608518
1761391666930865000,1.677864990234375,0.907254545161128,0.5874165882147848,-0.5150421107470989
1761391666940931800,1.687931884765625,1.1175701972454786,0.6416257327862084,-0.5520610510647297
1761391666950997800,1.697997802734375,1.0476274769693612,0.6791032305262983,-0.5482321404263377
1761391666961064000,1.70806396484375,0.8873644342988729,0.6994885775595903,-0.4366334311490878
1761391666971129900,1.7181298828125,0.753850282344222,0.7484748729161917,-0.41116603161115195
1761391666981195800,1.72819580078125,0.6262403859972954,0.9035686962552368,-0.27833876594211904
1761391666991261700,1.73826171875,0.6020405952423811,1.148805439595133,-0.1657047222677618
1761391667001327900,1.748327880859375,0.6635089171618223,1.3450646554067731,-0.17310732667446135
1761391667011394800,1.758394775390625,0.1995791540145874,1.772108164705336,0.005109013576805591
1761391667021460700,1.768460693359375,0.6543009438335895,1.803293722694367,0.7404069364685565
1761391667031527000,1.77852685546875,1.3253840956419705,1.2138180099926887,-0.1288286244869232
1761391667041592800,1.7885927734375,1.636843077430129,1.0040209749549627,-0.4097685493707657
1761391667051658800,1.79865869140625,2.0795950279921294,0.9237098592691123,-0.45695521142687645
1761391667061725000,1.808724853515625,2.5093816985189914,0.6913149157151579,-0.5384686521071941
1761391667071790600,1.81879052734375,2.98602422824502,0.5991860825940967,-0.3816535214008763
1761391667081857800,1.82885791015625,3.390383027526736,0.6149449388705194,-0.13482556334678084
1761391667091923700,1.838923828125,3.6285470560014246,0.6063830083608627,0.03090381843820214
1761391667101989600,1.84898974609375,3.755416363114118,0.6240922680526971,0.19241306177750228
1761391667112055800,1.859055908203125,3.7249995975404975,0.6617774171940982,0.3861249677265063
1761391667122121700,1.869121826171875,3.6723096253603695,0.6858724324002862,0.40534119791518897
1761391667132188000,1.87918798828125,3.8278099836736916,0.6478849393114448,0.36099735806956884
1761391667142253800,1.88925390625,4.251343439024686,0.517722874263674,0.33977245493959635
1761391667152320800,1.89932080078125,4.821223639896512,0.3464019926145673,0.1502551146036014
1761391667162387000,1.909386962890625,5.0752936780333515,0.2105595438428223,-0.17611352275311945
1761391667172452600,1.91945263671875,4.9725546035707,0.1239369069226086,-0.40995680195186285
1761391667182518800,1.929518798828125,4.607158864411711,0.09263210646808147,-0.5009912274323404
1761391667192584700,1.939584716796875,3.893052563434839,0.053272009851783514,-0.5281750754993408
1761391667202651000,1.94965087890625,3.032935617023706,0.10479491101391612,-0.4926037036415189
1761391667212717800,1.9597177734375,2.326846033763885,0.27812223711460826,-0.38107597724124787
1761391667222783700,1.96978369140625,1.8595634530574083,0.48674014537036414,-0.15843137026391924
1761391667232850000,1.979849853515625,1.7421733374297619,0.5470371584881096,0.2942163897600025
1761391667242915800,1.989915771484375,1.8229419876247643,0.5078153012987225,0.754437361517176
1761391667252982000,1.99998193359375,2.118473916962743,0.45232269278801973,1.0815402679651975
1761391667263047700,2.010047607421875,2.39657014285326,0.37001134319566187,1.2948048329830169
1761391667273113600,2.020113525390625,2.143440015915036,0.3328647579103708,1.2368221612222492
1761391667283180800,2.030180908203125,1.18314127830863,0.2517897451799363,0.7946818397525698
1761391667293246700,2.040246826171875,-0.24027532154023645,0.07060315694622694,0.3199953394651413
1761391667303313000,2.05031298828125,-1.4546616329401731,-0.24632684013154357,0.2620022924408316
1761391667313378800,2.06037890625,-2.320066164365411,-0.7208328327529132,0.19502938175573944
1761391667323444700,2.07044482421875,-3.553032673072815,-0.9799136847890912,-0.3852125655893236
1761391667333511000,2.080510986328125,-4.908548287606239,-1.0971383807219564,-1.0687520980626344
1761391667343576800,2.090576904296875,-6.322689109587669,-1.4470276309303938,-0.8854321510620414
1761391667353643800,2.100643798828125,-9.1494194324553,-1.4760605409301817,-0.6399984238453209
1761391667363709700,2.110709716796875,-13.625093020391464,-1.1071537249103187,-0.7177285831272602
1761391667373775600,2.120775634765625,-18.592965603625775,-0.6170744251798838,-0.6916060076162218
1761391667383841800,2.130841796875,-22.759252924394605,0.27223769085435195,-0.8947452652651816
1761391667393907700,2.14090771484375,-24.92910573093891,1.4991484249204396,-1.0089903608653694
1761391667403974000,2.150973876953125,-25.531308238744735,2.28293981815055,-1.0692104362893848
1761391667414039800,2.161039794921875,-24.70776365792751,2.4623756171941755,-1.7782862688183783
1761391667424106800,2.171106689453125,-21.214539264607428,2.0208063005454835,-2.2309411892354487
1761391667434173000,2.1811728515625,-16.776555648118258,0.892127045590803,-2.2489377414360643
1761391667444238800,2.19123876953125,-12.725356011253595,-0.45373168280310927,-2.332978252908587
1761391667454304800,2.2013046875,-9.60631096752882,-1.859254240977764,-2.6264965043365955
1761391667464370700,2.21137060546875,-7.534416430911421,-3.154344905164838,-2.961883181940019
1761391667474436600,2.2214365234375,-6.425650302368402,-3.813279354017973,-2.841655212537944
1761391667484502500,2.23150244140625,-5.2560424593716855,-3.404510921600461,-2.399083586978912
1761391667494569500,2.241569580078125,-3.658067749518156,-2.744026028434932,-1.8897643839232623
1761391667504635600,2.2516357421875,-1.7218208697527646,-2.23294887579605,-1.8483941165283322
1761391667514701600,2.26170166015625,-0.18715572577118872,-1.5033099285140632,-2.059919728924334
1761391667524767700,2.271767822265625,1.0215759208679198,-0.7667857517629861,-2.173490870785713
1761391667534833400,2.28183349609375,2.8862749832481143,-0.18449695489071308,-1.8193229203447698
1761391667544899600,2.291899658203125,5.203335536056756,0.08780110611505806,-1.1737184931859372
1761391667554966500,2.301966552734375,7.288117611297965,-0.07509140827618539,-0.8789951768171042
1761391667565032400,2.312032470703125,8.70957840090394,-0.08752875544708222,-0.48864203346893187
1761391667575098600,2.3220986328125,9.468775304973125,0.2837873136715963,0.032608393866382535
1761391667585164500,2.33216455078125,9.79844272814691,0.6735887048885226,0.6239815011546015
1761391667595230500,2.34223046875,10.210967298227548,0.6574537087760866,1.2686582920745015
1761391667605296600,2.352296630859375,10.654370406174658,0.505312159371376,1.7800624847106634
1761391667615362600,2.362362548828125,10.884128425353765,0.5328024065064266,1.7808002974659203
1761391667625428500,2.372428466796875,10.936646548098325,0.6505374996468425,1.3844139383681118
1761391667635495700,2.38249560546875,11.166917777496575,0.5971146466149017,1.0218707390960304
1761391667645561300,2.392561279296875,11.64597438262701,0.545612495979853,0.8308074114270508
1761391667655627500,2.40262744140625,12.071265495300292,0.5384564502127468,0.6161287418276071
1761391667665693400,2.412693359375,12.358709979772566,0.579477027387172,0.6323085269298404
1761391667675759600,2.422759521484375,12.742104901480674,0.611767770139128,0.9770563956618309
1761391667685825500,2.432825439453125,12.844494431853294,0.569345363342762,1.4234500637270509
1761391667695892500,2.442892578125,12.408158193552493,0.5103204890526831,1.5499135665178299
1761391667705958700,2.452958740234375,11.8561403971076,0.41714521561861034,1.5043854487910866
1761391667716024600,2.463024658203125,11.457447368502617,0.08205226026475429,1.4906798717826604
1761391667726090500,2.473090576171875,11.080609613353014,-0.31229528648182747,0.9610382308620959
1761391667736156400,2.483156494140625,10.588140568941832,-0.4446607067927718,0.00010287585258483886
1761391667746222600,2.49322265625,9.762588155433535,-0.337857890022546,-0.7476171601083129
1761391667756288500,2.50328857421875,8.924724541884661,-0.19983261731900273,-1.2080670452505349
1761391667766355500,2.51335546875,8.633796306949854,-0.07174947743713855,-1.396907216977328
1761391667776421600,2.523421630859375,8.887978573289512,0.013768924568220972,-1.1244191863574087
1761391667786487600,2.533487548828125,9.4319884198457,0.019567016387730837,-0.8141210650421679
1761391667796553700,2.5435537109375,9.913278483116626,0.14222878880798817,-0.4418563899617642
1761391667806619600,2.55361962890625,10.236537792813778,0.35143889080323276,0.025682430528104302
1761391667816685300,2.563685302734375,10.373631556820868,0.41990423200316723,0.5681023410117253
1761391667826751500,2.57375146484375,10.17504375193119,0.3987326299630105,1.0132581743776798
1761391667836818400,2.583818359375,9.37767756846547,0.42406913313027467,0.920183730969578
1761391667846884600,2.593884521484375,7.9153335643291465,0.7262161332264542,0.41374198304638266
1761391667856950500,2.603950439453125,6.579207709920406,1.2071230423986912,0.020808431283570825
1761391667867016400,2.614016357421875,5.650686504846811,1.7722139631673692,0.22708989594839513
1761391667877082600,2.62408251953125,4.59567417832315,2.5428619433164594,0.6106537079500034
1761391667887148500,2.6341484375,2.532221306836605,3.4405332520961758,0.8522352532505989
1761391667897214700,2.644214599609375,-0.4490682941019535,4.315016577512026,0.8193479328449815
1761391667907281700,2.65428173828125,-3.7513726406812666,4.703122453390062,0.5936496373854577
1761391667917347300,2.664347412109375,-7.812351328760385,4.33940224622786,0.44606659153532235
1761391667927413500,2.67441357421875,-12.853909910452366,4.072582032111287,-0.49844559807013716
1761391667937479400,2.6844794921875,-18.327641765546797,4.47417750415951,-1.461035405755788
1761391667947545600,2.694545654296875,-24.750695621681214,5.467684391623735,-1.1793021385371685
1761391667957611500,2.704611572265625,-31.976174113714695,7.24952104640007,-0.051976179621275514
1761391667967678500,2.714678466796875,-37.1492699943304,9.229028975743054,1.5896294908344746
1761391667977744600,2.72474462890625,-38.41023100990057,10.014459222221374,2.7218162424534555
1761391667987810600,2.734810546875,-35.09320021883249,8.800579691299795,2.180744641306251
1761391667997876700,2.744876708984375,-29.039454306864737,5.698457140803336,0.40556130693927406
1761391668007942400,2.7549423828125,-22.479526466953754,2.3536665284112095,-1.8088479958206414
1761391668018008600,2.765008544921875,-16.589371865296364,-1.0289745066866278,-3.6238173971310257
1761391668028074500,2.775074462890625,-12.195929985845089,-4.266073390644788,-4.463720992074906
1761391668038141400,2.785141357421875,-9.38584626187384,-6.526039598834514,-4.6435000515982505
1761391668048207600,2.79520751953125,-8.045886528390646,-7.232124505919217,-4.357916100300848
1761391668058273500,2.8052734375,-7.652658194932341,-6.329889834746718,-3.835270528812706
1761391668068339700,2.815339599609375,-7.5958017507225275,-4.648704926764965,-3.2137095328032967
1761391668078405600,2.825405517578125,-6.913983854410052,-3.525360822293162,-2.605165547016263
1761391668088471600,2.835471435546875,-5.3110149895310395,-3.581809270223975,-2.7111186150893567
1761391668098537500,2.845537353515625,-3.492203233578801,-3.5731788045227524,-3.536254264490306
1761391668108604400,2.8556044921875,-2.0770114412397147,-3.80783920879066,-4.503720117247104
1761391668118670300,2.86567041015625,-0.6904466084480285,-4.067300876837969,-5.002480370756984
1761391668128736500,2.875736572265625,0.250446002420783,-2.5421160933852196,-4.346908676335215
1761391668138802400,2.885802490234375,1.4019254835307597,-1.0888368547141551,-3.019525223569572
1761391668148868600,2.89586865234375,3.1966882553756237,-0.5668184752136468,-0.9039568187899887
1761391668158934500,2.9059345703125,5.5160477327764035,0.44959714028164743,0.9793127232212573
1761391668169000700,2.916000732421875,7.380484929350018,0.6290408303707837,1.56656776419878
1761391668179067600,2.926067626953125,8.788868795239924,0.21668489485532044,2.0035133665695786
1761391668189133600,2.936133544921875,10.057554852104186,-0.0741828420639038,2.031452343852818
1761391668199199500,2.946199462890625,11.147089625954628,-0.3034631607286632,1.6002746573589741
1761391668209265400,2.956265380859375,11.909586740612983,-0.7364397133380174,1.115261481911689
1761391668219331600,2.96633154296875,12.540730096220969,-1.1886075078252702,0.5597617616351693
1761391668229397500,2.9763974609375,12.972200774312018,-1.4671601722463965,0.17131006799414752
1761391668239463700,2.986463623046875,13.087657876050471,-1.7203998970389365,-0.024285788537934422
1761391668249530600,2.996530517578125,13.069022149163484,-1.8875477307870983,-0.0312822963617742
1761391668259596500,3.006596435546875,12.895996655553578,-1.6874024673223496,0.19624869441762566
1761391668269662700,3.016662841796875,12.618001551949977,-1.431628840138018,0.6386879257686435
1761391668279728600,3.026728759765625,12.13219839516878,-1.2618709700219333,1.0809760582111776
1761391668289794600,3.036794677734375,11.551853498905896,-1.1643506531208754,1.3934557613492011
1761391668299860500,3.046860595703125,11.21252802054882,-1.2384219976343214,1.4671613412901758
1761391668309926400,3.056926513671875,11.156498090291022,-1.4615280115783214,1.1960555588088928
1761391668319993600,3.06699365234375,11.125331383132934,-1.6023042634904383,0.8180988826319575
1761391668330059500,3.0770595703125,11.034814661383628,-1.5781621942721307,0.4898695294372737
1761391668340125400,3.08712548828125,10.876334410476684,-1.5147824857734142,0.1664756335750222
1761391668350191600,3.097191650390625,10.772822598075866,-1.2420005867734552,-0.09994345239475369
1761391668360257500,3.107257568359375,10.617992101848126,-0.9510243479784578,-0.14648052796833216
1761391668370323700,3.11732373046875,10.296984370470046,-0.8611974351242184,-0.10326879742518066
1761391668380389400,3.127389404296875,9.851845232510566,-1.0049611784145236,-0.018161679634451866
1761391668390456300,3.137456298828125,9.274347542372345,-1.2333677829846739,0.0936854879785329
1761391668400522500,3.1475224609375,8.616962661048769,-1.4283479187712071,0.2755643327927217
1761391668410588400,3.15758837890625,7.899117173543572,-1.475426480810344,0.6390608507342637
1761391668420654600,3.167654541015625,6.4231619926840064,-1.4111743733912705,0.9929548796046525
1761391668430720500,3.177720458984375,3.511931431877613,-1.251991527172923,1.458760446561128
1761391668440786700,3.18778662109375,-0.22412848885953426,-0.8450834087345749,1.6637658634081482
1761391668450852600,3.1978525390625,-4.233732963532209,-0.08820676430650055,1.4410437342151998
1761391668460919600,3.20791943359375,-8.052229175415635,0.8914579872228204,1.0966153066959232
1761391668470986200,3.217986328125,-10.414318956518173,1.6848413846626877,0.6933003173787147
1761391668481052400,3.228052490234375,-10.874643973171711,2.008426273052394,0.35759346791021523
1761391668491118000,3.2381181640625,-10.05265889675617,1.669300847312063,0.25697226238436993
1761391668501184300,3.248184326171875,-9.599882395786047,0.9552280832786112,0.28508707115855064
1761391668511250200,3.258250244140625,-11.08827970958948,1.0081910271812229,0.17365681378338485
1761391668521317000,3.268317138671875,-14.876832618629932,2.0930629968523977,0.7336553433164954
1761391668531383300,3.27838330078125,-20.64242794368267,3.733557582527399,2.080268397209048
1761391668541449200,3.28844921875,-27.062666742396353,6.086523561453819,2.8825556704640385
1761391668551515400,3.298515380859375,-31.734694092559813,8.586969089323281,2.0840635517083106
1761391668561581300,3.308581298828125,-32.667885627532,9.640117960062623,0.17260419945791364
1761391668571647500,3.3186474609375,-30.19112843376398,8.480483814069629,-2.5030495728880164
1761391668581713200,3.328713134765625,-25.132767185831067,5.598063168162107,-5.475633889323473
1761391668591780000,3.338780029296875,-19.205322425699233,2.206688206988573,-7.60952398660481
1761391668601846300,3.34884619140625,-14.239633616244792,-0.8107214126665144,-8.731461146888137
1761391668611912200,3.358912109375,-10.483975261068343,-2.7073686149060725,-9.044546853095293
1761391668621978400,3.368978271484375,-7.2129732307255265,-3.549447800323367,-8.383348550963401
1761391668632044300,3.379044189453125,-4.1930379650503395,-3.718234341189265,-6.801594323548674
1761391668642110500,3.3891103515625,-1.7968132746338843,-3.15120777618289,-4.600277288204431
1761391668652176400,3.39917626953125,-0.1299012221544981,-1.8518360736757515,-2.6364041503667828
1761391668662243300,3.409243408203125,1.2828794173896312,-0.27347894135341044,-1.2272995689868926
1761391668672309500,3.4193095703125,2.553321962532401,1.2650225659206509,0.01922127168998122
1761391668682375200,3.429375244140625,3.5323704087942835,2.4828806450843808,1.0758256897106766
1761391668692441300,3.43944140625,4.375529206141829,3.0935312477618453,1.7609237767376005
1761391668702507300,3.44950732421875,5.3022600206673145,3.3784535202801225,2.01088681794703
1761391668712573200,3.4595732421875,6.431368680015206,3.5182837235137816,2.0453161801628768
1761391668722639400,3.469639404296875,7.643039887237548,3.258983968029916,2.0522693603016435
1761391668732706300,3.479706298828125,9.075738694694637,2.6914842325538397,1.999065301119536
1761391668742772200,3.489772216796875,10.282778150463104,2.1996811047054825,1.637199343521893
1761391668752838400,3.49983837890625,11.34813008469343,1.4500265204854308,0.9794077810935675
1761391668762904300,3.509904296875,12.337065134197474,1.176043136741221,0.5217788716562092
1761391668772970200,3.51997021484375,13.296084353387355,1.568721727362275,0.29112244233265516
1761391668783036200,3.5300361328125,13.93601424204111,1.4146883728615938,0.11252338637411594
1761391668793102300,3.540102294921875,14.395661213302612,1.1201330334708095,0.008269961825758218
1761391668803169300,3.550169189453125,14.51867969020605,1.0318345722928643,0.2930510723076761
1761391668813235200,3.560235107421875,14.310965160530804,0.935639074254781,0.8123542015001177
1761391668823301400,3.57030126953125,13.80218211017847,0.680700144328922,1.2819058961823582
1761391668833367300,3.5803671875,13.163506605499983,0.5902975504785776,1.541652080259472
1761391668843433500,3.59043359375,12.313363940614462,0.6408785676807165,1.9325906953454017
1761391668853499400,3.60049951171875,11.324700109267233,0.612386778820306,2.0272091533251104
1761391668863566300,3.61056640625,10.311531951260566,0.6107452952235937,1.853429772607982
1761391668873632300,3.62063232421875,9.417938267183303,0.5847464922226965,1.6026448936216533
1761391668883698200,3.6306982421875,9.032753539448976,0.7113355210892855,1.433788356259465
1761391668893764400,3.640764404296875,9.063364950811863,0.9234094150178134,1.5564979133442043
1761391668903830300,3.650830322265625,9.283266177365183,0.9606766310080885,1.6723077740430832
1761391668913896400,3.660896484375,9.368013668063282,0.8717693902820348,1.7350709580786525
1761391668923962400,3.67096240234375,9.222239169472456,0.7241008946381509,1.680027262379229
1761391668934029300,3.681029296875,8.85969122096002,0.605214110711962,1.454854671294242
1761391668944095500,3.691095458984375,8.249228834331035,0.6375421167343854,1.2812173293963074
1761391668954161400,3.701161376953125,7.730839166721701,0.6293624635405838,1.3187331133201718
1761391668964227000,3.71122705078125,7.221242461898923,0.5344067364305257,1.3716056024603545
1761391668974293200,3.721293212890625,6.669307667562365,0.3471786760754883,1.3873486766457557
1761391668984359200,3.731359130859375,6.206514799490571,-0.05802578025013208,1.3906091397464275
1761391668994425300,3.74142529296875,5.273619032594561,-0.6675947251707315,1.0197197716072202
1761391669004492300,3.7514921875,3.0918840650767088,-1.3242115447312592,0.4538547246608883
1761391669014558200,3.76155810546875,0.1605441976994276,-1.8251961962923406,-0.8782290878154337
1761391669024624400,3.771624267578125,-2.845176664662361,-2.0222958084508775,-2.296260341364145
1761391669034690300,3.781690185546875,-5.127431277027726,-1.4888067713871598,-2.662767841157317
1761391669044756500,3.791756591796875,-6.561093961080909,-0.3525855035550892,-1.97795982311815
1761391669054822100,3.801822265625,-7.64162066808939,0.0671342387266457,-0.3074388959592208
1761391669064888300,3.811888427734375,-8.814206650114059,-1.1347199233584104,1.6672950604476033
1761391669074955300,3.821955322265625,-10.066710802984238,-3.634641281223297,4.16900563981682
1761391669085021200,3.832021240234375,-13.492537484335898,-6.201362239032983,7.727152002641558
1761391669095087400,3.84208740234375,-21.320964334106446,-6.443378266760707,10.630856259596348
1761391669105153300,3.8521533203125,-31.82669783799648,-2.8430250395864247,10.736132159060238
1761391669115219500,3.862219482421875,-38.19631002680063,2.4728251150161027,8.40229758158326
1761391669125285400,3.872285400390625,-37.542332908093925,5.270146388047933,6.5312108639925714
1761391669135351300,3.882351318359375,-32.57554753557444,5.213690925854444,4.998640061941742
1761391669145418500,3.89241845703125,-27.031142307841776,3.580936579042673,2.6463980133756992
1761391669155484200,3.902484130859375,-23.017749546802044,0.8418192193068563,-0.38971272655278444
1761391669165550300,3.91255029296875,-18.921425989097354,-1.35920234022215,-2.6749896093487737
1761391669175616300,3.9226162109375,-13.99845403934121,-3.1083938858509064,-3.840353531165421
1761391669185682200,3.93268212890625,-9.184821585226059,-4.752912904736399,-4.394623198190331
1761391669195748400,3.942748291015625,-4.818314474451542,-5.255186134803295,-4.1029973363801835
1761391669205815300,3.952815185546875,-1.4732979443490504,-5.10908956465125,-3.5836990294933315
1761391669215881500,3.962881591796875,0.7520265740483999,-4.44854241990447,-3.6398581390887497
1761391669225947400,3.972947509765625,1.8114806824117897,-3.250149796450138,-3.9600300041645764
1761391669236013300,3.983013427734375,2.116235198125243,-2.8096918020442128,-4.604064990049601
1761391669246079200,3.993079345703125,2.4067495915621517,-2.191156583596766,-5.301177486127615
1761391669256145200,4.003145263671875,2.736553792858124,-0.8970530307509005,-5.137720615851879
1761391669266211300,4.01321142578125,3.2737720795780416,-0.03032514176741242,-4.565222925958037
1761391669276278300,4.0232783203125,4.245492374908924,0.6155633630298077,-4.24812009306401
1761391669286344200,4.03334423828125,5.939302955707907,1.2792942523792386,-3.870998844797909
1761391669296410400,4.043410400390625,7.74372845891118,1.755127949940413,-3.5219603661999104
1761391669306476300,4.053476318359375,9.48161666636765,2.005284175634384,-3.1380504807069896
1761391669316542500,4.06354248046875,10.977266143256426,2.3893508591242134,-2.6247581362366676
1761391669326608100,4.073608154296875,12.033070496940612,2.9313346066802737,-2.159545493672043
1761391669336674300,4.08367431640625,12.948356957387924,3.715343880444765,-1.9953433579869566
1761391669346741200,4.0937412109375,13.381871124005317,4.104960453146695,-1.5223442993298173
1761391669356807200,4.10380712890625,13.121793954408169,3.5136908427655693,-1.0666501573473215
1761391669366873300,4.113873291015625,12.449331915462016,3.137865479528904,-0.8643813258573413
1761391669376939300,4.123939208984375,11.673197905117272,3.0226217282801864,-0.6299576529547571
1761391669387005400,4.13400537109375,10.93447446475625,2.5282693543404338,-0.6817690887346863
1761391669397071400,4.1440712890625,10.587912605404853,1.9330757023833691,-1.0404201759390532
1761391669407137300,4.15413720703125,10.649752683246135,1.7535872963696717,-1.1416242959193885
1761391669417204500,4.16420458984375,11.087618030810356,1.9875547499373554,-0.9439680727913975
1761391669427270400,4.1742705078125,11.709932767796516,2.403650018111616,-0.7470498085491358
1761391669437336300,4.18433642578125,12.22576398309469,2.757746510751545,-0.6439515453852712
1761391669447402200,4.19440234375,12.560811930263041,2.825188938644528,-0.5986505144126713
1761391669457468200,4.20446826171875,12.74377195791006,2.5974995424330234,-0.4178307136647403
1761391669467534300,4.214534423828125,12.68217036499977,2.2031845827817915,-0.38028745721206064
1761391669477600300,4.224600341796875,12.323375631541014,1.905745358517766,-0.5925672489762306
1761391669487667200,4.234667236328125,11.906612693238257,1.775039541982114,-0.9376092052839696
1761391669497733400,4.2447333984375,11.572627406865358,1.6035415502004324,-1.0846345807187259
1761391669507799300,4.25479931640625,11.347471913045645,1.244211394690722,-1.0088877042084932
1761391669517865500,4.264865478515625,11.16786119582653,0.8684837927401066,-0.8480861707471311
1761391669527931400,4.274931396484375,11.029649825966358,0.6323050928637385,-0.8311421963393688
1761391669537997600,4.28499755859375,10.858525197541713,0.3453989530518651,-0.9472093197349458
1761391669548064500,4.295064453125,10.602266124927997,0.11757460534907876,-1.0066043425116686
1761391669558130400,4.30513037109375,10.173721563416718,0.10130743422433733,-0.8797395654436201
1761391669568196600,4.315196533203125,9.385364615836739,0.285653144076094,-0.6952163070678711
1761391669578262300,4.32526220703125,8.505629945763944,0.5275293249417096,-0.6685574327230454
1761391669588328400,4.335328369140625,7.779478986728191,0.7071344892028719,-0.3766293000306934
1761391669598394400,4.345394287109375,7.088233336856961,0.680209072876349,0.3129280314274132
1761391669608460500,4.35546044921875,5.763293477851152,0.41670985640864816,0.7864449764788151
1761391669618527500,4.365527587890625,2.180103566923737,0.23295767373694107,1.0615705159954727
1761391669628593400,4.375593505859375,-3.6726585849285125,0.279986350486055,1.1970339023217558
1761391669638659600,4.38565966796875,-9.423429265815018,0.8075972892966121,1.0520522346090524
1761391669648725500,4.3957255859375,-15.20529884932041,1.1649936271995305,2.133336408921331
1761391669658791400,4.40579150390625,-21.54124491536617,1.2751666510552166,4.2637043234258885
1761391669668857300,4.415857421875,-29.48427312682867,2.8149650662720203,6.547885519939661
1761391669678923300,4.42592333984375,-39.969882711100574,6.726794810891151,6.762572811236978
1761391669688990500,4.435990478515625,-49.977042423963546,12.194329564911126,4.598061950242519
1761391669699056400,4.446056396484375,-55.199502347207066,16.139229219961166,2.4533114362508055
1761391669709122300,4.456122314453125,-53.275808075022695,15.651549747914075,-0.5317581216178834
1761391669719188500,4.4661884765625,-44.792941165208816,9.076882019510865,-7.0016814270853995
1761391669729254400,4.47625439453125,-34.310394475638866,-4.620624495184421,-20.633059226834774
1761391669739320600,4.486320556640625,-25.57077515673637,-12.248469151377677,-34.16682654718161
1761391669749386200,4.49638623046875,-18.12373714954853,-7.083949375927448,-34.85570663696527
1761391669759453400,4.506453369140625,-10.5476530757308,2.5092694703161715,-19.4289558245182
1761391669769519400,4.516519287109375,-3.7226077339679002,5.062547593706846,-2.7380387707188723
1761391669779585300,4.526585205078125,-2.7753426654577256,4.842725862130522,3.8702074021592736
1761391669789651500,4.5366513671875,-6.669831983697414,1.4028846839517355,7.099695226591825
1761391669799717400,4.54671728515625,-6.690361561506986,2.0282044479727745,5.223723075047135
1761391669809783600,4.556783447265625,-3.4326603267639872,3.5406256114423273,3.8728777904123066
1761391669819850500,4.5668505859375,2.6722575540363787,3.4971389364153143,5.41957765558064
1761391669829916400,4.57691650390625,8.215888874787092,3.757944420287013,6.425342843854427
1761391669839982600,4.586982666015625,11.37771156848669,3.829487269236147,6.244219968506694
1761391669850048300,4.59704833984375,12.649446491527558,3.5121687477648256,5.407400895574688
1761391669860114400,4.607114501953125,12.952892847251892,2.615473298279941,4.231582215239107
1761391669870180400,4.617180419921875,13.008485555136202,1.9404833482913673,2.8090654868394136
1761391669880246500,4.62724658203125,12.995778049254417,1.5149971514374017,1.995858467902243
1761391669890313500,4.6373134765625,13.126935408949851,1.1005612678427248,1.059981931629777
1761391669900379400,4.64737939453125,13.623545206427574,1.1130299965325743,-0.42823534943163394
1761391669910445600,4.657445556640625,14.293729948091507,1.1037166631337254,-1.7189155037000774
1761391669920511500,4.667511474609375,14.894396332371233,0.786683753670752,-2.5323805890515447
1761391669930577400,4.677577392578125,15.356166287136077,0.8294542432524263,-2.670933027434349
1761391669940643300,4.687643310546875,15.670419283556937,0.8746866659682243,-2.5156454350888726
1761391669950709200,4.697709228515625,15.678761579966544,0.8765840970873833,-2.2509046575948592
1761391669960776400,4.7077763671875,15.508658695805073,0.7282109603054822,-2.2913692083217203
1761391669970842400,4.71784228515625,15.309963338887691,0.3203452123487368,-2.9754964044898746
1761391669980908300,4.727908203125,14.940622661495208,-0.22396577257849276,-4.0983728914499284
1761391669990974500,4.737974365234375,14.414585694003105,-0.6552127979815006,-5.2542748651772735
1761391670001040400,4.748040283203125,13.802701165616512,-0.9289031901285052,-6.005345161414146
1761391670011106600,4.7581064453125,13.038740408146381,-1.1826492570079863,-6.253591607964038
1761391670021172500,4.76817236328125,12.065926472359894,-1.2670885585397482,-5.953437864044308
1761391670031239400,4.778239501953125,11.036385856223106,-1.0586072822757064,-5.514065619048476
1761391670041305300,4.788305419921875,9.938943670248985,-0.6268224236689508,-4.824563597974181
1761391670051371300,4.798371337890625,8.881655800008772,-0.20228691513594238,-3.8729602079987524
1761391670061437400,4.8084375,8.174287282854317,0.36232597632482644,-2.9542934574633835
1761391670071503400,4.81850341796875,7.994640909799933,0.8352735970556735,-1.8793924813821912
1761391670081569500,4.828569580078125,8.428994449850917,0.5782278310436755,-1.0566048564121127
1761391670091635500,4.838635498046875,9.08511442580521,0.029225583027675747,-0.8125786579057573
1761391670101702400,4.848702392578125,9.6724075337708,-0.26451781892571596,-1.0133134116962552
1761391670111768600,4.8587685546875,10.310657506513595,-0.9381350557889789,-1.4431447981476784
1761391670121834500,4.86883447265625,11.095352424454688,-1.7390481911465525,-1.925463619944453
1761391670131900400,4.878900390625,11.92697275969982,-2.1457480005964635,-2.094574570459127
1761391670141966300,4.88896630859375,12.520341972708701,-2.028961988341808,-2.0034214505024255
1761391670152032300,4.8990322265625,12.347003175365924,-1.8005211892411113,-1.280622139982134
1761391670162098400,4.909098388671875,11.195618971323967,-1.8874378406718373,-0.13698080515190958
1761391670172165400,4.919165283203125,8.837643055281042,-1.9618696890607474,0.7541320218950509
1761391670182231600,4.9292314453125,4.393668089422583,-1.7857491520449518,0.9028355596750974
1761391670192297500,4.93929736328125,-0.23330840513706205,-1.2930405997894703,0.6736228994190693
1761391670202363400,4.94936328125,-1.8634002547413109,0.08736308002397418,1.0277734603337942
1761391670212429600,4.9594296875,-4.90418249361217,0.8254759872712194,2.8118144932866094
1761391670222495200,4.9694951171875,-10.425600228989124,2.603335701240599,7.615334718710184
1761391670232562200,4.979562255859375,-21.39809316649437,7.102773318862915,13.507308352488279
1761391670242628400,4.98962841796875,-37.638084607887265,13.828995298302173,18.547813625735042
1761391670252694300,4.9996943359375,-51.21294615516662,20.85671366844177,20.62213568176031
1761391670262760400,5.009760498046875,-55.045211949205395,24.08773089439869,18.06644465200901
1761391670272826400,5.019826416015625,-49.54234986121654,22.180765638697146,11.336954026162624
1761391670282892500,5.029892578125,-41.36461740634441,15.659735392457247,2.652017899084091
1761391670292958500,5.03995849609375,-33.40498175895214,0.9165427441187203,-14.462016138219832
1761391670303025400,5.050025390625,-24.590015230381486,-20.286388646411893,-48.273156439352036
1761391670313091600,5.060091552734375,-22.07199546737671,-9.8745363722682,-43.233296478271484
1761391670323157200,5.0701572265625,-21.274340530097483,5.29016275563836,-4.334518273578584
1761391670333223400,5.080223388671875,-15.135252084147929,9.59644716064036,9.178020673039555
1761391670343289300,5.090289306640625,-12.61995268601775,10.430657512378692,10.04792426944971
1761391670353355500,5.10035546875,-9.958527491641044,6.737587423062324,10.769391454583406
1761391670363421400,5.11042138671875,-5.410734423911571,4.328353613469004,10.083569583326577
1761391670373488400,5.12048828125,-1.4941940173834563,2.9224709167450666,8.63309488068223
1761391670383554600,5.130554443359375,1.4438006317079066,2.13441046789363,6.550903990978002
1761391670393620500,5.140620361328125,3.9204040962189435,1.3482020766496658,4.1432279322206975
1761391670403686400,5.150686279296875,5.970571954196691,0.41815183537788686,1.705662492764741
1761391670413752300,5.16075244140625,7.514301279121637,-0.29384141896776855,-0.5114500776045025
1761391670423818200,5.170818359375,8.64773481593132,-0.43307599439583716,-2.18798759817183
1761391670433885400,5.180885498046875,9.5889465757519,-0.24970095620714128,-3.3066429603055116
1761391670443951400,5.190951416015625,11.03792548688054,0.1682406887524761,-3.9497424189060926
1761391670454017300,5.201017333984375,12.78213412953019,0.8996237580217421,-3.7892256937354802
1761391670464083500,5.21108349609375,14.290075517237186,1.6058536265350878,-3.1471237217396495
1761391670474148600,5.221148681640625,15.242925692403315,2.216016153434664,-2.9123659945771094
1761391670484214500,5.231214599609375,15.635563074231147,2.268224333447218,-3.3321137939095493
1761391670494280700,5.24128076171875,16.123966184377668,2.1222548968061803,-3.9690585292726754
1761391670504346600,5.2513466796875,16.444085442483424,1.6334940592631697,-4.628624554027617
1761391670514412500,5.26141259765625,16.534387060177327,0.8824040354125201,-5.2715819738090035
1761391670524479700,5.271479736328125,16.50973660304546,0.23156097694784403,-5.932028580790758
1761391670534545700,5.281545654296875,16.298842274290323,-0.17943744301144032,-6.255179753938317
1761391670544611600,5.291611572265625,15.529694469571112,-0.3376057784250006,-6.103289402815699
1761391670554677800,5.301677734375,14.362331775152683,-0.49032801379449664,-5.5291386850178235
1761391670564743400,5.311743408203125,13.181757716983556,-0.3580691225979477,-4.877013039396703
1761391670574809600,5.3218095703125,12.188057645034789,-0.03945333699085749,-3.828420809048414
1761391670584875500,5.33187548828125,11.30676347056031,-0.03980728782794904,-2.550063545258343
1761391670594942500,5.3419423828125,10.488064576208592,-0.0938332989513874,-1.6887869074180721
1761391670605008600,5.352008544921875,9.883252762687206,-0.14373203297778964,-1.3897133599504827
1761391670615074600,5.362074462890625,9.551226793688535,-0.2472987173710018,-1.255644788983464
1761391670625140700,5.372140625,9.397338546746969,-0.17059443053808063,-1.1077098974883555
1761391670635206700,5.38220654296875,9.369314813789725,0.01225914105977863,-1.143608601604402
1761391670645272800,5.39227294921875,9.515065346983075,0.18851488529518245,-1.2370368268862366
1761391670655339800,5.40233984375,9.40765126644671,0.4052077442612499,-1.1799641095772384
1761391670665405400,5.412405517578125,8.832754698717594,0.3376769074324518,-1.029904773274064
1761391670675471600,5.4224716796875,8.834358626782894,0.30661212627887724,-1.4850672925978898
1761391670685537500,5.43253759765625,9.100434160012007,0.22171572862938047,-2.3419708299204705
1761391670695603700,5.442603759765625,9.22707784167528,-0.45398609595559536,-3.0743437322109934
1761391670705669600,5.452669677734375,9.592237433990835,-1.2887830884754656,-3.677891224884987
1761391670715735600,5.462735595703125,9.977546664887667,-1.7329229862645268,-4.068005517975986
1761391670725802800,5.472802734375,10.00806922892332,-1.9141548749446868,-4.200122370353341
1761391670735868700,5.48286865234375,9.391826505327224,-1.8534845715351402,-3.6534079410135742
1761391670745934800,5.492934814453125,8.045117297583818,-1.6438417041458189,-2.5520862832576037
1761391670756000500,5.50300048828125,6.106354635605216,-1.1896654193803666,-1.378144210448861
1761391670766066400,5.51306640625,3.4156226827234026,-0.7057251338616013,-0.24807108998298644
1761391670776132600,5.523132568359375,0.14936404751539228,-0.0659027972355485,0.7156748654678463
1761391670786198500,5.533198486328125,-2.9187656324863434,0.8546630649194121,1.9786524815574287
1761391670796265700,5.543265625,-7.267751115095615,1.694171961457282,3.520079082497954
1761391670806331600,5.55333154296875,-13.831831398510932,2.557711721923947,5.076972424900531
1761391670816397600,5.5633974609375,-22.132645458650586,4.350633834338188,7.310689508590102
1761391670826463700,5.573463623046875,-31.085121930813788,6.51940761347413,10.7156914285779
1761391670836529700,5.58352978515625,-39.197247648787496,9.332388812452555,13.426749545651674
1761391670846595600,5.593595703125,-44.31311883640289,13.030075455653666,12.605083618187903
1761391670856662500,5.60366259765625,-44.764650305747985,14.511760120075941,9.453848953998088
1761391670866728400,5.613728515625,-41.767413778614994,13.03547760695815,5.388218056198954
1761391670876794600,5.623794677734375,-35.90940086662769,8.888936604666709,0.023892113045230506
1761391670886860500,5.633860595703125,-29.94347352336645,1.302533381408453,-9.309629868155717
1761391670896926700,5.6439267578125,-24.022535660910606,-8.418560149598122,-22.00123324741125
1761391670906992600,5.65399267578125,-18.312490958166123,-11.252983949577807,-27.180307617914675
1761391670917058800,5.664058837890625,-14.669977336132526,-1.3329187289305031,-12.203587222599982
1761391670927125800,5.674125732421875,-11.855392209088802,5.296289714086056,4.115119443589449
1761391670937191700,5.684191650390625,-10.001045613896846,7.018294708234071,9.401786758327484
1761391670947257600,5.694257568359375,-8.411082361063361,5.279326304325461,8.70198663060069
1761391670957323500,5.704323486328125,-4.85069406453073,2.3190514343649147,6.248291163468361
1761391670967390500,5.714390380859375,-0.7268418639093637,1.613660208632797,4.920751935619116
1761391670977456600,5.72445654296875,3.0455870088040826,1.5584667291991412,4.337852678698301
1761391670987522600,5.7345224609375,5.77730329850316,1.3094883151128887,3.3976541875734925
1761391670997588700,5.744588623046875,7.529967050287127,1.3221905602976678,2.0447743283711373
1761391671007654700,5.754654541015625,8.986388678637146,1.6434145647749303,0.4503964739657938
1761391671017720600,5.764720458984375,10.527325742495059,1.9176469548441468,-0.4894317225418985
1761391671027786800,5.774786865234375,12.08507190233469,2.189425960411876,-0.94746029882133
1761391671037853700,5.784853759765625,13.39372405888438,2.6060730172500013,-1.189408375879377
1761391671047919600,5.794919677734375,14.31272690950632,2.9495135297104715,-1.3308474756143986
1761391671057985500,5.804985595703125,14.720794500178098,3.1816669195935128,-1.2838793882124124
1761391671068051500,5.815051513671875,15.050744247424602,3.2953906216681004,-1.0893901046827434
1761391671078117600,5.82511767578125,15.231681829333304,3.0999107196658846,-0.8421911213591694
1761391671088183600,5.83518359375,15.352648634403943,2.644244050212204,-0.695353523581475
1761391671098249700,5.845249755859375,15.416926168525219,2.085586523491889,-0.7004037927083671
1761391671108316700,5.855316650390625,15.210096604990959,1.1961880991473792,-0.9988159536577761
1761391671118382600,5.865382568359375,14.941899257302284,0.2973549617803655,-1.6196335839539766
1761391671128448800,5.87544873046875,14.556455001848935,-0.5894008938997983,-2.402241174226999
1761391671138514400,5.885514404296875,13.838597823905944,-1.2864876710146664,-3.1466537661403415
1761391671148580600,5.89558056640625,12.884744609177112,-1.7191097110979259,-3.8666809815987944
1761391671158646500,5.905646484375,11.638684225618839,-2.103379808205366,-4.4879587767526505
1761391671168713500,5.91571337890625,10.047648375117777,-2.3146548068411645,-4.722781678105891
1761391671178779600,5.925779541015625,8.397437866592407,-2.2572452587932346,-4.845028878375888
1761391671188845600,5.935845458984375,7.063181897708773,-2.1387688092336057,-4.76968722166568
1761391671198911700,5.945911865234375,6.270909822511673,-2.037147925145924,-4.486797624018788
1761391671208977700,5.955977783203125,5.7796799645066255,-1.915571756005287,-4.002251481561363
1761391671219043800,5.9660439453125,5.432442982372641,-1.8788463918067513,-3.698399467645585
1761391671229109500,5.976109619140625,5.495595896378159,-1.92462103164047,-3.4559134843185544
1761391671239176400,5.986176513671875,5.9813908698529,-1.9885311937540768,-3.2132474682494996
1761391671249242600,5.99624267578125,6.6846139577656984,-2.2596309848859906,-3.002705898454785
1761391671259308500,6.00630859375,7.114297752439976,-2.524582482521236,-2.8420757760375737
1761391671269374700,6.016374755859375,7.224293081641197,-2.6819877976730466,-2.8288024529665705
1761391671279440600,6.026440673828125,7.262347210225463,-2.9095754870757458,-2.776515216368437
1761391671289506600,6.036506591796875,6.9574962484002105,-3.22137816773504,-2.7723130885034797
1761391671299573800,6.04657373046875,6.458610907205939,-3.327159386372566,-2.9796558622568843
1761391671309639700,6.0566396484375,5.668326790955662,-3.0047359429776668,-2.9507834035158154
1761391671319705600,6.06670556640625,4.533037397146225,-2.3846640164822337,-2.3970212476216255
1761391671329771500,6.076771484375,2.78572260517478,-1.6700032964929938,-1.509795929532498
1761391671339837400,6.08683740234375,0.8087848185807466,-0.8936759555332362,-0.4095205659590661
1761391671349903600,6.096903564453125,-1.0830623629659413,0.056008229882642625,0.4173654342405498
1761391671359969500,6.106969482421875,-2.9912574527233837,1.3714070111483334,0.9841713422335684
1761391671370036500,6.117036376953125,-4.4311558162957425,2.927680760347843,1.1766818730361759
1761391671380102700,6.1271025390625,-5.539936557886004,3.6018545716479418,1.5228545869395136
1761391671390168600,6.13716845703125,-7.315539286708831,2.821896034578979,2.4941964043468237
1761391671400234800,6.14723486328125,-10.973998665893077,1.9501950333580373,3.3990532407164573
1761391671410300700,6.15730078125,-15.944417426478863,2.176858009131253,4.699540795511007
1761391671420366600,6.16736669921875,-21.002954030978678,3.437909041072428,6.55808776500225
1761391671430432500,6.1774326171875,-26.081198375511168,5.509311702519655,7.282066056174039
1761391671440499500,6.18749951171875,-29.354525633931157,8.087073109781741,7.088049796983599
1761391671450565600,6.197565673828125,-29.2408711977005,9.605651042315364,7.178681085023284
1761391671460631600,6.207631591796875,-27.326318847870827,9.275712400984764,5.969741933113336
1761391671470697700,6.21769775390625,-24.670667560720442,7.609958286368847,3.489949901694059
1761391671480763600,6.227763671875,-21.993594715356824,4.921074591702222,1.3079217964485288
1761391671490829800,6.237829833984375,-18.956431836026905,2.0876479860663415,-1.0353083858832717
1761391671500896800,6.247896728515625,-15.023055445510147,-0.5536925247240811,-3.1518121718168257
1761391671510962700,6.257962646484375,-11.311351967394351,-2.921983425489068,-4.573849007745087
1761391671521028900,6.26802880859375,-7.883001905044913,-4.615079720538854,-5.608319773760438
1761391671531094800,6.2780947265625,-4.724717906865477,-5.4798430314511055,-6.2247138885259625
1761391671541160700,6.28816064453125,-2.716462606465816,-5.531097417870163,-6.342257733410596
1761391671551227000,6.298226806640625,-1.7068717224240302,-4.094801754964888,-5.585834385707974
1761391671561292500,6.30829248046875,-1.416764740744233,-2.0681911520548164,-3.7914088829934594
1761391671571359700,6.31835986328125,-1.6034773989230393,0.18490115177743136,-2.130087051736563
1761391671581425700,6.32842578125,-0.6842927619934082,2.4284303852334617,-0.5584069860253482
1761391671591491600,6.33849169921875,1.532965938848257,3.3999873066961763,1.1308016539361327
1761391671601557800,6.348557861328125,3.4324271025300024,3.4802827864214776,2.252725735542178
1761391671611623700,6.358623779296875,5.322196308758855,3.556453002910316,2.7610727325648066
1761391671621689900,6.36868994140625,7.608479445987939,3.2066400328084823,3.011084435221553
1761391671631755800,6.378755859375,9.458274369224906,2.2420359992235896,2.92227802452147
1761391671641822700,6.38882275390625,10.874473292779921,1.2804815624676644,2.5880992614030838
1761391671651889000,6.398888916015625,12.103054133749007,0.27126053465157746,1.971868812766671
1761391671661954600,6.40895458984375,13.071913194429873,-0.6827630682080984,1.4644871536448596
1761391671672020700,6.419020751953125,13.755324497413634,-1.247226504728198,1.0767186930276453
1761391671682086700,6.429086669921875,13.842079236280917,-1.5461284950211642,0.8747319664146751
1761391671692152800,6.43915283203125,13.566249201756715,-1.0791904899686575,0.37533016359824684
1761391671702219800,6.4492197265625,13.347096747744082,-0.40422249608356503,0.03609824527613818
1761391671712285700,6.45928564453125,13.204190498065948,-0.2922435918496922,0.25565924355704334
1761391671722351900,6.469351806640625,12.798418909376858,-0.5729099239565432,0.6003979426018894
1761391671732417800,6.479417724609375,12.13501579067707,-0.9106517133187502,0.20436361181214452
1761391671742484000,6.48948388671875,11.603914525532721,-1.2446516858041285,-0.23900069849453864
1761391671752549600,6.499549560546875,11.05875667798519,-1.5342778982296585,-0.46926546161938454
1761391671762615800,6.50961572265625,10.242474197125434,-1.6185402357593177,-0.6204946819521486
1761391671772682800,6.519682861328125,9.178597596144675,-1.410660578650236,-0.7235876844190061
1761391671782748700,6.529748779296875,8.357178336918354,-0.9679402653355151,-0.3636705958668142
1761391671792814800,6.53981494140625,7.655369791978597,-0.7805864597089588,0.21058701637163757
1761391671802880800,6.549880859375,7.173244446927309,-0.7363882023464888,0.5004557323161513
1761391671812946700,6.55994677734375,7.004864733296633,-0.5595179429419338,0.4847293170046061
1761391671823012900,6.570012939453125,6.9357397591441865,-0.5994590543165803,0.3470032464433461
1761391671833078800,6.580078857421875,6.680456838086247,-0.7503140710420906,0.27495800093002615
1761391671843145700,6.590145751953125,5.907081771060824,-0.7157764261461794,0.06529357929602266
1761391671853211600,6.600211669921875,4.971706462308764,-0.7739388383880257,-0.17404489978551863
1761391671863277600,6.610277587890625,3.996418829885125,-0.8403338030546903,-0.12671725835613906
1761391671873343700,6.62034375,3.06510068756938,-0.6825465028479695,-0.06479132886230946
1761391671883409700,6.63040966796875,2.0539842013955116,-0.5157898603744805,-0.02690525032132864
1761391671893475800,6.640475830078125,0.8244231172174215,-0.1752206655666232,0.19898871384076772
1761391671903542800,6.650542724609375,-0.7291524789392948,0.6592727408967912,0.592976341233775
1761391671913608700,6.660608642578125,-2.5750918957918882,1.19011637801826,0.5396096388358622
1761391671923675000,6.6706748046875,-4.112420706024766,1.313480599619448,-0.22344116418249904
1761391671933740800,6.68074072265625,-4.188823562225699,0.7550779244430362,-0.8793049734186381
1761391671943806700,6.690806640625,-3.7800638976365324,-0.39058088768944144,-0.9652979341331869
1761391671953872600,6.70087255859375,-4.026973542624712,-1.0076907495088874,-0.4775596445709467
1761391671963938800,6.710938720703125,-5.751283306583762,-0.8191121513277292,0.43416532400250435
1761391671974005800,6.721005859375,-9.237062060073017,-0.04910378425642848,1.1653442672681062
1761391671984071700,6.73107177734375,-13.941034116029739,1.6791637774176895,1.1885836885582655
1761391671994137900,6.741137939453125,-18.090966514325142,4.246528732219338,1.2785986713305115
1761391672004203800,6.751203857421875,-18.955275651729107,5.73343902233541,2.1684594524897634
1761391672014270000,6.76127001953125,-16.65778781439662,5.572331930056214,2.7164289964571595
1761391672024336000,6.7713359375,-12.475820109415054,4.518783246344328,2.041271434816718
1761391672034402800,6.78140283203125,-9.052432053387165,2.9778757008418437,0.45557752986550326
1761391672044468700,6.79146875,-6.914643779623508,1.4663411109484732,-1.1843586182091383
1761391672054534700,6.80153466796875,-5.3139896214276545,0.20012305163294075,-2.1613892218425867
1761391672064600800,6.811600830078125,-3.8053485610187052,-0.7001650155164301,-2.5283915194153783
1761391672074666800,6.821666748046875,-2.245404014351964,-1.2712585377007721,-2.5743784868255255
1761391672084732700,6.831732666015625,-0.8656348330497741,-1.6448760156296192,-2.4268729266583917
1761391672094798800,6.841798828125,0.0832236421316862,-1.8651976595520972,-2.139508083293587
1761391672104865800,6.85186572265625,0.4357084617912769,-1.9589044095143675,-1.9031728776812553
1761391672114931700,6.861931640625,0.2997445785969496,-1.789172989013791,-1.628460887401551
1761391672124998000,6.871997802734375,-0.5457610741376876,-1.3693854421928524,-1.2923267524316906
1761391672135063600,6.8820634765625,-2.008247701615095,-0.5086997559830546,-1.1987551000911743
1761391672145129700,6.892129638671875,-3.147565035766363,0.5526913848575205,-1.0686221880726516
1761391672155195600,6.902195556640625,-3.6524727059900757,1.165360122424364,-0.7564117303300648
1761391672165261800,6.91226171875,-3.451766593772173,1.2809689075931905,-0.3705899468012154
1761391672175328800,6.922328857421875,-2.886753706675768,1.0839122577935456,0.06947524889484047
1761391672185394700,6.932394775390625,-2.324467029672861,0.6763966749813407,0.39512174598947164
1761391672195460900,6.9424609375,-2.039922942817211,0.3094910427160561,0.6578473112035542
1761391672205526800,6.95252685546875,-1.980660606509447,0.1694162901367992,0.8802585478164255
1761391672215593000,6.962593017578125,-1.9563778136461971,0.3557762624204159,1.0211024581372736
1761391672225658600,6.97265869140625,-1.8720657917559145,0.6538757041588426,1.0825851739082484
1761391672235725600,6.9827255859375,-1.7046908712536095,1.071444771212712,1.2061939448550343
1761391672245791700,6.992791748046875,-1.676524514955282,1.3619509082779286,1.3663839222893117
1761391672255857700,7.002857666015625,-1.8129297121763228,1.3534009604670107,1.4604102595947681
1761391672265923800,7.012923828125,-1.521048706561327,1.0942344029087572,1.2484899487927554
1761391672275989800,7.02298974609375,-0.3202490219652653,0.705402696974203,0.9787027746293693
1761391672286055700,7.0330556640625,1.4046376650989054,0.1993888190742582,0.7853946637082845
1761391672296121900,7.043121826171875,2.928751019927859,-0.3847468477737158,0.4935564012564718
1761391672306188800,7.053188720703125,4.055861198934912,-0.7985637226872145,0.2279708069687709
1761391672316255000,7.0632548828125,4.8833705917298795,-0.990325261753425,0.05144574427269399
1761391672326320600,7.073320556640625,5.4781940952003,-1.1140357395090161,-0.06871336114425211
1761391672336386600,7.083386474609375,5.878742396283149,-1.1829876951821148,-0.15938344682436437
1761391672346452700,7.09345263671875,6.078935298281908,-1.1488790162879974,-0.17706980056464672
1761391672356518700,7.1035185546875,6.270640942442417,-1.0670619530186056,-0.20409706983044743
1761391672366584800,7.113584716796875,6.4768316235512495,-1.060737864563614,-0.2176156728994101
1761391672376651800,7.12365185546875,6.612838176843524,-1.107976585600525,-0.20626776493303475
1761391672386717700,7.1337177734375,6.730906922385096,-0.978398019529134,-0.3419263085052371
1761391672396783900,7.143783935546875,7.099972874489426,-0.6043444517379626,-0.8097906346224248
1761391672406849800,7.153849853515625,7.111957326793671,-0.7046588198043405,-0.7261977207869291
1761391672416915700,7.163915771484375,7.292998953598738,-0.4611023942342028,-0.8058577521529048
1761391672426981600,7.173981689453125,7.515346404260397,-0.044289680239278824,-1.0164258446283638
1761391672437048600,7.184048583984375,7.375027832987904,-0.01642444404568523,-1.0642734913438558
1761391672447114800,7.19411474609375,7.226825814989208,-0.22652983264653012,-1.0583905707851051
1761391672457180700,7.2041806640625,7.282793201404809,-0.3009202713128179,-1.047171330699697
1761391672467246800,7.214246826171875,7.126274021437764,-0.27793060526633634,-0.9738849990841001
1761391672477312800,7.224312744140625,6.138272453391552,-0.33301574722100047,-0.8822514751993119
1761391672487379000,7.23437890625,4.868409753963351,0.025955639712605623,-0.8352982931055128
1761391672497444900,7.24444482421875,3.5801924826771017,0.5784603246252984,-0.55045653847754
1761391672507511800,7.25451171875,2.212268637469411,0.8581795486077666,-0.28152696752417833
1761391672517578000,7.264577880859375,0.4673766887307167,1.0860172672487796,-0.48661706697996704
1761391672527643600,7.2746435546875,-1.5224796161472796,1.2127885938797145,-0.7880782767690717
1761391672537709800,7.284709716796875,-3.2554999253064394,0.965895461634919,-0.6564832563087344
1761391672547775700,7.294775634765625,-4.493382847627998,0.7116923717029392,-0.06662975980322808
1761391672557841700,7.304841552734375,-6.522406795290112,0.7072762357611209,0.9895462402049452
1761391672567907800,7.314907958984375,-9.733700499123334,1.28146911220029,2.024234667558968
1761391672577974800,7.324974853515625,-13.178857319366932,2.3183470854878423,2.2604829255402086
1761391672588040700,7.335040771484375,-15.802584358990192,3.2201948031693695,1.8031877781018613
1761391672598107000,7.34510693359375,-16.973541863030196,3.248092571659386,0.9534552283871919
1761391672608172800,7.3551728515625,-17.630823868501185,2.6330823124676943,-0.09460713286809623
1761391672618238700,7.36523876953125,-17.502663937056063,1.9466113296523688,-1.190332651117444
1761391672628304600,7.3753046875,-16.77048714185953,1.3784184973455964,-2.1191852801024913
1761391672638371600,7.38537158203125,-15.895302390176058,0.730773138943687,-3.2119644427016376
1761391672648437800,7.395437744140625,-14.614367092591523,0.19436642433498053,-3.871689457410574
1761391672658503700,7.405503662109375,-12.926548445683716,-0.19646661148462444,-3.831404501034319
1761391672668569900,7.41556982421875,-10.563792894148825,-0.3213412011161446,-3.1349037071138617
1761391672678635800,7.4256357421875,-7.670550994497537,-0.36161581876147536,-2.2165920536264774
1761391672688702000,7.435701904296875,-4.748600886756181,-0.5429745486916974,-1.409137022344768
1761391672698768000,7.445767822265625,-2.183545231810212,-0.8093582345545292,-0.9552894580770284
1761391672708834800,7.455834716796875,-0.06101297936737537,-0.8246325221844018,-0.6492232752431184
1761391672718900700,7.465900634765625,1.2045879709631204,-1.0799372166827321,-0.6566144084077328
1761391672728966700,7.475966552734375,1.9634704022556542,-1.3790233313709497,-1.1046022868618368
1761391672739032800,7.48603271484375,2.851383702608943,-0.8872470915295183,-1.4776485407739877
1761391672749098800,7.4960986328125,3.7193139531195163,0.16118297052700073,-1.3664244004301727
1761391672759165000,7.5061650390625,4.169543692216277,0.8428579147048294,-0.6169340668611228
1761391672769232000,7.51623193359375,4.340954736366868,1.2467431051254272,0.22946020527631042
1761391672779297800,7.5262978515625,4.516412425559759,1.3193820787481962,0.746511610019207
1761391672789364000,7.536364013671875,4.7172523932904005,1.0493217136666178,1.0887417237766086
1761391672799430000,7.546429931640625,5.12928830307126,0.7584068496700376,1.277111355382204
1761391672809495800,7.556495849609375,5.86089343585968,0.4767613338001072,1.3873830173067747
1761391672819561700,7.566561767578125,6.920242914804816,0.020643778773769734,1.5112312230326235
1761391672829627600,7.576627685546875,8.161615432807803,-0.4958317257773131,1.5787921627387405
1761391672839694800,7.58669482421875,9.299904592955112,-0.6666635818004608,1.6251096772775053
1761391672849760800,7.5967607421875,10.31706386642456,-0.8130529974192381,1.9801675622954964
1761391672859826700,7.60682666015625,10.934342362809181,-1.1498237497922033,2.2485060720205308
1761391672869892900,7.616892822265625,11.225055493688583,-1.3628519487708806,2.2952741068057714
1761391672879958800,7.626958740234375,11.434375120472907,-1.5761657597579062,2.0486019238352773
1761391672890025000,7.63702490234375,11.630684459036589,-1.8545064619287848,1.6927032040789722
1761391672900092000,7.647091796875,11.63353575681448,-2.3492105719156564,1.3237649700075387
1761391672910157600,7.657157470703125,11.462047555774449,-3.0309432741627096,0.8360510842341929
1761391672920223700,7.6672236328125,11.163913334983587,-3.4236554747924206,0.3667897508006543
1761391672930289700,7.67728955078125,10.786291151458025,-3.53909182600379,0.1425969645332545
1761391672940355800,7.68735595703125,10.338645583635568,-3.655259414099157,0.18969167398959397
1761391672950421800,7.697421875,9.553377834242582,-3.561083000798523,0.3080749653730541
1761391672960488000,7.707488037109375,8.427078387096524,-3.1966005770921706,0.1864263885833323
1761391672970555000,7.717554931640625,7.515276261633634,-2.8025083202809093,0.42655331462882456
1761391672980620800,7.727620849609375,6.770019035589694,-2.442708501432836,0.6920244522240012
1761391672990687000,7.73768701171875,6.296985344010591,-2.0447876262441276,0.76305102221407
1761391673000752600,7.747752685546875,6.025197862875461,-1.777998830179125,0.779607093282789
1761391673010818800,7.75781884765625,5.69981206254363,-1.612785179363936,0.7637858392946422
1761391673020884700,7.767884765625,5.190590620774031,-1.3029976379193364,0.6675778471011669
1761391673030951700,7.77795166015625,4.653564057233929,-1.1041994051493704,0.651261649202928
1761391673041017900,7.788017822265625,4.260417556840181,-1.0625250402413309,0.5682598331283778
1761391673051083800,7.798083740234375,3.931822146812081,-0.8436252458155155,0.4221351328603923
1761391673061150000,7.80814990234375,3.26791926189661,-0.44808381310924883,0.26570436182916163
1761391673071215900,7.8182158203125,1.76461254825294,-0.07900003308728337,0.1858142115017399
1761391673081281800,7.82828173828125,-0.20054829130768775,0.47580447146669025,-0.12607859512642025
1761391673091347700,7.83834765625,-1.7409090165823697,1.154952564048022,-0.32957758946586396
1761391673101414700,7.84841455078125,-3.5163019020467994,1.200177022653073,-0.028076814851351082
1761391673111480800,7.858480712890625,-6.536534104841947,0.8326254206344484,0.33814521906394507
1761391673121546800,7.868546630859375,-11.236915442830323,1.2566694558560847,0.7355778358116746
1761391673131612700,7.87861279296875,-17.34213552144766,2.7987562742710113,1.0743880581229925
1761391673141678800,7.888678955078125,-22.29139225153923,4.82409831854999,1.2604895986661315
1761391673151744800,7.898744873046875,-24.731425104022026,6.546304972749948,1.1662398278683423
1761391673161811700,7.908811767578125,-25.1211071431756,7.720039540287852,0.7237701283138245
1761391673171878000,7.9188779296875,-24.537483079111574,8.214590067148208,-0.34875988085232673
1761391673181943800,7.92894384765625,-23.855240819907188,7.74663820887804,-2.2830203360408543
1761391673192009700,7.939009765625,-22.748544483375547,6.205721018764376,-4.1545799318403
1761391673202075600,7.94907568359375,-20.436652857637405,4.425541191284358,-5.861829255405068
1761391673212141800,7.959141845703125,-17.297326073384284,2.280665589608252,-7.222721886801719
1761391673222207700,7.969207763671875,-14.026055162972211,0.16103307719491422,-7.455887084075808
1761391673232274700,7.979274658203125,-11.149635803306102,-1.4724787369206547,-6.6807058444112535
1761391673242340900,7.9893408203125,-9.092610334518552,-2.5802882953912016,-5.213069579085707
1761391673252406800,7.99940673828125,-7.353847682315111,-3.0971950309664007,-3.676935823856294
1761391673262473000,8.009472900390625,-5.861216676464677,-3.129139152237773,-2.30774941136688
1761391673272539000,8.019538818359376,-4.799899112316965,-2.340750348214805,-0.8040721839103847
1761391673282604800,8.029604736328125,-4.0908711375176905,-1.2378855526700616,0.9997757386006414
1761391673292671700,8.039671630859376,-3.69899714127779,-0.4575090093847364,2.683400002558529
1761391673302737700,8.049737548828125,-3.4921313373863696,-0.2167568641129881,3.3060099230989812
1761391673312803800,8.059803955078126,-2.6052462110370396,-0.42652058140300214,2.9901892389699816
1761391673322869800,8.069869873046875,-0.8609253401845693,-0.7092091765850782,2.671645267356932
1761391673332936000,8.07993603515625,1.2687164520025254,-1.0432952199187129,2.284417927879095
1761391673343001900,8.090001953125,3.204930598542094,-1.2637041767984627,1.7241380606539547
1761391673353067800,8.10006787109375,5.0150557746917,-1.2262979907289147,1.4212114910200238
1761391673363135000,8.110135009765624,6.653251435774564,-1.2289072964444756,1.5629557111814618
1761391673373201000,8.120200927734375,7.868696900838613,-1.295214582827687,1.6961498374015092
1761391673383266600,8.1302666015625,8.776975528350471,-1.3268781335920095,1.7705670727431773
1761391673393332700,8.140332763671875,9.379774248483777,-1.3743335661195217,1.854280251957476
1761391673403398700,8.150398681640626,9.541137945872544,-1.4217941132135687,2.011333538801223
1761391673413464800,8.16046484375,9.335755658537149,-1.3854161011479793,2.2011700280889865
1761391673423530800,8.17053076171875,9.15990400159061,-1.3343015615910292,2.1750752173677084
1761391673433597700,8.18059765625,9.129590696391462,-0.9663014851525425,1.8855626944497226
1761391673443664000,8.190663818359376,9.249200241634249,-0.06673133874787017,1.7646889744900165
1761391673453729800,8.200729736328125,9.587667057335377,1.0050672691375016,2.2215610742107033
1761391673463796000,8.2107958984375,9.903827933204173,1.9011168219342827,2.969908959746361
1761391673473861600,8.220861572265624,9.887426248979567,2.4805983793660995,3.424960419911146
1761391673483927800,8.230927734375,9.60987304392457,2.6612849091231823,3.2868577711224556
1761391673493994800,8.240994873046875,9.320036111357808,2.5579773871228095,2.6501521052122117
1761391673504060700,8.251060791015625,9.24434812542796,2.270592816144228,1.8562205723702907
1761391673514126800,8.261126953125,9.375839831644296,1.8505144696831701,1.1323951336726545
1761391673524192800,8.27119287109375,9.434022556021809,1.3380229202017186,0.3302677271544933
1761391673534259000,8.281259033203124,9.237851749145984,0.8676463190026581,-0.38631767728701233
1761391673544324600,8.29132470703125,8.646666894438862,0.754494863858074,-0.8446864453062415
1761391673554390800,8.301390869140626,7.89774062449336,0.8563098822783678,-0.8778015831183642
1761391673564457700,8.311457763671875,6.899673589506745,0.8151703548993915,-0.6527282146241515
1761391673574523600,8.321523681640626,5.680335208657383,0.58181431122832,-0.6959408219501376
1761391673584589800,8.33158984375,4.380221747872233,0.16529380337931215,-0.9674042587626724
1761391673594655700,8.34165576171875,2.959927079436183,-0.3840915987353772,-1.3205182431712745
1761391673604721700,8.3517216796875,1.118503678703308,-0.5626856131926179,-1.8743121093779802
1761391673614787800,8.361787841796875,-0.41000878786742684,0.12841931303367018,-2.4871555459246038
1761391673624854800,8.371854736328125,-1.6802905894905327,1.026102531446889,-2.5964532482504845
1761391673634921000,8.3819208984375,-2.405563012126088,1.604477808137238,-1.873609221805632
1761391673644987000,8.39198681640625,-2.8722131401479243,1.5692708856776356,-0.6777903212968259
1761391673655052500,8.402052490234375,-3.8638457581728693,1.1874088726252316,-0.26523787682857364
1761391673665118700,8.41211865234375,-5.204331561356782,1.153534440878406,-0.5778121629148721
1761391673675184600,8.4221845703125,-6.600233546814322,1.2042309011537582,-0.7536286024175584
1761391673685250800,8.432250732421876,-7.819304216638207,1.3525059113234281,-0.9736965638399123
1761391673695317800,8.44231787109375,-8.619189104926585,2.510769353485107,-1.8861149215050041
1761391673705383700,8.4523837890625,-9.140064159610867,3.1579572504431006,-2.313097786657512
1761391673715449900,8.462449951171875,-10.139096824759244,2.9525682411059737,-1.9409049347043037
1761391673725515800,8.472515869140626,-9.878286664712428,3.615786358627677,-2.0131781437546015
1761391673735581700,8.482581787109375,-8.58296160724759,3.7685640139788386,-1.8036854984909294
1761391673745647600,8.492647705078125,-6.788552471145987,2.902668776427209,-1.1808953990779816
1761391673755714600,8.502714599609375,-6.120795248889923,2.3219664450287816,-1.1653925633892417
1761391673765780700,8.51278076171875,-5.547992438569665,1.7952157763093708,-0.8742024626478553
1761391673775846700,8.5228466796875,-4.051599449837208,0.9923060603071003,-0.1843668622376397
1761391673785912800,8.532912841796875,-2.2194676090627907,-0.024224121478572485,0.6630499213479459
1761391673795978800,8.542978759765624,-0.5135673620194197,-0.7313982851047068,0.9252844151094556
1761391673806045000,8.553044921875,1.3112830895751715,-1.5752042212493718,0.9291565073024481
1761391673816110800,8.56311083984375,2.7363825279444454,-2.690742766536772,0.7714407379619777
1761391673826177800,8.573177734375,3.773236681964993,-3.255029969707131,0.49825150027014314
1761391673836244000,8.583243896484374,4.540089069223404,-3.4276080118104812,0.3459855207681656
1761391673846309600,8.5933095703125,4.837437692594528,-4.0457817034691566,0.04888206779714673
1761391673856375800,8.603375732421876,4.439606833776831,-4.91177426391542,-0.6296016060587019
1761391673866441700,8.613441650390625,3.7488475061178206,-5.121233006909489,-1.397233672452718
1761391673876507600,8.623507568359376,3.324604441192746,-4.445200416000187,-1.5252188318528235
1761391673886574800,8.633574951171875,3.348752794021368,-3.680343001951277,-1.0921570851780473
1761391673896640800,8.643640869140626,3.0972067214041945,-3.0122172386437653,-0.34470099738296117
1761391673906706700,8.653706787109375,2.320218724578619,-2.022678962549567,0.23547007668297737
1761391673916772900,8.66377294921875,1.4535451961308716,-0.8687088336676358,1.0208043519735335
1761391673926838500,8.673838623046874,0.8661901288449764,-0.1269391118127387,1.8830653246760367
1761391673936904700,8.68390478515625,0.21153671831190585,-0.2879299847005866,2.4848820480346676
1761391673946970600,8.693970703125,-0.032311201018095016,-0.7766950782936066,2.2289722272500394
1761391673957037600,8.70403759765625,0.5108814839363098,-1.420737151506543,1.1336929914634675
1761391673967103700,8.714103759765624,0.8176806572198867,-2.5597943734169006,-0.3062707654953003
1761391673977169700,8.724169677734375,0.6887918269783257,-2.9077558704331516,-1.9649547955945132
1761391673987235800,8.73423583984375,-1.2619909431397913,-1.9365826875910161,-2.4739067727729678
1761391673997301800,8.7443017578125,-3.9030239223510024,-0.2949906803344376,-2.2559306690633294
1761391674007368000,8.754367919921876,-5.618406868010759,1.005875224519521,-2.2000861783750354
1761391674017433600,8.76443359375,-6.195939044940471,1.2451957295529543,-1.3630145919866858
1761391674027500800,8.774500732421876,-5.772330186265707,1.3615022877275942,-0.11399513942711055
1761391674037566700,8.784566650390625,-4.242101563426852,1.766947713202238,0.4329904350042343
1761391674047632600,8.794632568359376,-2.262677805235982,1.7395305678360162,0.6364727339372038
1761391674057698800,8.80469873046875,-0.5403413871765136,1.3638488508537412,0.49013358720093964
1761391674067764700,8.8147646484375,0.6189075588911771,0.8421913405548781,0.2724698373761028
1761391674077831000,8.824830810546874,0.9995072969228028,0.3678956662159413,0.36689781428501006
1761391674087897900,8.83489794921875,1.1811644252777098,0.2919503079915419,0.4503516849759966
1761391674097963800,8.8449638671875,1.3642360966056584,0.12885719299428164,0.3778144912272692
1761391674108030000,8.855030029296875,1.4131284300684928,-0.28466749403961,0.5465974518965929
1761391674118095600,8.865095703125,1.4216875840991734,-0.444240033695288,0.7511724414370954
1761391674128161800,8.875161865234375,1.392081550386548,-0.38979613051991907,0.880225449264422
1761391674138227700,8.885227783203124,1.1191145040780306,-0.23713603713382034,0.7303917384106665
1761391674148294700,8.895294677734375,0.768082221314311,-0.02669496857151389,0.38003150968961413
1761391674158360800,8.90536083984375,0.6816027922570705,0.054307271183654665,-0.018811667975783347
1761391674168426800,8.9154267578125,0.9129524645417928,0.05730988706573844,-0.12444682920612395
1761391674178492700,8.92549267578125,1.1895686810076236,0.10805420507080853,0.07301840139441192
1761391674188558800,8.935558837890625,1.4238713578790425,0.25967677210271356,0.15032492843680084
1761391674198624800,8.945624755859376,1.3839841686487198,0.2054786603819579,0.07696173219271003
1761391674208690700,8.955690673828125,0.8944318884670733,0.05021956347860396,0.016888371763005852
1761391674218758000,8.9657578125,0.13085048570334912,-0.0779794578678906,0.023718802304938433
1761391674228823600,8.975823486328125,-0.5853484036386013,0.13710501605346798,0.013487111952155828
1761391674238889700,8.9858896484375,-1.219609599006176,0.5208692094653844,0.011302899780869484
1761391674248955600,8.99595556640625,-1.4660241539537906,0.5761964713465422,0.0573426933567971
1761391674259021800,9.006021728515625,-1.1480290483951567,0.4968504013005644,0.17441468294598161
1761391674269087700,9.016087646484374,-0.4913303957700729,0.5188870957374573,0.2667395500957966
1761391674279154000,9.02615380859375,0.18986556925177572,0.400131902301684,0.3612658728126436
1761391674289220900,9.036220947265624,0.6285445712864398,0.22920257725343107,0.44922209642417726
1761391674299286800,9.046286865234375,0.7934615772426128,0.0738351246047765,0.42876931017786263
1761391674309352700,9.056352783203126,0.6297165376752615,-0.0149593033965677,0.2569300306778401
1761391674319418600,9.066418701171875,0.3725444418698549,0.02679506794512272,0.04160393002033234
1761391674329484800,9.07648486328125,0.3019377047270536,0.056497840030491346,0.03152881846874952
1761391674339550700,9.08655078125,0.3035211745262146,-0.07184877309314906,-0.022326032772287726
1761391674349617700,9.09661767578125,0.18982406819760797,-0.06082403266653418,-0.1459117151044309
1761391674359683800,9.106683837890625,-0.1124853924512863,-0.0399254023488611,-0.2853999730326235
1761391674369749800,9.116749755859376,-0.2153606605142355,-0.08442878013774752,-0.24458587821573016
1761391674379816000,9.12681591796875,-0.24943828668296336,-0.19650113480873405,-0.1693561574473977
1761391674389881900,9.1368818359375,0.0856897399842739,-0.18553711159341035,-0.13916136406138538
1761391674399947500,9.146947509765624,0.41588557094633577,-0.38555575300380585,0.15411226495578884
1761391674410013700,9.157013671875,0.38241935467422006,-0.3050030105818063,0.5899444992572069
1761391674420080600,9.16708056640625,0.6142074183762073,0.13971410257332026,0.917695713546127
1761391674430146800,9.177146728515625,0.33072248518466946,0.033604528764262794,1.0987453775271772
1761391674440212700,9.187212646484374,0.11622633254528045,0.02722761414349079,0.562285361828655
1761391674450278700,9.197278564453125,0.08220715856552123,-0.2561447985842824,0.33571649407967924
1761391674460344800,9.2073447265625,-0.10622574753463268,-0.38099063704535363,0.21844094474241135
1761391674470410800,9.21741064453125,-0.19410043034255503,-0.30603578769564627,0.12752484841197728
1761391674480478000,9.22747802734375,-0.028256957191228865,-0.16823168346211312,0.3431869760908186
1761391674490544000,9.237544189453125,-0.03479658809304237,-0.06233531401231884,0.5692667451485991
