time,seconds_elapsed,z,y,x
1761391665330347500,0.077347412109375,0.17883551120758057,0.14724868535995483,-0.05956896394491196
1761391665340413700,0.08741357421875,0.18473441898822784,0.17307308316230774,-0.10974158346652985
1761391665350479600,0.097479736328125,0.19913387298583984,0.17578262090682983,-0.15768258273601532
1761391665360545500,0.107545654296875,0.2162579894065857,0.16059301793575287,-0.17326153814792633
1761391665370612700,0.11761279296875,0.23934713006019592,0.13903458416461945,-0.1566421389579773
1761391665380678700,0.1276787109375,0.2649427652359009,0.10387419164180756,-0.11992194503545761
1761391665390744600,0.13774462890625,0.28119412064552307,0.03873363509774208,-0.07409925013780594
1761391665400810800,0.147810791015625,0.314935564994812,-0.026782255619764328,-0.045002616941928864
1761391665410876400,0.15787646484375,0.3410302400588989,-0.07413948327302933,-0.034558627754449844
1761391665420942600,0.167942626953125,0.3604601323604584,-0.12473341822624207,-0.03580179065465927
1761391665431008500,0.178008544921875,0.37473809719085693,-0.1699782907962799,-0.0502493754029274
1761391665441075500,0.188075439453125,0.38718757033348083,-0.18706060945987701,-0.08011247217655182
1761391665451141600,0.1981416015625,0.40374699234962463,-0.18276876211166382,-0.1286744326353073
1761391665461207600,0.20820751953125,0.41132715344429016,-0.15735554695129395,-0.19123581051826477
1761391665471274500,0.2182744140625,0.41271647810935974,-0.1232495978474617,-0.25371477007865906
1761391665481340400,0.22834033203125,0.4131614863872528,-0.09898926317691803,-0.2943812310695648
1761391665491406300,0.23840625,0.4015800952911377,-0.10811984539031982,-0.27501872181892395
1761391665501473500,0.2484736328125,0.3783552050590515,-0.12161194533109665,-0.20271708071231842
1761391665511539500,0.25853955078125,0.3726758360862732,-0.13117705285549164,-0.12154269218444824
1761391665521605400,0.26860546875,0.37953054904937744,-0.1531289517879486,-0.07453550398349762
1761391665531671300,0.27867138671875,0.4047287702560425,-0.17174962162971497,-0.06746262311935425
1761391665541737200,0.2887373046875,0.4362401068210602,-0.15350110828876495,-0.10815200209617615
1761391665551803400,0.298803466796875,0.4487283527851105,-0.0660744458436966,-0.19930197298526764
1761391665561869300,0.308869384765625,0.4423348903656006,0.07506509125232697,-0.2787637710571289
1761391665571936300,0.318936279296875,0.4268534779548645,0.19682495296001434,-0.3660035729408264
1761391665582002400,0.32900244140625,0.39485904574394226,0.2688693106174469,-0.4694862961769104
1761391665592068400,0.339068359375,0.37433403730392456,0.36547917127609253,-0.5211603045463562
1761391665602134500,0.349134521484375,0.32977429032325745,0.44799667596817017,-0.5308414697647095
1761391665612200200,0.3592001953125,0.2694651782512665,0.47128793597221375,-0.5143626928329468
1761391665622266400,0.369266357421875,0.21983638405799866,0.4300038814544678,-0.49063950777053833
1761391665632332300,0.379332275390625,0.19922026991844177,0.2963983416557312,-0.4717831611633301
1761391665642399200,0.389399169921875,0.1911652684211731,0.12245422601699829,-0.4489055275917053
1761391665652465400,0.39946533203125,0.1827964037656784,-0.02839338593184948,-0.3952583968639374
1761391665662531300,0.40953125,0.17343512177467346,-0.19173064827919006,-0.3062065541744232
1761391665672597500,0.419597412109375,0.15696564316749573,-0.35984405875205994,-0.18599846959114075
1761391665682663400,0.429663330078125,0.15359434485435486,-0.5222686529159546,-0.08502683788537979
1761391665692729600,0.4397294921875,0.16019994020462036,-0.6352248191833496,-0.04097454622387886
1761391665702795300,0.449795166015625,0.17467528581619263,-0.7017300724983215,-0.05287887528538704
1761391665712862500,0.459862548828125,0.18994022905826569,-0.737457811832428,-0.1096179261803627
1761391665722928400,0.469928466796875,0.18205194175243378,-0.7107311487197876,-0.1699688881635666
1761391665732994300,0.479994384765625,0.13621123135089874,-0.6307859420776367,-0.21484830975532532
1761391665743060200,0.490060302734375,0.07562697678804398,-0.5301842093467712,-0.2303425818681717
1761391665753126400,0.50012646484375,0.034568142145872116,-0.40422993898391724,-0.21273048222064972
1761391665763192300,0.5101923828125,0.003938594833016396,-0.26422569155693054,-0.17933790385723114
1761391665773259500,0.520259521484375,0.0018049818463623524,-0.10716314613819122,-0.154120534658432
1761391665783325400,0.530325439453125,0.009364897385239601,0.09511006623506546,-0.11915643513202667
1761391665793391400,0.540391357421875,0.02026401273906231,0.1927037090063095,-0.08800404518842697
1761391665803457300,0.550457275390625,0.032754238694906235,0.2812383770942688,-0.022898012772202492
1761391665813523200,0.560523193359375,0.05393160507082939,0.27321821451187134,0.049735214561223984
1761391665823589400,0.57058935546875,0.0743418037891388,0.19970858097076416,0.11468705534934998
1761391665833655300,0.5806552734375,0.08743205666542053,0.06844992190599442,0.16287843883037567
1761391665843722200,0.59072216796875,0.09587854146957397,-0.07816348224878311,0.189325749874115
1761391665853788400,0.600788330078125,0.07569929957389832,-0.21691323816776276,0.21879898011684418
1761391665863854300,0.610854248046875,0.05461691692471504,-0.34101706743240356,0.23220214247703552
1761391665873920500,0.62092041015625,0.018774202093482018,-0.3759112060070038,0.22212423384189606
1761391665883986400,0.630986328125,-0.048758234828710556,-0.24366234242916107,0.22348538041114807
1761391665894052400,0.64105224609375,-0.11842690408229828,-0.09789644181728363,0.19216588139533997
1761391665904118300,0.6511181640625,-0.15808962285518646,-0.00439099594950676,0.13903315365314484
1761391665914185200,0.661185302734375,-0.16362164914608002,0.035051129758358,0.05656203627586365
1761391665924251400,0.67125146484375,-0.14418137073516846,0.0082101970911026,-0.06846938282251358
1761391665934317300,0.6813173828125,-0.10957413911819458,-0.09721716493368149,-0.23122714459896088
1761391665944383500,0.691383544921875,-0.07075536996126175,-0.20113582909107208,-0.39275211095809937
1761391665954449400,0.701449462890625,-0.053908124566078186,-0.3016148805618286,-0.521790623664856
1761391665964515300,0.711515380859375,-0.10275023430585861,-0.3478097915649414,-0.530900239944458
1761391665974581500,0.72158154296875,-0.20280370116233826,-0.3141343295574188,-0.3788228929042816
1761391665984648400,0.7316484375,-0.27029138803482056,-0.2601432502269745,-0.1094297543168068
1761391665994714400,0.74171435546875,-0.2236863523721695,-0.2113874852657318,0.20858000218868256
1761391666004780300,0.7517802734375,-0.0705636590719223,-0.14011436700820923,0.49489301443099976
1761391666014846200,0.76184619140625,0.12604713439941406,-0.039464741945266724,0.6942417025566101
1761391666024912400,0.771912353515625,0.3310607373714447,0.05208754539489746,0.7642900347709656
1761391666034978300,0.781978271484375,0.49746015667915344,0.12595629692077637,0.7180470824241638
1761391666045044500,0.79204443359375,0.5854073166847229,0.19367489218711853,0.5971055030822754
1761391666055111400,0.802111328125,0.5866848230361938,0.2577888071537018,0.4783114790916443
1761391666065177300,0.81217724609375,0.5269245505332947,0.29064369201660156,0.39770054817199707
1761391666075243500,0.822243408203125,0.44212114810943604,0.2676035761833191,0.36732786893844604
1761391666085309200,0.83230908203125,0.3548506796360016,0.19955474138259888,0.38818469643592834
1761391666095375400,0.842375244140625,0.2917045056819916,0.10902800410985947,0.441394567489624
1761391666105441300,0.852441162109375,0.25833138823509216,-0.03133337199687958,0.49175360798835754
1761391666115508200,0.86250830078125,0.2523707151412964,-0.18849655985832214,0.5039803981781006
1761391666125574400,0.872574462890625,0.19131028652191162,-0.30980515480041504,0.5213125348091125
1761391666135640300,0.882640380859375,-0.10786514729261398,-0.3634524941444397,0.6602652668952942
1761391666145706500,0.89270654296875,-0.2813671827316284,-0.40440472960472107,0.6326006650924683
1761391666155772400,0.9027724609375,-0.39960041642189026,-0.4003446400165558,0.4752872586250305
1761391666165838600,0.912838623046875,-0.49487635493278503,-0.4500115215778351,0.3137092888355255
1761391666175904300,0.922904296875,-0.5543575882911682,-0.37411171197891235,0.17481747269630432
1761391666185971200,0.93297119140625,-0.595029890537262,-0.16739024221897125,0.04231509938836098
1761391666196037400,0.943037353515625,-0.6199584007263184,0.07212214171886444,-0.07291526347398758
1761391666206103300,0.953103271484375,-0.6103166937828064,0.19037555158138275,-0.1573728770017624
1761391666216169500,0.96316943359375,-0.5255314111709595,0.255087286233902,-0.17088520526885986
1761391666226235400,0.9732353515625,-0.3916876018047333,0.3027195334434509,-0.11758256703615189
1761391666236301300,0.98330126953125,-0.28387632966041565,0.3214840590953827,0.007878055796027184
1761391666246367500,0.993367431640625,-0.22104249894618988,0.28778040409088135,0.1621858775615692
1761391666256434400,1.003434326171875,-0.18607895076274872,0.21699537336826324,0.30938804149627686
1761391666266500400,1.013500244140625,-0.16407938301563263,0.12226593494415283,0.36755600571632385
1761391666276566300,1.023566162109375,-0.14394024014472961,0.05256897956132889,0.3099229335784912
1761391666286632200,1.033632080078125,-0.12036141008138657,0.017772115767002106,0.1792706549167633
1761391666296698400,1.043698486328125,-0.09412454068660736,0.018246840685606003,0.044324878603219986
1761391666306764300,1.053764404296875,-0.06838934868574142,0.012460057623684406,-0.05492447689175606
1761391666316830500,1.06383056640625,-0.05286259949207306,-0.011249551549553871,-0.11119554936885834
1761391666326897400,1.0738974609375,-0.05541390925645828,-0.032582804560661316,-0.1057262122631073
1761391666336963300,1.08396337890625,-0.08742894232273102,-0.03499304875731468,-0.03431641682982445
1761391666347029500,1.094029541015625,-0.1342979222536087,-0.02012728340923786,0.07583858072757721
1761391666357095400,1.104095458984375,-0.1791864037513733,-0.011087002232670784,0.1648217886686325
1761391666367161300,1.114161376953125,-0.1937381774187088,0.00296144001185894,0.20123066008090973
1761391666377227300,1.124227294921875,-0.1945299357175827,0.02822072245180607,0.17473699152469635
1761391666387293400,1.13429345703125,-0.1849452257156372,0.06098106503486633,0.1029062271118164
1761391666397360400,1.1443603515625,-0.16223937273025513,0.07808201760053635,0.029048506170511246
1761391666407426300,1.15442626953125,-0.1323462873697281,0.06134144216775894,0.0036237663589417934
1761391666417492500,1.164492431640625,-0.09493547677993774,-0.07504130899906158,-0.050952449440956116
1761391666427558400,1.174558349609375,-0.0380447693169117,-0.09124958515167236,-0.029535574838519096
1761391666437624600,1.18462451171875,0.024071644991636276,-0.09446152299642563,-0.024557195603847504
1761391666447690500,1.1946904296875,0.04504430294036865,-0.0623917356133461,-0.0005570542998611927
1761391666457757400,1.20475732421875,0.014635559171438217,0.024887565523386,0.046371012926101685
1761391666467822800,1.21482275390625,-0.05835476145148277,0.10353869944810867,0.10307130962610245
1761391666477888800,1.224888671875,-0.11625918000936508,0.12057338654994965,0.1414763331413269
1761391666487955000,1.234954833984375,-0.12249203771352768,0.1169874370098114,0.13982410728931427
1761391666498020900,1.245020751953125,-0.07248609513044357,0.12423558533191681,0.06370124220848083
1761391666508086800,1.255086669921875,0.014994755387306213,0.1441086381673813,-0.05597748979926109
1761391666518152700,1.265152587890625,0.10008575022220612,0.15890315175056458,-0.14812523126602173
1761391666528219600,1.2752197265625,0.15266959369182587,0.17729228734970093,-0.18844282627105713
1761391666538285800,1.285285888671875,0.15551701188087463,0.18158230185508728,-0.17964033782482147
1761391666548351700,1.295351806640625,0.12841108441352844,0.18721941113471985,-0.12367720156908035
1761391666558418000,1.30541796875,0.08232323080301285,0.17706400156021118,-0.04553491622209549
1761391666568483800,1.31548388671875,0.042715102434158325,0.1720290333032608,0.023329103365540504
1761391666578549800,1.3255498046875,0.01837213896214962,0.1646609604358673,0.050279390066862106
1761391666588616000,1.335615966796875,0.014659692533314228,0.1621496081352234,0.05385894328355789
1761391666598683000,1.345682861328125,0.01753496192395687,0.1773732751607895,0.04603081941604614
1761391666608748800,1.355748779296875,0.03606710210442543,0.18681152164936066,0.0378330796957016
1761391666618814700,1.365814697265625,0.06621246039867401,0.1760174185037613,0.03339361399412155
1761391666628880600,1.375880615234375,0.10206712782382965,0.16714295744895935,0.021875442937016487
1761391666638946800,1.38594677734375,0.1369359940290451,0.13747328519821167,0.02369769662618637
1761391666649012700,1.3960126953125,0.16446855664253235,0.1011405736207962,0.04012647271156311
1761391666659079000,1.406078857421875,0.18204276263713837,0.08118847012519836,0.052039749920368195
1761391666669145900,1.416145751953125,0.18373413383960724,0.10387887060642242,0.06274192780256271
1761391666679211800,1.426211669921875,0.17727281153202057,0.13773570954799652,0.04805004224181175
1761391666689278000,1.43627783203125,0.16245578229427338,0.17174027860164642,0.03574464097619057
1761391666699343600,1.446343505859375,0.14368240535259247,0.22386373579502106,0.040496572852134705
1761391666709409800,1.456409912109375,0.13845382630825043,0.25596147775650024,0.04974786192178726
1761391666719475700,1.466475830078125,0.14477966725826263,0.24754855036735535,0.05602651461958885
1761391666729542700,1.476542724609375,0.15638838708400726,0.2129519283771515,0.061398912221193314
1761391666739608800,1.48660888671875,0.16389620304107666,0.1698513776063919,0.07747139036655426
1761391666749674800,1.4966748046875,0.17104598879814148,0.13683803379535675,0.07938141375780106
1761391666759741000,1.506740966796875,0.1900833547115326,0.11098542809486389,0.07479766011238098
1761391666769806800,1.516806884765625,0.2118818461894989,0.08825507760047913,0.05974600464105606
1761391666779872800,1.526872802734375,0.23519107699394226,0.08201337605714798,0.031399015337228775
1761391666789938700,1.536938720703125,0.23913708329200745,0.09012776613235474,0.016358278691768646
1761391666800006000,1.547005859375,0.23770686984062195,0.08369722962379456,0.01747136190533638
1761391666810071800,1.55707177734375,0.22632159292697906,0.06739122420549393,0.01657760515809059
1761391666820137700,1.5671376953125,0.22454290091991425,0.048775702714920044,0.00017438409850001335
1761391666830203600,1.57720361328125,0.22717490792274475,0.0357549749314785,-0.02943836897611618
1761391666840269800,1.587269775390625,0.2352289855480194,0.03188929334282875,-0.05721435695886612
1761391666850335700,1.597335693359375,0.25665199756622314,0.03941511735320091,-0.07920700311660767
1761391666860402000,1.60740185546875,0.27921169996261597,0.054444026201963425,-0.0818767175078392
1761391666870468900,1.61746875,0.2995622456073761,0.06014079228043556,-0.05189058929681778
1761391666880534800,1.62753466796875,0.30653876066207886,0.04885489493608475,0.017033923417329788
1761391666890600700,1.6376005859375,0.31446459889411926,0.020440297201275826,0.08205180615186691
1761391666900666600,1.64766650390625,0.3311448097229004,0.009025550447404385,0.10207224637269974
1761391666910732800,1.65773291015625,0.3521723449230194,-0.0014382749795913696,0.06912282109260559
1761391666920798700,1.667798828125,0.361405611038208,0.004632980562746525,-0.02627689205110073
1761391666930865000,1.677864990234375,0.37113654613494873,0.04039550572633743,-0.17081809043884277
1761391666940931800,1.687931884765625,0.37411800026893616,0.10569767653942108,-0.314494788646698
1761391666950997800,1.697997802734375,0.3806419372558594,0.16771630942821503,-0.41862305998802185
1761391666961064000,1.70806396484375,0.38242974877357483,0.23568817973136902,-0.4676153063774109
1761391666971129900,1.7181298828125,0.40477871894836426,0.2899911105632782,-0.46715059876441956
1761391666981195800,1.72819580078125,0.44113942980766296,0.3322828412055969,-0.4232376217842102
1761391666991261700,1.73826171875,0.48737987875938416,0.3437291085720062,-0.3584972620010376
1761391667001327900,1.748327880859375,0.5582922101020813,0.40782564878463745,-0.2232626974582672
1761391667011394800,1.758394775390625,0.7066531777381897,0.3858838677406311,-0.1341163069009781
1761391667021460700,1.768460693359375,0.7345836162567139,0.2610447406768799,-0.06583339720964432
1761391667031527000,1.77852685546875,0.7095474600791931,0.13457921147346497,-0.0037979893386363983
1761391667041592800,1.7885927734375,0.6700013875961304,0.021079208701848984,0.020324338227510452
1761391667051658800,1.79865869140625,0.6075814366340637,-0.06156746670603752,0.016201764345169067
1761391667061725000,1.808724853515625,0.5534526109695435,-0.11301141232252121,-0.028556915000081062
1761391667071790600,1.81879052734375,0.5247668623924255,-0.12431120127439499,-0.10329160839319229
1761391667081857800,1.82885791015625,0.5101985931396484,-0.10593339800834656,-0.19574415683746338
1761391667091923700,1.838923828125,0.5083170533180237,-0.0708443894982338,-0.2723177969455719
1761391667101989600,1.84898974609375,0.5304126739501953,-0.03766944259405136,-0.313212513923645
1761391667112055800,1.859055908203125,0.5603433847427368,0.009448535740375519,-0.3128114342689514
1761391667122121700,1.869121826171875,0.5694060325622559,0.03213401511311531,-0.2994967997074127
1761391667132188000,1.87918798828125,0.5694134831428528,-0.022895414382219315,-0.3390394151210785
1761391667142253800,1.88925390625,0.5445070266723633,-0.11345763504505157,-0.4615092873573303
1761391667152320800,1.89932080078125,0.46076738834381104,-0.2461368441581726,-0.652434766292572
1761391667162387000,1.909386962890625,0.32613298296928406,-0.41193583607673645,-0.8568288683891296
1761391667172452600,1.91945263671875,0.1773480325937271,-0.5387904644012451,-1.0455868244171143
1761391667182518800,1.929518798828125,0.010554412379860878,-0.5988837480545044,-1.172916293144226
1761391667192584700,1.939584716796875,-0.1546848863363266,-0.6021495461463928,-1.1962889432907104
1761391667202651000,1.94965087890625,-0.29098787903785706,-0.5461086630821228,-1.1355735063552856
1761391667212717800,1.9597177734375,-0.3771784007549286,-0.4328950345516205,-1.0182018280029297
1761391667222783700,1.96978369140625,-0.4068794250488281,-0.31599485874176025,-0.889523446559906
1761391667232850000,1.979849853515625,-0.3776477873325348,-0.17759491503238678,-0.7691096663475037
1761391667242915800,1.989915771484375,-0.29399874806404114,-0.07386860996484756,-0.6827717423439026
1761391667252982000,1.99998193359375,-0.1774848997592926,-0.07887561619281769,-0.6783391833305359
1761391667263047700,2.010047607421875,-0.06404056400060654,-0.0915960744023323,-0.6898690462112427
1761391667273113600,2.020113525390625,0.01802208088338375,-0.07518701255321503,-0.6079502105712891
1761391667283180800,2.030180908203125,0.032898738980293274,-0.05630951374769211,-0.38437142968177795
1761391667293246700,2.040246826171875,0.015631066635251045,0.022010859102010727,-0.15504662692546844
1761391667303313000,2.05031298828125,0.013555509969592094,0.18183842301368713,-0.057728931307792664
1761391667313378800,2.06037890625,-0.04339965060353279,0.5092701315879822,-0.14122168719768524
1761391667323444700,2.07044482421875,-0.13779674470424652,0.9561237096786499,-0.3937571048736572
1761391667333511000,2.080510986328125,-0.18825671076774597,1.1800955533981323,-0.8843438029289246
1761391667343576800,2.090576904296875,-0.199258491396904,1.102129340171814,-1.4354556798934937
1761391667353643800,2.100643798828125,-0.22691647708415985,0.7453561425209045,-1.7476623058319092
1761391667363709700,2.110709716796875,-0.26307663321495056,0.09593572467565536,-1.6332035064697266
1761391667373775600,2.120775634765625,-0.3043369948863983,-0.5691072344779968,-1.0973678827285767
1761391667383841800,2.130841796875,-0.26696839928627014,-1.0828979015350342,-0.3669353723526001
1761391667393907700,2.14090771484375,-0.0916098952293396,-1.2390198707580566,0.3830145299434662
1761391667403974000,2.150973876953125,0.11082161217927933,-0.919906497001648,1.0254698991775513
1761391667414039800,2.161039794921875,0.27100250124931335,-0.363336443901062,1.3055715560913086
1761391667424106800,2.171106689453125,0.40314552187919617,0.19003693759441376,1.2026246786117554
1761391667434173000,2.1811728515625,0.43570080399513245,0.5272796750068665,0.8590185046195984
1761391667444238800,2.19123876953125,0.30889421701431274,0.543016254901886,0.4810204803943634
1761391667454304800,2.2013046875,-0.008659763261675835,0.19120092689990997,0.2497372180223465
1761391667464370700,2.21137060546875,-0.40844666957855225,-0.277094304561615,0.2212362438440323
1761391667474436600,2.2214365234375,-0.7299575805664062,-0.741611897945404,0.3253477215766907
1761391667484502500,2.23150244140625,-0.9327054619789124,-1.0823416709899902,0.4417824149131775
1761391667494569500,2.241569580078125,-1.0783827304840088,-1.1999555826187134,0.4504730999469757
1761391667504635600,2.2516357421875,-1.2120702266693115,-0.9373664259910583,0.34469178318977356
1761391667514701600,2.26170166015625,-1.3691860437393188,-0.36463525891304016,0.18143495917320251
1761391667524767700,2.271767822265625,-1.495490312576294,0.37497517466545105,-0.06146858260035515
1761391667534833400,2.28183349609375,-1.5747456550598145,0.9818762540817261,-0.3861430883407593
1761391667544899600,2.291899658203125,-1.669222354888916,1.3120776414871216,-0.6500924229621887
1761391667554966500,2.301966552734375,-1.7495462894439697,1.4245895147323608,-0.7881965041160583
1761391667565032400,2.312032470703125,-1.7631546258926392,1.3262501955032349,-0.7481400370597839
1761391667575098600,2.3220986328125,-1.716624140739441,1.0641045570373535,-0.5619270205497742
1761391667585164500,2.33216455078125,-1.6054421663284302,0.7729527950286865,-0.2695675492286682
1761391667595230500,2.34223046875,-1.433197259902954,0.532103955745697,0.05176841467618942
1761391667605296600,2.352296630859375,-1.236642599105835,0.39278340339660645,0.33785611391067505
1761391667615362600,2.362362548828125,-1.072183609008789,0.4147816598415375,0.5840851068496704
1761391667625428500,2.372428466796875,-0.9454057812690735,0.5815997123718262,0.7258697748184204
1761391667635495700,2.38249560546875,-0.8406404852867126,0.8786374926567078,0.7268573045730591
1761391667645561300,2.392561279296875,-0.745533287525177,1.1896202564239502,0.622320830821991
1761391667655627500,2.40262744140625,-0.6316245794296265,1.4258160591125488,0.45626768469810486
1761391667665693400,2.412693359375,-0.48748159408569336,1.4702458381652832,0.24307002127170563
1761391667675759600,2.422759521484375,-0.30198922753334045,1.3998310565948486,0.0462334081530571
1761391667685825500,2.432825439453125,-0.09215213358402252,1.202771782875061,-0.09705158323049545
1761391667695892500,2.442892578125,0.08289628475904465,0.8528183698654175,-0.17453359067440033
1761391667705958700,2.452958740234375,0.22241215407848358,0.3840557932853699,-0.1678643673658371
1761391667716024600,2.463024658203125,0.318331241607666,-0.07999099045991898,-0.13077692687511444
1761391667726090500,2.473090576171875,0.27517810463905334,-0.3959510922431946,-0.08847400546073914
1761391667736156400,2.483156494140625,0.12442240864038467,-0.5441138744354248,-0.01797800324857235
1761391667746222600,2.49322265625,-0.0694686770439148,-0.5314143300056458,0.09368517994880676
1761391667756288500,2.50328857421875,-0.26127591729164124,-0.4134996831417084,0.17860300838947296
1761391667766355500,2.51335546875,-0.41093260049819946,-0.2679276764392853,0.17309902608394623
1761391667776421600,2.523421630859375,-0.514836311340332,-0.0964488685131073,0.05485440790653229
1761391667786487600,2.533487548828125,-0.5647033452987671,0.08030430972576141,-0.16446758806705475
1761391667796553700,2.5435537109375,-0.5525673627853394,0.20015615224838257,-0.4352301061153412
1761391667806619600,2.55361962890625,-0.4826416075229645,0.2119692862033844,-0.6993538737297058
1761391667816685300,2.563685302734375,-0.3723931312561035,0.14253854751586914,-0.9008377194404602
1761391667826751500,2.57375146484375,-0.25041207671165466,-0.013120763935148716,-0.9826419949531555
1761391667836818400,2.583818359375,-0.20056354999542236,-0.17318767309188843,-0.9095308184623718
1761391667846884600,2.593884521484375,-0.18947084248065948,-0.25893816351890564,-0.7092199325561523
1761391667856950500,2.603950439453125,-0.13086079061031342,-0.26558515429496765,-0.5068897008895874
1761391667867016400,2.614016357421875,0.04175534471869469,-0.2183213233947754,-0.3723430037498474
1761391667877082600,2.62408251953125,0.32358065247535706,-0.143541619181633,-0.293323814868927
1761391667887148500,2.6341484375,0.6141342520713806,-0.09408961981534958,-0.3067919909954071
1761391667897214700,2.644214599609375,0.7993925213813782,-0.19250167906284332,-0.5001143217086792
1761391667907281700,2.65428173828125,0.831541121006012,-0.43296143412590027,-0.913977324962616
1761391667917347300,2.664347412109375,0.7136176824569702,-0.6515443921089172,-1.4567912817001343
1761391667927413500,2.67441357421875,0.50534987449646,-0.6967598795890808,-2.0177648067474365
1761391667937479400,2.6844794921875,0.34769099950790405,-0.7637418508529663,-2.3658764362335205
1761391667947545600,2.694545654296875,0.39154940843582153,-0.7710630297660828,-2.18108868598938
1761391667957611500,2.704611572265625,0.770714282989502,-0.72173672914505,-1.4585926532745361
1761391667967678500,2.714678466796875,1.4558799266815186,-0.513472318649292,-0.44919297099113464
1761391667977744600,2.72474462890625,2.1250972747802734,-0.24286243319511414,0.4963698387145996
1761391667987810600,2.734810546875,2.539715528488159,-0.04950430244207382,1.124550461769104
1761391667997876700,2.744876708984375,2.5935614109039307,0.06736106425523758,1.3729312419891357
1761391668007942400,2.7549423828125,2.3174784183502197,0.04370077699422836,1.2567164897918701
1761391668018008600,2.765008544921875,1.789855718612671,-0.047933004796504974,0.8394430875778198
1761391668028074500,2.775074462890625,1.112770676612854,-0.2080518901348114,0.2297983318567276
1761391668038141400,2.785141357421875,0.3954806625843048,-0.39878135919570923,-0.4065256416797638
1761391668048207600,2.79520751953125,-0.2594764530658722,-0.5369899272918701,-0.9201005101203918
1761391668058273500,2.8052734375,-0.7806624174118042,-0.5243295431137085,-1.2356024980545044
1761391668068339700,2.815339599609375,-1.1487735509872437,-0.3622870147228241,-1.3841581344604492
1761391668078405600,2.825405517578125,-1.4356366395950317,0.05024462565779686,-1.508677363395691
1761391668088471600,2.835471435546875,-1.743546724319458,0.5904676914215088,-1.649807095527649
1761391668098537500,2.845537353515625,-2.1074106693267822,1.2164082527160645,-1.7748805284500122
1761391668108604400,2.8556044921875,-2.4625866413116455,1.8251863718032837,-1.8058950901031494
1761391668118670300,2.86567041015625,-2.706259250640869,2.1725399494171143,-1.4485242366790771
1761391668128736500,2.875736572265625,-2.8254311084747314,2.2602293491363525,-0.8058294653892517
1761391668138802400,2.885802490234375,-2.5928008556365967,2.0792815685272217,-0.1264631748199463
1761391668148868600,2.89586865234375,-2.0314993858337402,1.7835029363632202,0.40553924441337585
1761391668158934500,2.9059345703125,-1.55399751663208,1.2566367387771606,0.8547319173812866
1761391668169000700,2.916000732421875,-1.0484001636505127,0.7309421300888062,1.2122523784637451
1761391668179067600,2.926067626953125,-0.5603801608085632,0.402304083108902,1.4275000095367432
1761391668189133600,2.936133544921875,-0.1922650784254074,0.24193443357944489,1.4972203969955444
1761391668199199500,2.946199462890625,0.03163513168692589,0.2272161990404129,1.437340497970581
1761391668209265400,2.956265380859375,0.11180515587329865,0.325100302696228,1.295166015625
1761391668219331600,2.96633154296875,0.08772511780261993,0.44265222549438477,1.0871622562408447
1761391668229397500,2.9763974609375,0.004445717670023441,0.579095721244812,0.8562608957290649
1761391668239463700,2.986463623046875,-0.0837446004152298,0.6946113705635071,0.6193581223487854
1761391668249530600,2.996530517578125,-0.1376313418149948,0.8101983666419983,0.39699840545654297
1761391668259596500,3.006596435546875,-0.11388447135686874,0.8568923473358154,0.18688592314720154
1761391668269662700,3.016662841796875,0.003326886799186468,0.8378382325172424,0.03975062072277069
1761391668279728600,3.026728759765625,0.19718344509601593,0.7378631830215454,-0.03201810643076897
1761391668289794600,3.036794677734375,0.41679465770721436,0.500694990158081,-0.03741003945469856
1761391668299860500,3.046860595703125,0.6028434038162231,0.13699163496494293,0.009731108322739601
1761391668309926400,3.056926513671875,0.7485113739967346,-0.29848572611808777,0.07551443576812744
1761391668319993600,3.06699365234375,0.861689567565918,-0.7269388437271118,0.13639695942401886
1761391668330059500,3.0770595703125,0.9482541680335999,-1.0788191556930542,0.17171502113342285
1761391668340125400,3.08712548828125,1.0074650049209595,-1.3167593479156494,0.15252748131752014
1761391668350191600,3.097191650390625,1.0668315887451172,-1.4417744874954224,0.0811450257897377
1761391668360257500,3.107257568359375,1.1221832036972046,-1.5141386985778809,-0.008492982015013695
1761391668370323700,3.11732373046875,1.1679151058197021,-1.6053909063339233,-0.09885986894369125
1761391668380389400,3.127389404296875,1.1757432222366333,-1.7015897035598755,-0.21216166019439697
1761391668390456300,3.137456298828125,1.1796858310699463,-1.8073126077651978,-0.34847381711006165
1761391668400522500,3.1475224609375,1.207884430885315,-1.9281234741210938,-0.5359350442886353
1761391668410588400,3.15758837890625,1.2709256410598755,-2.078450918197632,-0.7011639475822449
1761391668420654600,3.167654541015625,1.4115211963653564,-2.210822343826294,-0.6624964475631714
1761391668430720500,3.177720458984375,1.5965948104858398,-2.2748751640319824,-0.32995671033859253
1761391668440786700,3.18778662109375,1.7317975759506226,-2.2151119709014893,0.2890564799308777
1761391668450852600,3.1978525390625,1.8074182271957397,-1.9015581607818604,1.0899213552474976
1761391668460919600,3.20791943359375,1.873684048652649,-1.2551602125167847,1.792195439338684
1761391668470986200,3.217986328125,1.9280729293823242,-0.374246746301651,2.119086742401123
1761391668481052400,3.228052490234375,1.971266746520996,0.42755672335624695,1.9521005153656006
1761391668491118000,3.2381181640625,1.9564975500106812,0.8812872767448425,1.3951153755187988
1761391668501184300,3.248184326171875,1.8397901058197021,0.8440858125686646,0.7497802972793579
1761391668511250200,3.258250244140625,1.7536725997924805,0.14151252806186676,0.2801341414451599
1761391668521317000,3.268317138671875,1.81790030002594,-1.1842145919799805,0.20921099185943604
1761391668531383300,3.27838330078125,2.109199047088623,-2.633009433746338,0.6588829159736633
1761391668541449200,3.28844921875,2.566272020339966,-3.5563764572143555,1.5027717351913452
1761391668551515400,3.298515380859375,3.0620737075805664,-3.6964497566223145,2.3340415954589844
1761391668561581300,3.308581298828125,3.440497875213623,-3.052762985229492,2.8496756553649902
1761391668571647500,3.3186474609375,3.4796628952026367,-1.991275429725647,2.858764410018921
1761391668581713200,3.328713134765625,3.1641907691955566,-0.9284746646881104,2.404001235961914
1761391668591780000,3.338780029296875,2.592202663421631,-0.14717479050159454,1.7772855758666992
1761391668601846300,3.34884619140625,1.8686771392822266,0.40681302547454834,1.1810307502746582
1761391668611912200,3.358912109375,1.133051872253418,0.749740481376648,0.6557764410972595
1761391668621978400,3.368978271484375,0.4478442966938019,0.8329581022262573,0.17561674118041992
1761391668632044300,3.379044189453125,-0.10370218753814697,0.6938587427139282,-0.24480147659778595
1761391668642110500,3.3891103515625,-0.480021208524704,0.42028579115867615,-0.5142196416854858
1761391668652176400,3.39917626953125,-0.7073715329170227,0.17206110060214996,-0.6142749786376953
1761391668662243300,3.409243408203125,-0.7934017777442932,0.007916905917227268,-0.5688206553459167
1761391668672309500,3.4193095703125,-0.7635658979415894,-0.07134683430194855,-0.38408124446868896
1761391668682375200,3.429375244140625,-0.6568687558174133,-0.11985577642917633,-0.09381292760372162
1761391668692441300,3.43944140625,-0.5277922749519348,-0.06922580301761627,0.23033930361270905
1761391668702507300,3.44950732421875,-0.3552098274230957,0.032328780740499496,0.567680835723877
1761391668712573200,3.4595732421875,-0.20788413286209106,0.2196286916732788,0.8157563805580139
1761391668722639400,3.469639404296875,-0.10983666032552719,0.3839305341243744,0.968550443649292
1761391668732706300,3.479706298828125,-0.015612476505339146,0.50106281042099,1.1086978912353516
1761391668742772200,3.489772216796875,-0.026171110570430756,0.5651711821556091,1.2077518701553345
1761391668752838400,3.49983837890625,-0.08898737281560898,0.617184042930603,1.2102848291397095
1761391668762904300,3.509904296875,-0.1698169708251953,0.6488069891929626,1.1310323476791382
1761391668772970200,3.51997021484375,-0.2544593811035156,0.6443465352058411,1.0014278888702393
1761391668783036200,3.5300361328125,-0.33259040117263794,0.6044377088546753,0.8153504729270935
1761391668793102300,3.540102294921875,-0.39749065041542053,0.5934730172157288,0.5632383227348328
1761391668803169300,3.550169189453125,-0.42136350274086,0.5918567776679993,0.26899659633636475
1761391668813235200,3.560235107421875,-0.39776870608329773,0.6241467595100403,-0.022329607978463173
1761391668823301400,3.57030126953125,-0.3713940978050232,0.6402384042739868,-0.2963795065879822
1761391668833367300,3.5803671875,-0.33381158113479614,0.6459239721298218,-0.5065772533416748
1761391668843433500,3.59043359375,-0.29733264446258545,0.6149562001228333,-0.626559317111969
1761391668853499400,3.60049951171875,-0.27912893891334534,0.47665101289749146,-0.6064577102661133
1761391668863566300,3.61056640625,-0.3147346079349518,0.2736230492591858,-0.46109041571617126
1761391668873632300,3.62063232421875,-0.37638387084007263,0.14031507074832916,-0.29577895998954773
1761391668883698200,3.6306982421875,-0.4099588692188263,0.09422028809785843,-0.21569344401359558
1761391668893764400,3.640764404296875,-0.4390440583229065,0.06190895289182663,-0.22545738518238068
1761391668903830300,3.650830322265625,-0.45310020446777344,0.08562120050191879,-0.27640604972839355
1761391668913896400,3.660896484375,-0.4418325126171112,0.14614138007164001,-0.35621193051338196
1761391668923962400,3.67096240234375,-0.43911823630332947,0.14233385026454926,-0.41305071115493774
1761391668934029300,3.681029296875,-0.4597249925136566,0.10173763334751129,-0.39669808745384216
1761391668944095500,3.691095458984375,-0.4711875021457672,0.05082092806696892,-0.32212716341018677
1761391668954161400,3.701161376953125,-0.45419013500213623,-0.031833112239837646,-0.18299710750579834
1761391668964227000,3.71122705078125,-0.433732271194458,-0.15747332572937012,-0.004347731824964285
1761391668974293200,3.721293212890625,-0.4246029555797577,-0.2947659492492676,0.1368141919374466
1761391668984359200,3.731359130859375,-0.45677483081817627,-0.41957327723503113,0.25930318236351013
1761391668994425300,3.74142529296875,-0.5611972808837891,-0.4888230562210083,0.4476693570613861
1761391669004492300,3.7514921875,-0.868514358997345,-0.35292568802833557,0.7639868855476379
1761391669014558200,3.76155810546875,-1.40510094165802,0.20104065537452698,1.138121247291565
1761391669024624400,3.771624267578125,-1.9740030765533447,1.255182147026062,1.3955421447753906
1761391669034690300,3.781690185546875,-2.319791793823242,2.691941499710083,1.4214015007019043
1761391669044756500,3.791756591796875,-2.2430672645568848,4.1955037117004395,1.0998069047927856
1761391669054822100,3.801822265625,-1.7859277725219727,5.344531536102295,0.4476177394390106
1761391669064888300,3.811888427734375,-1.2196990251541138,5.433406829833984,-0.523991048336029
1761391669074955300,3.821955322265625,-0.7599318027496338,4.204256057739258,-1.5209956169128418
1761391669085021200,3.832021240234375,-0.36181241273880005,1.938022494316101,-1.8652055263519287
1761391669095087400,3.84208740234375,-0.06424252688884735,-0.2667909860610962,-1.0701996088027954
1761391669105153300,3.8521533203125,0.1509970873594284,-1.494519591331482,0.3692179024219513
1761391669115219500,3.862219482421875,0.5167148113250732,-1.584730863571167,1.355951189994812
1761391669125285400,3.872285400390625,1.0908329486846924,-0.740355372428894,1.342889666557312
1761391669135351300,3.882351318359375,1.6329180002212524,0.4567357301712036,0.7791985869407654
1761391669145418500,3.89241845703125,1.831032633781433,1.3749655485153198,0.3381367325782776
1761391669155484200,3.902484130859375,1.6907145977020264,1.8525183200836182,0.162133127450943
1761391669165550300,3.91255029296875,1.3986220359802246,1.9005945920944214,0.10270708054304123
1761391669175616300,3.9226162109375,0.9744673371315002,1.6929439306259155,0.022528771311044693
1761391669185682200,3.93268212890625,0.5395206809043884,1.3766371011734009,-0.19817031919956207
1761391669195748400,3.942748291015625,0.1726847141981125,1.0803591012954712,-0.5346249341964722
1761391669205815300,3.952815185546875,-0.14110331237316132,0.8794113993644714,-0.8956326842308044
1761391669215881500,3.962881591796875,-0.4466225802898407,0.8301119804382324,-1.1827104091644287
1761391669225947400,3.972947509765625,-0.7488482594490051,1.001657247543335,-1.3486586809158325
1761391669236013300,3.983013427734375,-1.056449055671692,1.1168345212936401,-1.33342707157135
1761391669246079200,3.993079345703125,-1.2708975076675415,0.9773499369621277,-1.0439425706863403
1761391669256145200,4.003145263671875,-1.363211989402771,0.6560317873954773,-0.5466799139976501
1761391669266211300,4.01321142578125,-1.3492783308029175,0.2676781415939331,0.015942690894007683
1761391669276278300,4.0232783203125,-1.235000491142273,-0.14240875840187073,0.4736662209033966
1761391669286344200,4.03334423828125,-1.0979022979736328,-0.5460872650146484,0.7810037732124329
1761391669296410400,4.043410400390625,-0.9543471336364746,-0.8897669315338135,0.9349367618560791
1761391669306476300,4.053476318359375,-0.7808419466018677,-1.0663059949874878,0.9075128436088562
1761391669316542500,4.06354248046875,-0.5296278595924377,-0.9720417857170105,0.6878796815872192
1761391669326608100,4.073608154296875,-0.23842129111289978,-0.5082003474235535,0.21923203766345978
1761391669336674300,4.08367431640625,0.019566530361771584,0.042377203702926636,-0.3224431574344635
1761391669346741200,4.0937412109375,0.22455136477947235,0.42340177297592163,-0.7845394611358643
1761391669356807200,4.10380712890625,0.39680221676826477,0.6187798380851746,-1.0358291864395142
1761391669366873300,4.113873291015625,0.6004882454872131,0.6087567210197449,-1.0516360998153687
1761391669376939300,4.123939208984375,0.77613365650177,0.3999220132827759,-0.8331266045570374
1761391669387005400,4.13400537109375,0.8520292043685913,-0.014232558198273182,-0.47604647278785706
1761391669397071400,4.1440712890625,0.8452690839767456,-0.41517913341522217,-0.1351161003112793
1761391669407137300,4.15413720703125,0.8232886791229248,-0.696952760219574,0.08863470703363419
1761391669417204500,4.16420458984375,0.8561534881591797,-0.7978586554527283,0.13563452661037445
1761391669427270400,4.1742705078125,0.9314937591552734,-0.7373827695846558,0.04604791849851608
1761391669437336300,4.18433642578125,1.0291223526000977,-0.6502803564071655,-0.12259349226951599
1761391669447402200,4.19440234375,1.1314013004302979,-0.6039541363716125,-0.32605206966400146
1761391669457468200,4.20446826171875,1.2091881036758423,-0.6365416049957275,-0.5218706727027893
1761391669467534300,4.214534423828125,1.244035005569458,-0.6891400814056396,-0.6625713109970093
1761391669477600300,4.224600341796875,1.2039633989334106,-0.7280226945877075,-0.7622905969619751
1761391669487667200,4.234667236328125,1.1202298402786255,-0.7367435097694397,-0.8410083055496216
1761391669497733400,4.2447333984375,1.0255858898162842,-0.7407262921333313,-0.9036641120910645
1761391669507799300,4.25479931640625,0.9355449080467224,-0.7495567798614502,-0.9528116583824158
1761391669517865500,4.264865478515625,0.8409650325775146,-0.7715710401535034,-0.9789126515388489
1761391669527931400,4.274931396484375,0.7340438961982727,-0.8430050015449524,-0.9698677659034729
1761391669537997600,4.28499755859375,0.6043825149536133,-0.9703748822212219,-0.9486826062202454
1761391669548064500,4.295064453125,0.471143513917923,-1.0562607049942017,-0.950880765914917
1761391669558130400,4.30513037109375,0.36810457706451416,-1.0438153743743896,-0.9776166081428528
1761391669568196600,4.315196533203125,0.28351831436157227,-0.9524965882301331,-1.0349763631820679
1761391669578262300,4.32526220703125,0.24379238486289978,-0.8195075988769531,-1.2027781009674072
1761391669588328400,4.335328369140625,0.26833102107048035,-0.6758856773376465,-1.5692291259765625
1761391669598394400,4.345394287109375,0.3640633821487427,-0.5171735286712646,-2.1135454177856445
1761391669608460500,4.35546044921875,0.5376974940299988,-0.3023719787597656,-2.66396427154541
1761391669618527500,4.365527587890625,0.6989536285400391,-0.03612339496612549,-3.041572093963623
1761391669628593400,4.375593505859375,0.5834856629371643,0.09753985702991486,-3.279832601547241
1761391669638659600,4.38565966796875,0.2529214322566986,-0.3742106854915619,-3.4660980701446533
1761391669648725500,4.3957255859375,0.06470917910337448,-1.5274497270584106,-3.633755922317505
1761391669658791400,4.40579150390625,0.1613726168870926,-3.0323331356048584,-3.658811330795288
1761391669668857300,4.415857421875,0.6663897037506104,-4.4489264488220215,-3.132146120071411
1761391669678923300,4.42592333984375,1.455302357673645,-5.00474214553833,-1.9340649843215942
1761391669688990500,4.435990478515625,2.4911248683929443,-4.559451103210449,-0.41045668721199036
1761391669699056400,4.446056396484375,3.5369713306427,-3.2582015991210938,0.8848265409469604
1761391669709122300,4.456122314453125,4.1334004402160645,-1.4665215015411377,1.3772281408309937
1761391669719188500,4.4661884765625,3.768989324569702,0.18309535086154938,1.152187466621399
1761391669729254400,4.47625439453125,1.7518326044082642,0.10743681341409683,1.363236427307129
1761391669739320600,4.486320556640625,-1.2242096662521362,-0.6697274446487427,2.123774766921997
1761391669749386200,4.49638623046875,-2.735046863555908,-0.24352610111236572,1.8664122819900513
1761391669759453400,4.506453369140625,-2.467742443084717,2.0191171169281006,0.10220605880022049
1761391669769519400,4.516519287109375,-1.7161405086517334,3.836740255355835,-1.5636038780212402
1761391669779585300,4.526585205078125,-0.9515659809112549,4.2284440994262695,-1.500495195388794
1761391669789651500,4.5366513671875,-0.6991038918495178,3.4128048419952393,-0.15244406461715698
1761391669799717400,4.54671728515625,-0.665931761264801,2.136047601699829,1.4468157291412354
1761391669809783600,4.556783447265625,-0.411432683467865,1.1448538303375244,2.385028839111328
1761391669819850500,4.5668505859375,0.016582459211349487,0.5060186386108398,2.5458290576934814
1761391669829916400,4.57691650390625,0.503136932849884,0.24906647205352783,2.2920968532562256
1761391669839982600,4.586982666015625,0.9289116859436035,0.31827878952026367,1.9217156171798706
1761391669850048300,4.59704833984375,1.2397589683532715,0.5148807764053345,1.6462808847427368
1761391669860114400,4.607114501953125,1.3829622268676758,0.6881875395774841,1.525192379951477
1761391669870180400,4.617180419921875,1.4033633470535278,0.8232204914093018,1.4876292943954468
1761391669880246500,4.62724658203125,1.3618085384368896,0.9826088547706604,1.480812907218933
1761391669890313500,4.6373134765625,1.2052927017211914,1.1560462713241577,1.4385639429092407
1761391669900379400,4.64737939453125,0.9256888031959534,1.3028959035873413,1.316111445426941
1761391669910445600,4.657445556640625,0.6169789433479309,1.415281057357788,1.1529784202575684
1761391669920511500,4.667511474609375,0.36697664856910706,1.5521681308746338,0.9230184555053711
1761391669930577400,4.677577392578125,0.23606844246387482,1.604161024093628,0.6888543963432312
1761391669940643300,4.687643310546875,0.21741420030593872,1.5507323741912842,0.4531501829624176
1761391669950709200,4.697709228515625,0.2568361759185791,1.4062612056732178,0.2441713809967041
1761391669960776400,4.7077763671875,0.2939814329147339,1.1521159410476685,0.07139668613672256
1761391669970842400,4.71784228515625,0.2688502371311188,0.8617879748344421,-0.09612014144659042
1761391669980908300,4.727908203125,0.11496888101100922,0.8171408176422119,-0.3799175024032593
1761391669990974500,4.737974365234375,-0.09872929751873016,0.9030277729034424,-0.7063829898834229
1761391670001040400,4.748040283203125,-0.3339046537876129,0.965046226978302,-1.0009477138519287
1761391670011106600,4.7581064453125,-0.5471493005752563,0.9819048643112183,-1.2255088090896606
1761391670021172500,4.76817236328125,-0.7219123840332031,0.9492309093475342,-1.3534059524536133
1761391670031239400,4.778239501953125,-0.842218816280365,0.8755569458007812,-1.3863786458969116
1761391670041305300,4.788305419921875,-0.88108891248703,0.7918360829353333,-1.2828947305679321
1761391670051371300,4.798371337890625,-0.8197088837623596,0.725730299949646,-1.0565731525421143
1761391670061437400,4.8084375,-0.6457527279853821,0.6780153512954712,-0.7872862815856934
1761391670071503400,4.81850341796875,-0.416675329208374,0.5270423293113708,-0.49860525131225586
1761391670081569500,4.828569580078125,-0.1717374175786972,0.1750933676958084,-0.19414648413658142
1761391670091635500,4.838635498046875,0.037362270057201385,-0.24519579112529755,0.04991971328854561
1761391670101702400,4.848702392578125,0.14507700502872467,-0.632075309753418,0.19619429111480713
1761391670111768600,4.8587685546875,0.11743046343326569,-0.9876161217689514,0.1963208019733429
1761391670121834500,4.86883447265625,-0.05153501778841019,-1.2376023530960083,-0.035185057669878006
1761391670131900400,4.878900390625,-0.22719180583953857,-1.2059160470962524,-0.499356746673584
1761391670141966300,4.88896630859375,-0.344683974981308,-0.8956207036972046,-1.1167924404144287
1761391670152032300,4.8990322265625,-0.42063358426094055,-0.6363601088523865,-1.7051500082015991
1761391670162098400,4.909098388671875,-0.46007680892944336,-0.49072349071502686,-2.0654399394989014
1761391670172165400,4.919165283203125,-0.4866442382335663,-0.4486149251461029,-2.0737085342407227
1761391670182231600,4.9292314453125,-0.48094993829727173,-0.1522349864244461,-1.7589753866195679
1761391670192297500,4.93929736328125,-0.5582221150398254,0.27642396092414856,-1.7393885850906372
1761391670202363400,4.94936328125,-0.7650951147079468,0.3879435658454895,-2.163581132888794
1761391670212429600,4.9594296875,-0.7381916046142578,0.15338246524333954,-3.027388095855713
1761391670222495200,4.9694951171875,-0.28229445219039917,-0.6314448714256287,-3.7259604930877686
1761391670232562200,4.979562255859375,0.7733184099197388,-1.7870187759399414,-3.3323605060577393
1761391670242628400,4.98962841796875,2.3410375118255615,-3.0062220096588135,-1.6743017435073853
1761391670252694300,4.9996943359375,3.9958372116088867,-3.532111406326294,0.27141594886779785
1761391670262760400,5.009760498046875,5.249440670013428,-3.1560919284820557,1.4026061296463013
1761391670272826400,5.019826416015625,5.726231098175049,-2.1987509727478027,1.7625433206558228
1761391670282892500,5.029892578125,5.296941757202148,-0.7183993458747864,1.5295214653015137
1761391670292958500,5.03995849609375,1.4307997226715088,0.7992996573448181,0.7378243803977966
1761391670303025400,5.050025390625,-3.642336130142212,0.29745930433273315,1.3224684000015259
1761391670313091600,5.060091552734375,-3.7698211669921875,1.2912178039550781,1.5416007041931152
1761391670323157200,5.0701572265625,-2.751878499984741,2.588840961456299,1.095412015914917
1761391670333223400,5.080223388671875,-1.8699220418930054,2.4911909103393555,1.0289230346679688
1761391670343289300,5.090289306640625,-0.9829956889152527,1.941436529159546,1.4111946821212769
1761391670353355500,5.10035546875,-0.4246666133403778,0.9204562306404114,1.7145947217941284
1761391670363421400,5.11042138671875,0.030525749549269676,0.11359953880310059,1.8234295845031738
1761391670373488400,5.12048828125,0.36645713448524475,-0.25460511445999146,1.7661771774291992
1761391670383554600,5.130554443359375,0.5588992238044739,-0.23634932935237885,1.6270170211791992
1761391670393620500,5.140620361328125,0.5850299000740051,0.006451331079006195,1.468795895576477
1761391670403686400,5.150686279296875,0.4485217034816742,0.3151344656944275,1.3732631206512451
1761391670413752300,5.16075244140625,0.24046625196933746,0.571449875831604,1.4083367586135864
1761391670423818200,5.170818359375,0.017058318480849266,0.8717238306999207,1.4827593564987183
1761391670433885400,5.180885498046875,-0.21298660337924957,1.1956157684326172,1.5178841352462769
1761391670443951400,5.190951416015625,-0.3439945876598358,1.4959018230438232,1.4291387796401978
1761391670454017300,5.201017333984375,-0.3060690462589264,1.70700204372406,1.2235376834869385
1761391670464083500,5.21108349609375,-0.1364130973815918,1.7670100927352905,1.0140997171401978
1761391670474148600,5.221148681640625,0.06299934536218643,1.6195636987686157,0.8929750919342041
1761391670484214500,5.231214599609375,0.23415130376815796,1.2509746551513672,0.8386876583099365
1761391670494280700,5.24128076171875,0.32779285311698914,0.7855361104011536,0.7750133872032166
1761391670504346600,5.2513466796875,0.3374410569667816,0.31583261489868164,0.6862046718597412
1761391670514412500,5.26141259765625,0.2527376115322113,-0.10665816813707352,0.5210785865783691
1761391670524479700,5.271479736328125,0.06214526668190956,-0.3243309259414673,0.24753166735172272
1761391670534545700,5.281545654296875,-0.16235867142677307,-0.205274298787117,-0.15201281011104584
1761391670544611600,5.291611572265625,-0.3952615261077881,0.05730823427438736,-0.5652586817741394
1761391670554677800,5.301677734375,-0.594306468963623,0.32814106345176697,-0.9089938998222351
1761391670564743400,5.311743408203125,-0.7284141778945923,0.5170178413391113,-1.1667187213897705
1761391670574809600,5.3218095703125,-0.7315282225608826,0.630100429058075,-1.300506591796875
1761391670584875500,5.33187548828125,-0.6478174328804016,0.5836925506591797,-1.3246248960494995
1761391670594942500,5.3419423828125,-0.5694517493247986,0.30043500661849976,-1.2202188968658447
1761391670605008600,5.352008544921875,-0.5052000284194946,-0.10406574606895447,-1.029172420501709
1761391670615074600,5.362074462890625,-0.40804603695869446,-0.47761136293411255,-0.8505668640136719
1761391670625140700,5.372140625,-0.29429322481155396,-0.7323700189590454,-0.7196083664894104
1761391670635206700,5.38220654296875,-0.17747768759727478,-0.8874914050102234,-0.657781183719635
1761391670645272800,5.39227294921875,-0.02969587966799736,-0.9363371729850769,-0.6343075633049011
1761391670655339800,5.40233984375,0.15685029327869415,-0.8364821672439575,-0.6090866327285767
1761391670665405400,5.412405517578125,0.3474177122116089,-0.5685029625892639,-0.6269450187683105
1761391670675471600,5.4224716796875,0.45923614501953125,-0.2313336730003357,-0.6708149909973145
1761391670685537500,5.43253759765625,0.4808662235736847,0.04382858797907829,-0.7012702226638794
1761391670695603700,5.442603759765625,0.39626267552375793,0.20575277507305145,-0.7313144207000732
1761391670705669600,5.452669677734375,0.24076440930366516,0.262258917093277,-0.7825040817260742
1761391670715735600,5.462735595703125,0.03340376541018486,0.16914762556552887,-0.8414922952651978
1761391670725802800,5.472802734375,-0.1494939923286438,0.008746414445340633,-0.8368181586265564
1761391670735868700,5.48286865234375,-0.2515583038330078,-0.21755436062812805,-0.7556668519973755
1761391670745934800,5.492934814453125,-0.2808864116668701,-0.5051377415657043,-0.6032612919807434
1761391670756000500,5.50300048828125,-0.2487146258354187,-0.793283998966217,-0.40944281220436096
1761391670766066400,5.51306640625,-0.18250572681427002,-0.8298776745796204,-0.2921361029148102
1761391670776132600,5.523132568359375,-0.09954799711704254,-0.6288129687309265,-0.5058066248893738
1761391670786198500,5.533198486328125,-0.043144822120666504,-0.45938026905059814,-1.0700467824935913
1761391670796265700,5.543265625,-0.0339830182492733,-0.48880019783973694,-1.746275782585144
1761391670806331600,5.55333154296875,0.012884540483355522,-0.8379589915275574,-2.2170588970184326
1761391670816397600,5.5633974609375,0.30043697357177734,-1.7293610572814941,-2.214245080947876
1761391670826463700,5.573463623046875,0.9292014837265015,-2.951429843902588,-1.5537242889404297
1761391670836529700,5.58352978515625,1.7036045789718628,-3.878291130065918,-0.496629923582077
1761391670846595600,5.593595703125,2.3969767093658447,-3.999755382537842,0.5235216617584229
1761391670856662500,5.60366259765625,2.8890466690063477,-3.082747459411621,1.2503925561904907
1761391670866728400,5.613728515625,2.9902491569519043,-1.413103461265564,1.4054323434829712
1761391670876794600,5.623794677734375,2.386674404144287,0.5257293581962585,1.2006791830062866
1761391670886860500,5.633860595703125,0.5112891793251038,1.974914789199829,1.0733367204666138
1761391670896926700,5.6439267578125,-2.185525894165039,1.9574021100997925,1.3674644231796265
1761391670906992600,5.65399267578125,-3.481921911239624,1.9207701683044434,1.3811529874801636
1761391670917058800,5.664058837890625,-2.7091104984283447,2.4110352993011475,0.8979950547218323
1761391670927125800,5.674125732421875,-1.6257879734039307,2.374720573425293,0.6351050734519958
1761391670937191700,5.684191650390625,-0.9764205813407898,1.4772766828536987,1.0558890104293823
1761391670947257600,5.694257568359375,-0.6699959635734558,0.32103481888771057,1.6479490995407104
1761391670957323500,5.704323486328125,-0.5855602025985718,-0.5257582664489746,2.009061336517334
1761391670967390500,5.714390380859375,-0.5048575401306152,-0.8934069871902466,2.0339162349700928
1761391670977456600,5.72445654296875,-0.45588919520378113,-0.9505464434623718,1.8994215726852417
1761391670987522600,5.7345224609375,-0.5007187724113464,-0.8087416887283325,1.7450066804885864
1761391670997588700,5.744588623046875,-0.6194217205047607,-0.49233925342559814,1.639541745185852
1761391671007654700,5.754654541015625,-0.7544105052947998,-0.12889529764652252,1.5645159482955933
1761391671017720600,5.764720458984375,-0.8575363755226135,0.1789243072271347,1.4793198108673096
1761391671027786800,5.774786865234375,-0.8906394839286804,0.47875460982322693,1.2962175607681274
1761391671037853700,5.784853759765625,-0.8842723965644836,0.7723998427391052,1.0580854415893555
1761391671047919600,5.794919677734375,-0.8542119264602661,1.0344051122665405,0.8160081505775452
1761391671057985500,5.804985595703125,-0.7795270681381226,1.2205264568328857,0.583796501159668
1761391671068051500,5.815051513671875,-0.6547210216522217,1.3037378787994385,0.3806309998035431
1761391671078117600,5.82511767578125,-0.5100389719009399,1.2180962562561035,0.23289081454277039
1761391671088183600,5.83518359375,-0.3625165522098541,0.9848835468292236,0.1072256788611412
1761391671098249700,5.845249755859375,-0.23869818449020386,0.7039349675178528,-0.0016145166009664536
1761391671108316700,5.855316650390625,-0.18470825254917145,0.4441641569137573,-0.13119901716709137
1761391671118382600,5.865382568359375,-0.21025356650352478,0.2755833864212036,-0.35011351108551025
1761391671128448800,5.87544873046875,-0.2842530310153961,0.34312042593955994,-0.678433358669281
1761391671138514400,5.885514404296875,-0.41365230083465576,0.5576292872428894,-1.0428019762039185
1761391671148580600,5.89558056640625,-0.5922392010688782,0.766873836517334,-1.3658764362335205
1761391671158646500,5.905646484375,-0.7631667256355286,0.9676500558853149,-1.5907148122787476
1761391671168713500,5.91571337890625,-0.9092726707458496,1.1461440324783325,-1.67066490650177
1761391671178779600,5.925779541015625,-1.0287129878997803,1.2154661417007446,-1.612701177597046
1761391671188845600,5.935845458984375,-1.083174467086792,1.116795539855957,-1.4191882610321045
1761391671198911700,5.945911865234375,-1.0662269592285156,0.8689706921577454,-1.1427334547042847
1761391671208977700,5.955977783203125,-1.0122015476226807,0.4808398485183716,-0.7688136100769043
1761391671219043800,5.9660439453125,-0.9188027381896973,-0.01994895562529564,-0.35505661368370056
1761391671229109500,5.976109619140625,-0.7926202416419983,-0.4624786972999573,-0.02785179205238819
1761391671239176400,5.986176513671875,-0.6613509058952332,-0.8168724179267883,0.15098106861114502
1761391671249242600,5.99624267578125,-0.5293793678283691,-1.09100341796875,0.20153258740901947
1761391671259308500,6.00630859375,-0.423883318901062,-1.2870965003967285,0.18955475091934204
1761391671269374700,6.016374755859375,-0.3611447215080261,-1.430885910987854,0.1398351937532425
1761391671279440600,6.026440673828125,-0.3590320348739624,-1.5538296699523926,0.1055120900273323
1761391671289506600,6.036506591796875,-0.4166162312030792,-1.6293004751205444,0.11288292706012726
1761391671299573800,6.04657373046875,-0.5498824119567871,-1.5863152742385864,0.1469026803970337
1761391671309639700,6.0566396484375,-0.6799702644348145,-1.4698213338851929,0.18636229634284973
1761391671319705600,6.06670556640625,-0.7601660490036011,-1.2773381471633911,0.2974805533885956
1761391671329771500,6.076771484375,-0.7812488675117493,-0.9763651490211487,0.4576934576034546
1761391671339837400,6.08683740234375,-0.7388585805892944,-0.6380257606506348,0.5616108179092407
1761391671349903600,6.096903564453125,-0.6669363379478455,-0.1056395098567009,0.5883380770683289
1761391671359969500,6.106969482421875,-0.5777377486228943,0.5527415871620178,0.4616820812225342
1761391671370036500,6.117036376953125,-0.44831258058547974,1.0180562734603882,0.09593471884727478
1761391671380102700,6.1271025390625,-0.3695458769798279,0.8104809522628784,-0.43003132939338684
1761391671390168600,6.13716845703125,-0.46646010875701904,-0.10479098558425903,-0.893166184425354
1761391671400234800,6.14723486328125,-0.6345931887626648,-1.3195689916610718,-1.089745283126831
1761391671410300700,6.15730078125,-0.6548846960067749,-2.4622371196746826,-0.9860923886299133
1761391671420366600,6.16736669921875,-0.49210482835769653,-3.1644725799560547,-0.5496476888656616
1761391671430432500,6.1774326171875,-0.1345616728067398,-3.095850706100464,0.04021460935473442
1761391671440499500,6.18749951171875,0.451255738735199,-2.428006172180176,0.3574839234352112
1761391671450565600,6.197565673828125,1.120570182800293,-1.5724236965179443,0.4818054139614105
1761391671460631600,6.207631591796875,1.5209527015686035,-1.1146234273910522,0.5809850096702576
1761391671470697700,6.21769775390625,1.6011946201324463,-1.0647457838058472,0.7385216355323792
1761391671480763600,6.227763671875,1.379872441291809,-1.2282977104187012,0.9303041100502014
1761391671490829800,6.237829833984375,0.891436755657196,-1.393099308013916,0.9477617740631104
1761391671500896800,6.247896728515625,0.26643651723861694,-1.3864190578460693,0.7235190868377686
1761391671510962700,6.257962646484375,-0.42685166001319885,-1.238893985748291,0.31069549918174744
1761391671521028900,6.26802880859375,-1.1272047758102417,-1.2176166772842407,-0.17652077972888947
1761391671531094800,6.2780947265625,-1.804450273513794,-1.272863745689392,-0.5886033773422241
1761391671541160700,6.28816064453125,-2.3815536499023438,-1.2013053894042969,-0.8791776895523071
1761391671551227000,6.298226806640625,-2.753513813018799,-1.1467607021331787,-0.9620009660720825
1761391671561292500,6.30829248046875,-2.946962356567383,-1.046380639076233,-0.7117701768875122
1761391671571359700,6.31835986328125,-2.8786699771881104,-0.6765143871307373,-0.3735824227333069
1761391671581425700,6.32842578125,-2.598539113998413,-0.2068251371383667,-0.12381306290626526
1761391671591491600,6.33849169921875,-2.1920905113220215,0.31347155570983887,0.0966363474726677
1761391671601557800,6.348557861328125,-1.7532449960708618,0.9042189717292786,0.2249184101819992
1761391671611623700,6.358623779296875,-1.3326280117034912,1.4211565256118774,0.2521229684352875
1761391671621689900,6.36868994140625,-0.9587068557739258,1.6518123149871826,0.30454567074775696
1761391671631755800,6.378755859375,-0.6559444069862366,1.551456093788147,0.39361634850502014
1761391671641822700,6.38882275390625,-0.4729386568069458,1.2091031074523926,0.5025739669799805
1761391671651889000,6.398888916015625,-0.38779374957084656,0.7376143932342529,0.5810620188713074
1761391671661954600,6.40895458984375,-0.3366392254829407,0.21606571972370148,0.6125325560569763
1761391671672020700,6.419020751953125,-0.3214509189128876,-0.15443439781665802,0.5775479674339294
1761391671682086700,6.429086669921875,-0.3216192424297333,-0.3708415627479553,0.4969250559806824
1761391671692152800,6.43915283203125,-0.3485146462917328,-0.4582074284553528,0.310506671667099
1761391671702219800,6.4492197265625,-0.3151604235172272,-0.37123656272888184,0.03181992843747139
1761391671712285700,6.45928564453125,-0.2240506112575531,-0.22039438784122467,-0.28259167075157166
1761391671722351900,6.469351806640625,-0.18869741261005402,-0.12970097362995148,-0.5354912877082825
1761391671732417800,6.479417724609375,-0.22923718392848969,-0.13426817953586578,-0.7122374176979065
1761391671742484000,6.48948388671875,-0.3192882239818573,-0.2117864042520523,-0.808296799659729
1761391671752549600,6.499549560546875,-0.4333001375198364,-0.31079110503196716,-0.8425018787384033
1761391671762615800,6.50961572265625,-0.5506243705749512,-0.3581327795982361,-0.7859536409378052
1761391671772682800,6.519682861328125,-0.6105417609214783,-0.3527853786945343,-0.702177882194519
1761391671782748700,6.529748779296875,-0.5955913066864014,-0.34324780106544495,-0.6220183372497559
1761391671792814800,6.53981494140625,-0.5351241230964661,-0.2633853852748871,-0.5699911713600159
1761391671802880800,6.549880859375,-0.45677047967910767,-0.15828904509544373,-0.5569342374801636
1761391671812946700,6.55994677734375,-0.4101698398590088,-0.08137466758489609,-0.5757540464401245
1761391671823012900,6.570012939453125,-0.40033772587776184,-0.05927788466215134,-0.5766632556915283
1761391671833078800,6.580078857421875,-0.43278083205223083,-0.1429762840270996,-0.5112345218658447
1761391671843145700,6.590145751953125,-0.5077951550483704,-0.33209988474845886,-0.37401196360588074
1761391671853211600,6.600211669921875,-0.559069812297821,-0.5244280695915222,-0.23025549948215485
1761391671863277600,6.610277587890625,-0.5698473453521729,-0.6190070509910583,-0.14730443060398102
1761391671873343700,6.62034375,-0.5427500009536743,-0.5491754412651062,-0.14101970195770264
1761391671883409700,6.63040966796875,-0.46877995133399963,-0.31098049879074097,-0.20042656362056732
1761391671893475800,6.640475830078125,-0.3073778450489044,0.08375228941440582,-0.28121450543403625
1761391671903542800,6.650542724609375,-0.08198974281549454,0.4893069863319397,-0.26734185218811035
1761391671913608700,6.660608642578125,0.08459416031837463,0.7183406949043274,-0.1478813886642456
1761391671923675000,6.6706748046875,0.09653018414974213,0.6548168063163757,-0.1492406725883484
1761391671933740800,6.68074072265625,-0.025314513593912125,0.38278114795684814,-0.4090777039527893
1761391671943806700,6.690806640625,-0.2068672627210617,-0.011641805991530418,-0.8662660121917725
1761391671953872600,6.70087255859375,-0.37845996022224426,-0.48884543776512146,-1.3322445154190063
1761391671963938800,6.710938720703125,-0.44229409098625183,-1.000893235206604,-1.5119339227676392
1761391671974005800,6.721005859375,-0.39948952198028564,-1.364466905593872,-1.1560533046722412
1761391671984071700,6.73107177734375,-0.2520768940448761,-1.240939974784851,-0.33168619871139526
1761391671994137900,6.741137939453125,0.0738600641489029,-0.7375990748405457,0.5899704098701477
1761391672004203800,6.751203857421875,0.6045936942100525,-0.06836795061826706,1.237191081047058
1761391672014270000,6.76127001953125,1.1038150787353516,0.6488378047943115,1.3875857591629028
1761391672024336000,6.7713359375,1.3757033348083496,1.2228801250457764,1.277985692024231
1761391672034402800,6.78140283203125,1.390862226486206,1.4637688398361206,1.1760361194610596
1761391672044468700,6.79146875,1.2254002094268799,1.3783119916915894,1.1772634983062744
1761391672054534700,6.80153466796875,0.9814969897270203,1.0709162950515747,1.2132502794265747
1761391672064600800,6.811600830078125,0.723358154296875,0.6481594443321228,1.2159284353256226
1761391672074666800,6.821666748046875,0.4708537459373474,0.20941969752311707,1.138705849647522
1761391672084732700,6.831732666015625,0.239581897854805,-0.17092551290988922,0.9930731654167175
1761391672094798800,6.841798828125,0.023434331640601158,-0.48739326000213623,0.7983431220054626
1761391672104865800,6.85186572265625,-0.19050592184066772,-0.6911743879318237,0.5538598895072937
1761391672114931700,6.861931640625,-0.37802326679229736,-0.7371646761894226,0.3007248640060425
1761391672124998000,6.871997802734375,-0.5320695638656616,-0.6172076463699341,0.13218218088150024
1761391672135063600,6.8820634765625,-0.6293272972106934,-0.32211124897003174,0.038674384355545044
1761391672145129700,6.892129638671875,-0.6769073605537415,0.04332423955202103,-0.0071703363209962845
1761391672155195600,6.902195556640625,-0.698463499546051,0.35283634066581726,-0.050336554646492004
1761391672165261800,6.91226171875,-0.7009687423706055,0.5187275409698486,-0.11523326486349106
1761391672175328800,6.922328857421875,-0.7011127471923828,0.5057356357574463,-0.19559000432491302
1761391672185394700,6.932394775390625,-0.7240686416625977,0.3541751205921173,-0.27343738079071045
1761391672195460900,6.9424609375,-0.7336641550064087,0.16903868317604065,-0.332749605178833
1761391672205526800,6.95252685546875,-0.7041294574737549,0.03487396240234375,-0.3629503846168518
1761391672215593000,6.962593017578125,-0.6346592903137207,-0.0001263720914721489,-0.37189429998397827
1761391672225658600,6.97265869140625,-0.5053385496139526,0.06763003766536713,-0.35658085346221924
1761391672235725600,6.9827255859375,-0.3224684000015259,0.16927200555801392,-0.27529022097587585
1761391672245791700,6.992791748046875,-0.1204545646905899,0.25231683254241943,-0.0775579884648323
1761391672255857700,7.002857666015625,0.05856548249721527,0.30803194642066956,0.2186414748430252
1761391672265923800,7.012923828125,0.20024219155311584,0.3350689113140106,0.4637225866317749
1761391672275989800,7.02298974609375,0.305754154920578,0.326610267162323,0.5880606174468994
1761391672286055700,7.0330556640625,0.36235061287879944,0.2925545573234558,0.6052342653274536
1761391672296121900,7.043121826171875,0.3964329659938812,0.2502228915691376,0.5776001811027527
1761391672306188800,7.053188720703125,0.40393030643463135,0.20354005694389343,0.527953565120697
1761391672316255000,7.0632548828125,0.41421324014663696,0.14321260154247284,0.48183685541152954
1761391672326320600,7.073320556640625,0.42188528180122375,0.09475105255842209,0.4529929459095001
1761391672336386600,7.083386474609375,0.4376322627067566,0.07402413338422775,0.4372357726097107
1761391672346452700,7.09345263671875,0.45458728075027466,0.09445004910230637,0.4192937910556793
1761391672356518700,7.1035185546875,0.46904897689819336,0.16269275546073914,0.39461207389831543
1761391672366584800,7.113584716796875,0.47910159826278687,0.2340015470981598,0.3719587028026581
1761391672376651800,7.12365185546875,0.4938679039478302,0.3329606354236603,0.3481965959072113
1761391672386717700,7.1337177734375,0.5184800028800964,0.33060720562934875,0.31405192613601685
1761391672396783900,7.143783935546875,0.481747031211853,0.2949320077896118,0.32359635829925537
1761391672406849800,7.153849853515625,0.4698032736778259,0.24354231357574463,0.34703242778778076
1761391672416915700,7.163915771484375,0.45900559425354004,0.1390371024608612,0.34238460659980774
1761391672426981600,7.173981689453125,0.4263051748275757,-0.02386205457150936,0.3551235795021057
1761391672437048600,7.184048583984375,0.371751606464386,-0.14773482084274292,0.36484211683273315
1761391672447114800,7.19411474609375,0.31512323021888733,-0.247550368309021,0.3357694447040558
1761391672457180700,7.2041806640625,0.24836421012878418,-0.3471522033214569,0.24596308171749115
1761391672467246800,7.214246826171875,0.1627638190984726,-0.42094600200653076,0.1641523689031601
1761391672477312800,7.224312744140625,0.07318703830242157,-0.4162288010120392,0.12854088842868805
1761391672487379000,7.23437890625,0.03257489576935768,-0.36283084750175476,0.12187444418668747
1761391672497444900,7.24444482421875,0.05142459645867348,-0.31479397416114807,0.13561469316482544
1761391672507511800,7.25451171875,0.07944317907094955,-0.21966665983200073,0.18997327983379364
1761391672517578000,7.264577880859375,0.08652081340551376,-0.0658605545759201,0.23556356132030487
1761391672527643600,7.2746435546875,0.07846235483884811,0.13238942623138428,0.18916969001293182
1761391672537709800,7.284709716796875,0.08204973489046097,0.2551891803741455,-0.038082245737314224
1761391672547775700,7.294775634765625,0.142557293176651,0.16456712782382965,-0.332121342420578
1761391672557841700,7.304841552734375,0.32861050963401794,-0.25263649225234985,-0.4492599368095398
1761391672567907800,7.314907958984375,0.5722079873085022,-0.8951768279075623,-0.24244976043701172
1761391672577974800,7.324974853515625,0.7928823232650757,-1.5782181024551392,0.19110611081123352
1761391672588040700,7.335040771484375,0.9404057264328003,-2.143401861190796,0.6133468151092529
1761391672598107000,7.34510693359375,0.9961561560630798,-2.3644542694091797,0.8821987509727478
1761391672608172800,7.3551728515625,0.9393512010574341,-2.188422441482544,0.9174842834472656
1761391672618238700,7.36523876953125,0.809075653553009,-1.576615810394287,0.7178659439086914
1761391672628304600,7.3753046875,0.6060426831245422,-0.8023676872253418,0.46914851665496826
1761391672638371600,7.38537158203125,0.32158470153808594,-0.01835036464035511,0.2282762974500656
1761391672648437800,7.395437744140625,0.017485251650214195,0.6191906929016113,0.03330840542912483
1761391672658503700,7.405503662109375,-0.2328043133020401,1.069993495941162,-0.11520467698574066
1761391672668569900,7.41556982421875,-0.3857882618904114,1.2607767581939697,-0.24681729078292847
1761391672678635800,7.4256357421875,-0.4681604504585266,1.1283873319625854,-0.40033021569252014
1761391672688702000,7.435701904296875,-0.5568373203277588,0.7430891394615173,-0.5605326890945435
1761391672698768000,7.445767822265625,-0.669527530670166,0.1719825714826584,-0.7022610306739807
1761391672708834800,7.455834716796875,-0.8232598304748535,-0.45365893840789795,-0.8084785342216492
1761391672718900700,7.465900634765625,-1.042009949684143,-0.8601441979408264,-0.8639475703239441
1761391672728966700,7.475966552734375,-1.2764747142791748,-1.0022449493408203,-0.9677594304084778
1761391672739032800,7.48603271484375,-1.440273404121399,-0.7774772047996521,-1.1795845031738281
1761391672749098800,7.4960986328125,-1.44675612449646,-0.30415651202201843,-1.414514422416687
1761391672759165000,7.5061650390625,-1.3354493379592896,0.21674856543540955,-1.5975414514541626
1761391672769232000,7.51623193359375,-1.1842999458312988,0.6100780367851257,-1.6188712120056152
1761391672779297800,7.5262978515625,-1.0253068208694458,0.8674333691596985,-1.4687905311584473
1761391672789364000,7.536364013671875,-0.8943309783935547,0.9835658669471741,-1.1782633066177368
1761391672799430000,7.546429931640625,-0.7765775322914124,0.9976837635040283,-0.8278223872184753
1761391672809495800,7.556495849609375,-0.6678867340087891,0.9252391457557678,-0.4935098886489868
1761391672819561700,7.566561767578125,-0.5768092274665833,0.8302937746047974,-0.23895451426506042
1761391672829627600,7.576627685546875,-0.47950345277786255,0.7464247345924377,-0.0716848373413086
1761391672839694800,7.58669482421875,-0.34063851833343506,0.6689967513084412,-0.013655351474881172
1761391672849760800,7.5967607421875,-0.16679291427135468,0.598333477973938,-0.020760659128427505
1761391672859826700,7.60682666015625,0.017361488193273544,0.5265862941741943,-0.048902999609708786
1761391672869892900,7.616892822265625,0.17713463306427002,0.4334199130535126,-0.09140998125076294
1761391672879958800,7.626958740234375,0.3045642077922821,0.3140071928501129,-0.1495564579963684
1761391672890025000,7.63702490234375,0.3735411465167999,0.15500476956367493,-0.22623126208782196
1761391672900092000,7.647091796875,0.38134250044822693,-0.0010875007137656212,-0.31987881660461426
1761391672910157600,7.657157470703125,0.3172979950904846,-0.118062324821949,-0.4281062185764313
1761391672920223700,7.6672236328125,0.22618545591831207,-0.2021537721157074,-0.5367897748947144
1761391672930289700,7.67728955078125,0.11795991659164429,-0.28666117787361145,-0.6289540529251099
1761391672940355800,7.68735595703125,0.030416708439588547,-0.35973283648490906,-0.6756153702735901
1761391672950421800,7.697421875,-0.055339742451906204,-0.4162416458129883,-0.6035616993904114
1761391672960488000,7.707488037109375,-0.09531901776790619,-0.46362894773483276,-0.4549658000469208
1761391672970555000,7.717554931640625,-0.08933835476636887,-0.4989509880542755,-0.27341943979263306
1761391672980620800,7.727620849609375,-0.0508418083190918,-0.4683690667152405,-0.11371883004903793
1761391672990687000,7.73768701171875,-0.0000055264681577682495,-0.37892013788223267,-0.03332145884633064
1761391673000752600,7.747752685546875,0.04891727492213249,-0.1961713582277298,0.006525289732962847
1761391673010818800,7.75781884765625,0.10064811259508133,0.052171334624290466,0.05119023099541664
1761391673020884700,7.767884765625,0.15160290896892548,0.2688826024532318,0.10082463175058365
1761391673030951700,7.77795166015625,0.1986551135778427,0.4327293336391449,0.15618056058883667
1761391673041017900,7.788017822265625,0.23325760662555695,0.5792340636253357,0.19202643632888794
1761391673051083800,7.798083740234375,0.26449570059776306,0.6978187561035156,0.2025379240512848
1761391673061150000,7.80814990234375,0.3029039800167084,0.7645745873451233,0.22739724814891815
1761391673071215900,7.8182158203125,0.31797027587890625,0.8009336590766907,0.2567974627017975
1761391673081281800,7.82828173828125,0.3209780156612396,0.7328557372093201,0.10422100871801376
1761391673091347700,7.83834765625,0.3031950294971466,0.4993479251861572,-0.2951660752296448
1761391673101414700,7.84841455078125,0.238150954246521,0.14074043929576874,-0.7263404726982117
1761391673111480800,7.858480712890625,0.17524656653404236,-0.25025609135627747,-0.9091022610664368
1761391673121546800,7.868546630859375,0.20893672108650208,-0.6744437217712402,-0.614132821559906
1761391673131612700,7.87861279296875,0.3462122678756714,-1.049652338027954,0.051054541021585464
1761391673141678800,7.888678955078125,0.5947971343994141,-1.320788860321045,0.7417743802070618
1761391673151744800,7.898744873046875,0.9746725559234619,-1.3752086162567139,1.1417255401611328
1761391673161811700,7.908811767578125,1.3909143209457397,-1.1861943006515503,1.2091022729873657
1761391673171878000,7.9188779296875,1.6468403339385986,-0.9431416988372803,1.2001240253448486
1761391673181943800,7.92894384765625,1.610369086265564,-0.7559043169021606,1.2616311311721802
1761391673192009700,7.939009765625,1.3305385112762451,-0.5649615526199341,1.3082804679870605
1761391673202075600,7.94907568359375,0.8272939920425415,-0.3730625510215759,1.2549717426300049
1761391673212141800,7.959141845703125,0.17092226445674896,-0.08534765988588333,1.0195282697677612
1761391673222207700,7.969207763671875,-0.5095874667167664,0.35625967383384705,0.5789168477058411
1761391673232274700,7.979274658203125,-1.1027263402938843,0.8029122948646545,0.08137096464633942
1761391673242340900,7.9893408203125,-1.595788598060608,1.0023870468139648,-0.3342619836330414
1761391673252406800,7.99940673828125,-2.0007693767547607,0.9509611129760742,-0.6401084661483765
1761391673262473000,8.009472900390625,-2.264465093612671,0.8336536884307861,-0.8584138751029968
1761391673272539000,8.019538818359376,-2.315045118331909,0.5978054404258728,-0.9800492525100708
1761391673282604800,8.029604736328125,-2.1402437686920166,0.14882813394069672,-0.8879649043083191
1761391673292671700,8.039671630859376,-1.8624764680862427,-0.4073999524116516,-0.5552753806114197
1761391673302737700,8.049737548828125,-1.63301682472229,-0.8676519393920898,-0.05988407880067825
1761391673312803800,8.059803955078126,-1.4769500494003296,-1.106679916381836,0.37884774804115295
1761391673322869800,8.069869873046875,-1.3625640869140625,-1.0910608768463135,0.6521540880203247
1761391673332936000,8.07993603515625,-1.3009936809539795,-0.8225472569465637,0.7508566975593567
1761391673343001900,8.090001953125,-1.270181655883789,-0.37647196650505066,0.7017808556556702
1761391673353067800,8.10006787109375,-1.2155139446258545,0.1368832141160965,0.5311688780784607
1761391673363135000,8.110135009765624,-1.1291980743408203,0.621916651725769,0.3325640857219696
1761391673373201000,8.120200927734375,-1.0211900472640991,0.9629141688346863,0.16994161903858185
1761391673383266600,8.1302666015625,-0.9454252123832703,1.1310105323791504,0.08161315321922302
1761391673393332700,8.140332763671875,-0.8842995762825012,1.1400370597839355,0.11092816293239594
1761391673403398700,8.150398681640626,-0.8142244815826416,0.9840741753578186,0.26354125142097473
1761391673413464800,8.16046484375,-0.7584930658340454,0.7238534688949585,0.5002805590629578
1761391673423530800,8.17053076171875,-0.7342624664306641,0.4785870313644409,0.7439714074134827
1761391673433597700,8.18059765625,-0.6944018602371216,0.4100678861141205,0.9026936292648315
1761391673443664000,8.190663818359376,-0.5793673992156982,0.513439953327179,0.9033704400062561
1761391673453729800,8.200729736328125,-0.3330548107624054,0.6584078073501587,0.7878049612045288
1761391673463796000,8.2107958984375,0.019107135012745857,0.7722921371459961,0.6758843064308167
1761391673473861600,8.220861572265624,0.4012579619884491,0.7684177756309509,0.6368277072906494
1761391673483927800,8.230927734375,0.7181141972541809,0.6688580513000488,0.70114666223526
1761391673493994800,8.240994873046875,0.9287955164909363,0.47160542011260986,0.819047749042511
1761391673504060700,8.251060791015625,1.038171410560608,0.20266346633434296,0.9279230237007141
1761391673514126800,8.261126953125,1.0304911136627197,-0.14429740607738495,1.0143367052078247
1761391673524192800,8.27119287109375,0.9120044112205505,-0.49812719225883484,1.0823240280151367
1761391673534259000,8.281259033203124,0.7259621024131775,-0.7729049324989319,1.1651794910430908
1761391673544324600,8.29132470703125,0.547289252281189,-0.9780003428459167,1.2287768125534058
1761391673554390800,8.301390869140626,0.400056928396225,-1.1159042119979858,1.2241530418395996
1761391673564457700,8.311457763671875,0.24571898579597473,-1.151849389076233,1.1136407852172852
1761391673574523600,8.321523681640626,0.06534601002931595,-0.9659086465835571,0.8957781195640564
1761391673584589800,8.33158984375,-0.17446352541446686,-0.6166157126426697,0.5884262919425964
1761391673594655700,8.34165576171875,-0.467733234167099,-0.1663268655538559,0.24765938520431519
1761391673604721700,8.3517216796875,-0.7733197808265686,0.3505963683128357,-0.10491621494293213
1761391673614787800,8.361787841796875,-0.9923948645591736,0.8656916618347168,-0.3850666284561157
1761391673624854800,8.371854736328125,-0.9871757626533508,1.2418818473815918,-0.5937626957893372
1761391673634921000,8.3819208984375,-0.769882321357727,1.2650681734085083,-0.8086845874786377
1761391673644987000,8.39198681640625,-0.5045227408409119,0.974839448928833,-0.9768747091293335
1761391673655052500,8.402052490234375,-0.3237641751766205,0.5179776549339294,-1.0564910173416138
1761391673665118700,8.41211865234375,-0.25166359543800354,0.02749817818403244,-1.0614122152328491
1761391673675184600,8.4221845703125,-0.28936704993247986,-0.48478269577026367,-1.0032951831817627
1761391673685250800,8.432250732421876,-0.39325475692749023,-0.7967272400856018,-0.9648110270500183
1761391673695317800,8.44231787109375,-0.575879693031311,-1.1869946718215942,-0.9699117541313171
1761391673705383700,8.4523837890625,-0.8081437349319458,-1.0097973346710205,-0.9471235275268555
1761391673715449900,8.462449951171875,-0.8683549165725708,-0.4779698848724365,-1.0543899536132812
1761391673725515800,8.472515869140626,-0.8060727119445801,0.1742473840713501,-1.299005389213562
1761391673735581700,8.482581787109375,-0.6532509326934814,0.7400835752487183,-1.5494965314865112
1761391673745647600,8.492647705078125,-0.4571887254714966,1.27932608127594,-1.5782272815704346
1761391673755714600,8.502714599609375,-0.23203817009925842,1.596889615058899,-1.3347147703170776
1761391673765780700,8.51278076171875,0.046510882675647736,1.641641616821289,-0.9112444519996643
1761391673775846700,8.5228466796875,0.37546613812446594,1.4795531034469604,-0.4349769651889801
1761391673785912800,8.532912841796875,0.6698882579803467,1.169154405593872,0.017945336177945137
1761391673795978800,8.542978759765624,0.8690223693847656,0.7675349712371826,0.36195090413093567
1761391673806045000,8.553044921875,0.9541130065917969,0.37125200033187866,0.617038369178772
1761391673816110800,8.56311083984375,0.9364687204360962,0.029946886003017426,0.7699571251869202
1761391673826177800,8.573177734375,0.8607725501060486,-0.25836506485939026,0.7577730417251587
1761391673836244000,8.583243896484374,0.726764440536499,-0.3594679832458496,0.6055960059165955
1761391673846309600,8.5933095703125,0.497337281703949,-0.33341190218925476,0.43075084686279297
1761391673856375800,8.603375732421876,0.17523807287216187,-0.3416977822780609,0.3244512975215912
1761391673866441700,8.613441650390625,-0.07115437090396881,-0.3470882475376129,0.27654707431793213
1761391673876507600,8.623507568359376,-0.26588818430900574,-0.4338500499725342,0.2323516458272934
1761391673886574800,8.633574951171875,-0.3464236557483673,-0.598490297794342,0.2134731411933899
1761391673896640800,8.643640869140626,-0.3447037935256958,-0.7573174834251404,0.3005814254283905
1761391673906706700,8.653706787109375,-0.23451192677021027,-0.7912620306015015,0.4305278956890106
1761391673916772900,8.66377294921875,0.010618731379508972,-0.6474324464797974,0.5511869788169861
1761391673926838500,8.673838623046874,0.3351558446884155,-0.4849816858768463,0.693558394908905
1761391673936904700,8.68390478515625,0.6041593551635742,-0.4014825224876404,0.7724649310112
1761391673946970600,8.693970703125,0.7279277443885803,-0.29899436235427856,0.7114529013633728
1761391673957037600,8.70403759765625,0.676094114780426,-0.3541334867477417,0.4649325907230377
1761391673967103700,8.714103759765624,0.4029547870159149,-0.8146242499351501,0.020839499309659004
1761391673977169700,8.724169677734375,0.05770256370306015,-1.185113549232483,-0.39735347032546997
1761391673987235800,8.73423583984375,-0.21398618817329407,-1.2406560182571411,-0.6721610426902771
1761391673997301800,8.7443017578125,-0.5098247528076172,-0.9974294304847717,-0.722233772277832
1761391674007368000,8.754367919921876,-0.7530032992362976,-0.6080488562583923,-0.5598666071891785
1761391674017433600,8.76443359375,-0.8432740569114685,-0.14769963920116425,-0.2666935920715332
1761391674027500800,8.774500732421876,-0.805782675743103,0.2459229677915573,0.03595062345266342
1761391674037566700,8.784566650390625,-0.6997784376144409,0.4334782063961029,0.2816906273365021
1761391674047632600,8.794632568359376,-0.5324026346206665,0.4796801805496216,0.440059095621109
1761391674057698800,8.80469873046875,-0.3287903964519501,0.40016645193099976,0.5075617432594299
1761391674067764700,8.8147646484375,-0.13133317232131958,0.22513915598392487,0.5614011883735657
1761391674077831000,8.824830810546874,0.05398662015795708,0.14204426109790802,0.5929183959960938
1761391674087897900,8.83489794921875,0.20173384249210358,0.0922141969203949,0.5588585734367371
1761391674097963800,8.8449638671875,0.3061358630657196,0.04663526266813278,0.4993448555469513
1761391674108030000,8.855030029296875,0.3563508987426758,-0.05498925596475601,0.4386409819126129
1761391674118095600,8.865095703125,0.3694837689399719,-0.15101006627082825,0.41184720396995544
1761391674128161800,8.875161865234375,0.3437544107437134,-0.25951018929481506,0.44542646408081055
1761391674138227700,8.885227783203124,0.2637518048286438,-0.3127829432487488,0.5430843234062195
1761391674148294700,8.895294677734375,0.15292859077453613,-0.3218023478984833,0.6456661820411682
1761391674158360800,8.90536083984375,0.029691867530345917,-0.3200199007987976,0.6685166358947754
1761391674168426800,8.9154267578125,-0.05705760791897774,-0.2938149571418762,0.5666258335113525
1761391674178492700,8.92549267578125,-0.0982910618185997,-0.25085335969924927,0.34283319115638733
1761391674188558800,8.935558837890625,-0.11802732199430466,-0.20050515234470367,0.0842323824763298
1761391674198624800,8.945624755859376,-0.12414673715829849,-0.17480991780757904,-0.108319491147995
1761391674208690700,8.955690673828125,-0.14036156237125397,-0.15326784551143646,-0.17563413083553314
1761391674218758000,8.9657578125,-0.1472570300102234,-0.09359412640333176,-0.12279435247182846
1761391674228823600,8.975823486328125,-0.14233192801475525,-0.020662836730480194,0.0327264666557312
1761391674238889700,8.9858896484375,-0.12128044664859772,0.0009758807718753815,0.2511485517024994
1761391674248955600,8.99595556640625,-0.0816333070397377,-0.03217049688100815,0.4352817237377167
1761391674259021800,9.006021728515625,-0.025818772614002228,-0.08478523790836334,0.5170993804931641
1761391674269087700,9.016087646484374,0.02357151359319687,-0.12599998712539673,0.48301419615745544
1761391674279154000,9.02615380859375,0.07464295625686646,-0.1721123456954956,0.378810316324234
1761391674289220900,9.036220947265624,0.1095164567232132,-0.2310708612203598,0.25212860107421875
1761391674299286800,9.046286865234375,0.12006204575300217,-0.2659042179584503,0.1458200067281723
1761391674309352700,9.056352783203126,0.10103701055049896,-0.2507967948913574,0.09505396336317062
1761391674319418600,9.066418701171875,0.06280307471752167,-0.25357580184936523,0.07058563828468323
1761391674329484800,9.07648486328125,0.005200686864554882,-0.26280897855758667,0.06565891951322556
1761391674339550700,9.08655078125,-0.06284467875957489,-0.2688085436820984,0.0912012979388237
1761391674349617700,9.09661767578125,-0.12120164185762405,-0.28457045555114746,0.1580716222524643
1761391674359683800,9.106683837890625,-0.1612611711025238,-0.2760547399520874,0.23229631781578064
1761391674369749800,9.116749755859376,-0.169027179479599,-0.18426613509655,0.2706051468849182
1761391674379816000,9.12681591796875,-0.17325441539287567,-0.09887373447418213,0.25382137298583984
1761391674389881900,9.1368818359375,-0.17721910774707794,-0.03853432089090347,0.27279946208000183
1761391674399947500,9.146947509765624,-0.11793474853038788,-0.17113097012043,0.3520253002643585
1761391674410013700,9.157013671875,-0.029652634635567665,-0.1558854579925537,0.29161536693573
1761391674420080600,9.16708056640625,0.10240472853183746,-0.08102639764547348,0.21880318224430084
1761391674430146800,9.177146728515625,0.19157744944095612,0.020933980122208595,0.14719392359256744
1761391674440212700,9.187212646484374,0.23138132691383362,0.10461822152137756,0.10508802533149719
1761391674450278700,9.197278564453125,0.2482471913099289,0.17019017040729523,0.08556894958019257
1761391674460344800,9.2073447265625,0.24838833510875702,0.21237650513648987,0.09575687348842621
1761391674470410800,9.21741064453125,0.24614059925079346,0.18187129497528076,0.11817200481891632
1761391674480478000,9.22747802734375,0.2534520626068115,0.10937365144491196,0.148081973195076
1761391674490544000,9.237544189453125,0.28675174713134766,0.08752398937940598,0.1525302231311798
