time,seconds_elapsed,z,y,x
1761341847155691300,0.075691162109375,-0.0639700756072998,-0.009501713844109326,0.010037889380310661
1761341847165757200,0.085757080078125,-0.06442074198424816,-0.004041767937783151,0.005367623413796536
1761341847175822800,0.09582275390625,-0.06367255396544932,-0.005197404246311634,0.0004317470473470166
1761341847185889000,0.105888916015625,-0.06217617792785168,0.00033195363441482185,0.0071755176525563
1761341847195955000,0.115954833984375,-0.07055471469461917,-0.008214523577783257,0.0033960402130382133
1761341847206021000,0.126021240234375,-0.060978492575883864,-0.006096453711576759,0.004240934638539329
1761341847216087000,0.136087158203125,-0.05947977845072746,-0.00816398070063442,0.005386008453858085
1761341847226153200,0.1461533203125,-0.06740940240621567,-0.00341176293855533,0.0021701836459338663
1761341847236220200,0.15622021484375,-0.07115034250020981,0.0032867483193986117,0.004869441800424829
1761341847246286000,0.1662861328125,-0.06860533419251441,-0.002022774531878531,-0.0031219040133524684
1761341847256352300,0.176352294921875,-0.06995265714824199,-0.003931275034323335,0.008724710722779855
1761341847266418000,0.18641796875,-0.06396832204163073,0.0011002893920987844,0.011221244812826625
1761341847276484000,0.196484130859375,-0.06247253052592277,-0.0018628712624311446,0.005468316442449577
1761341847286550000,0.206550048828125,-0.0681570059031248,-0.003287606835924089,0.006964149057352915
1761341847296616200,0.2166162109375,-0.06381634635031223,0.00012371771121397613,0.01401514528109692
1761341847306682000,0.22668212890625,-0.06800795282125473,0.0036420462967827914,0.01177504277068656
1761341847316749000,0.2367490234375,-0.06591302636861801,-0.0035587701938115056,0.011903071330836974
1761341847326815200,0.246815185546875,-0.06710545102357864,-0.0006047792264260351,0.005951035625208169
1761341847336881200,0.256881103515625,-0.06635492491722106,-0.0034286775407381355,-0.0004194949205499142
1761341847346947000,0.266947021484375,-0.07024550261497498,-0.00011893193824216723,0.001994329322106205
1761341847357013000,0.277012939453125,-0.06799918499290943,-0.002139532779343426,-0.002490328111546114
1761341847367079000,0.287078857421875,-0.056175476208329196,-0.007788644582219421,-0.0030780329055851326
1761341847377145000,0.29714501953125,-0.06545359216332436,-0.005933664365299045,-0.0011985575682250782
1761341847387211000,0.3072109375,-0.0630593905031681,-0.004860810969397425,0.002791014391439967
1761341847397278000,0.31727783203125,-0.06560556785464286,-0.004456431419588625,0.0002696426876587793
1761341847407344000,0.32734423828125,-0.06590367401838303,-0.0009136259798891842,0.0007162448108429089
1761341847417410000,0.33741015625,-0.07593114703595638,-0.003816014624200761,-0.0004235500411596149
1761341847427476200,0.347476318359375,-0.07039514021873473,-0.003382007121108472,0.011134557476639747
1761341847437542000,0.3575419921875,-0.06829787567853927,0.0022437238061800598,0.00304588420165237
1761341847447608000,0.367608154296875,-0.07278583474755286,0.0020425021456554533,0.005893789012636989
1761341847457674000,0.377674072265625,-0.06156535255312919,-0.0019759762480854987,0.006898920067725703
1761341847467740200,0.387740234375,-0.06201134275496006,-0.0002686608735471964,0.008387478125048801
1761341847477807000,0.39780712890625,-0.06186521228253841,-0.0022403628053143617,0.00430696734576486
1761341847487873000,0.407873046875,-0.07174246317446231,-0.008465027740132063,0.009526784353284164
1761341847497939200,0.417939208984375,-0.05348959812521934,-0.005957848958484828,0.00906065097914543
1761341847508005000,0.428005126953125,-0.06740531075298786,-0.006384458606410771,0.005338073092326522
1761341847518071300,0.4380712890625,-0.07129647297263145,-0.0008393003683537244,0.004718763017049059
1761341847528137000,0.448136962890625,-0.06815466781556606,-0.006765548612177372,0.00783742019396741
1761341847538203000,0.458202880859375,-0.05453823039531708,0.006425082877743989,0.01033036038770806
1761341847548269000,0.46826904296875,-0.06785130095481873,0.0014348368423990905,0.010539943451201543
1761341847558335000,0.4783349609375,-0.06829729115664959,0.00027773922914639114,0.0017495379479136317
1761341847568402200,0.488402099609375,-0.06575345189273357,0.0035676841526292263,0.0013311846716795115
1761341847578468000,0.498468017578125,-0.0615647680312395,-0.00012083163438364862,0.00384660612528678
1761341847588534000,0.508533935546875,-0.06440846702456474,-0.0008656586523167789,0.004356354878866113
1761341847598600200,0.51860009765625,-0.05692191066145896,0.0026861155451275405,0.009914568961318582
1761341847608666000,0.528666015625,-0.061412207818031306,0.003304594503343105,0.003349086665618233
1761341847618732000,0.53873193359375,-0.07562778017520905,-0.004339344378560781,0.0018612957932753486
1761341847628798000,0.5487978515625,-0.06410860729515552,-0.00003720847154036164,0.011497477071476168
1761341847638864100,0.558864013671875,-0.0624625936537981,-0.009768529820442198,0.005540998086170293
1761341847648931000,0.56893115234375,-0.07069616899192332,-0.0021242986775934693,0.0030155073296977207
1761341847658997000,0.5789970703125,-0.0685971508860588,-0.012920874637831002,-0.0003953788260230794
1761341847669063200,0.589063232421875,-0.0680003540366888,-0.0038678361429832875,0.0001507244491484016
1761341847679129000,0.599129150390625,-0.06321078167259693,0.003093143709748983,0.0026448473864002153
1761341847689195300,0.6091953125,-0.06006897651553154,0.001211677344702184,0.00953364791891072
1761341847699261200,0.61926123046875,-0.07054243973493575,0.003108414344117045,0.00012437529833987353
1761341847709327000,0.6293271484375,-0.06815116068422794,-0.0018645517628639934,0.006622751741157844
1761341847719393000,0.63939306640625,-0.05707563991844654,-0.0010558109295554458,0.005781679540826008
1761341847729460000,0.6494599609375,-0.0623100334405899,-0.003420695163682103,0.005633553474140353
1761341847739526100,0.659526123046875,-0.057522214642167085,0.0009562047462910413,0.009415916990488767
1761341847749592000,0.669592041015625,-0.0741349112689495,-0.0074436305368319146,0.006610198220261372
1761341847759658000,0.679657958984375,-0.06111760878562927,0.00008448167936876416,0.003616048772423528
1761341847769724200,0.68972412109375,-0.0742833798289299,-0.008464150957297533,0.009173541335668414
1761341847779790800,0.699790771484375,-0.06455752010643481,-0.004384790955483913,0.005670282455068081
1761341847789856800,0.709856689453125,-0.07009294240176678,-0.0013948701581917703,0.0059769098519813265
1761341847799922700,0.719922607421875,-0.06740063457787036,0.0008800342375412583,0.0011082169702276586
1761341847809989600,0.72998974609375,-0.06261398482322693,0.0010824797407723962,-0.0009183934865519404
1761341847820055800,0.740055908203125,-0.06650806965231895,-0.0033961817769333717,0.001513372838171199
1761341847830121700,0.750121826171875,-0.06351765566468238,-0.009733915164787322,0.007670904520642943
1761341847840188000,0.76018798828125,-0.06605857231914997,-0.004595145770534873,0.005167867624573409
1761341847850253800,0.77025390625,-0.06965104385316372,-0.009824004601035266,0.0031072361671831456
1761341847860319700,0.78031982421875,-0.0638134237408638,-0.007839790247566997,0.015708267733501268
1761341847870386000,0.790385986328125,-0.06441197415590286,-0.006484850240964442,0.0015138888614019378
1761341847880451600,0.80045166015625,-0.06007248364686966,-0.0019813830755650995,-0.003567816583369858
1761341847890517800,0.810517822265625,-0.050643561044335365,0.0030608488753437993,0.007850457772053778
1761341847900584700,0.820584716796875,-0.06096914022564888,-0.0036263920699246225,0.011182022480713203
1761341847910650600,0.830650634765625,-0.05767652842104434,0.000991056863963604,0.006875607690797187
1761341847920716800,0.840716796875,-0.06934884603619575,-0.0054037952722981565,0.008693370303022675
1761341847930782700,0.85078271484375,-0.06965045933127403,-0.0015427359299734233,0.012391832095314748
1761341847940849000,0.860848876953125,-0.0663578475266695,-0.001701999878603965,0.010385328278224915
1761341847950914800,0.870914794921875,-0.06785363904237747,0.004289824414718896,0.0073184971866663544
1761341847960981000,0.88098095703125,-0.06411620607972145,0.002802873792592436,0.0055595429564360525
1761341847971046700,0.891046630859375,-0.07204699907898902,-0.006041545186564326,0.004519815512001514
1761341847981113600,0.901113525390625,-0.07428922504782676,-0.0034098084434866904,0.0036859722034772854
1761341847991179800,0.9111796875,-0.0699479809731245,-0.0011268303391523658,0.003758251988398842
1761341848001245700,0.92124560546875,-0.05842471643984318,-0.000417366895545274,0.001236259230109863
1761341848011311900,0.931311767578125,-0.06321428880393505,-0.0017268420589156448,0.0071482140870997675
1761341848021377800,0.941377685546875,-0.06455985819399357,-0.005404854718223214,0.006909806787921116
1761341848031443700,0.951443603515625,-0.06395780064761639,-0.002396996405441314,0.0025551598089514297
1761341848041510000,0.961510009765625,-0.058121349579095836,-0.009317735579330473,0.005377350223367102
1761341848051575800,0.971575927734375,-0.06486439409852028,-0.002905566982086748,0.013260984179237857
1761341848061643000,0.98164306640625,-0.06816051303446292,0.00040956718157976864,0.007414947865041903
1761341848071708700,0.991708740234375,-0.06711421885192394,-0.00625321517586708,0.002538628799258731
1761341848081774600,1.001774658203125,-0.05708440774679183,-0.004795855974406004,0.007207949484279379
1761341848091840800,1.0118408203125,-0.05438859279155731,-0.006396349973604083,0.0026407329002860933
1761341848101906700,1.02190673828125,-0.06545943738222122,-0.0002303746897727251,0.014845609322446397
1761341848111972900,1.031972900390625,-0.06396656847596169,0.00036150852246209976,0.006997014713915996
1761341848122038800,1.042038818359375,-0.06666355247497559,-0.006679349899757653,0.004261310706287622
1761341848132105000,1.05210498046875,-0.06531681404113769,-0.0018711824330501258,0.009417455927026457
1761341848142170600,1.062170654296875,-0.06322013402283191,-0.006896718977484851,0.010714505433663726
1761341848152237800,1.07223779296875,-0.06920680721700191,-0.005774802275467663,0.0052206115919630975
1761341848162303700,1.0823037109375,-0.060230304557085036,-0.005712623759452253,0.007219311128510162
1761341848172369700,1.09236962890625,-0.06397241369485855,-0.00266761177405715,0.013247197682480326
1761341848182435800,1.102435791015625,-0.0689151307940483,-0.0017204671170562504,0.011295136599522084
1761341848192501800,1.112501708984375,-0.0642751960337162,-0.006856350434478372,0.01563255844905507
1761341848202568000,1.12256787109375,-0.07564122417867183,-0.006798044375982135,0.0010429742808686568
1761341848212633900,1.1326337890625,-0.0581318709731102,-0.0035699491749517616,0.005633389077358879
1761341848222699800,1.14269970703125,-0.06037701955139636,0.0004782119709998369,0.01228543541166
1761341848232767000,1.15276708984375,-0.07384381936788559,-0.0038726584485732018,0.011493216454889625
1761341848242833000,1.1628330078125,-0.0687584789276123,0.00041661797687411305,0.014611974096507765
1761341848252898800,1.17289892578125,-0.060977908053994175,0.0073233651580289,0.011266038369201124
1761341848262964700,1.18296484375,-0.0612818594366312,-0.004020305024646223,-0.00007134363658260554
1761341848273030700,1.19303076171875,-0.06113455992043018,-0.007063362514972686,0.0008944463553838431
1761341848283096800,1.203096923828125,-0.058143561410903925,-0.0012825871564447879,0.01037359217465855
1761341848293162800,1.213162841796875,-0.06981061832904815,-0.003705503454431891,0.006092001298745163
1761341848303229000,1.22322900390625,-0.06696925742328166,-0.0058709926589392124,0.009142634740751237
1761341848313296000,1.2332958984375,-0.06906243031024932,0.00782185273207724,0.005229909143270924
1761341848323361800,1.24336181640625,-0.06875964797139167,0.0010648162199184297,-0.002931043916638009
1761341848333427700,1.253427734375,-0.06666238343119621,-0.004565042893216013,-0.0001501673267222941
1761341848343493600,1.26349365234375,-0.06336918710470199,-0.0034204759679734706,0.006811602543876506
1761341848353559800,1.273559814453125,-0.06411795964539051,0.002601834795158356,0.0031803425025893374
1761341848363625700,1.283625732421875,-0.0581318709731102,-0.006974186394177377,0.005325368874380365
1761341848373692000,1.29369189453125,-0.05903145016133785,-0.0058783357151784,0.006693757451022975
1761341848383757800,1.3037578125,-0.06486497862040996,-0.0021029088296927513,0.012248806895432061
1761341848393823700,1.31382373046875,-0.06680383772850036,-0.005499401133880019,0.008059798806952312
1761341848403891000,1.323890869140625,-0.06425882942080498,-0.006153572459984571,0.009445389680145308
1761341848413956900,1.333956787109375,-0.06545826833844184,-0.006008574498724192,0.007806938290735707
1761341848424022800,1.344022705078125,-0.06366378613710404,-0.005227013933286071,0.0060981524783186615
1761341848434088700,1.354088623046875,-0.06620470279157162,-0.003658705170638859,0.007662885610968805
1761341848444154600,1.364154541015625,-0.07099485967755317,0.0028735278760083018,0.012822921555535867
1761341848454220800,1.374220703125,-0.0675514412254095,-0.006009743542503565,0.015303550256974994
1761341848464286700,1.38428662109375,-0.06859481279850006,-0.0012341266385279596,0.011754045648430474
1761341848474353000,1.394352783203125,-0.059464580881595605,0.0013393588449805973,0.005859009960200637
1761341848484419800,1.404419921875,-0.059762687045335765,-0.0015550474222749472,-0.0008710563466418534
1761341848494485800,1.41448583984375,-0.06080605861842632,-0.0003730528297834098,0.004539940418000332
1761341848504552000,1.424552001953125,-0.06080547409653663,-0.002958758474048227,0.0026097258406691253
1761341848514617600,1.43461767578125,-0.07083002450466155,-0.00450838080253452,0.00582876551898662
1761341848524683800,1.444683837890625,-0.06274667129218578,-0.008681209507770836,0.0073365534331649536
1761341848534749700,1.454749755859375,-0.05586334151923656,-0.008707001536153256,0.0018279323797905816
1761341848544815900,1.46481591796875,-0.0634954438328743,-0.0029867241932079193,0.004465162715315819
1761341848554881800,1.4748818359375,-0.06543956363797188,0.0018721140148118137,0.007569252510764636
1761341848564948700,1.48494873046875,-0.0703746819525957,-0.009797646317072212,0.009003185170865617
1761341848575015000,1.495014892578125,-0.06932721872627735,-0.002782342461217195,-0.002264821393135935
1761341848585080800,1.505080810546875,-0.06963000106513499,-0.00216649385150522,0.004037872647377662
1761341848595147000,1.51514697265625,-0.06589023001492023,-0.0052251873023808,0.004434580347384326
1761341848605212700,1.525212646484375,-0.054067105752229686,-0.0003817475928924978,0.0046588175573153414
1761341848615278800,1.53527880859375,-0.0694774408519268,0.000521539656072855,0.01367193960030563
1761341848625344800,1.5453447265625,-0.07366670923531055,-0.004267996175400912,0.011019822222902438
1761341848635410700,1.55541064453125,-0.0628939708083868,-0.0055811246005818245,0.007728676289599388
1761341848645476900,1.565476806640625,-0.05331774868965149,-0.005095332111325115,0.014952983253635465
1761341848655543800,1.575543701171875,-0.058254036048054694,-0.0038251112461090086,0.009242825445905328
1761341848665609700,1.585609619140625,-0.06857844618558884,-0.005640654501784592,0.007948182525485754
1761341848675676000,1.595676025390625,-0.062139353048801416,-0.006008976357523351,0.01384788982225582
1761341848685741800,1.605741943359375,-0.06722352444529534,-0.006471004378702491,0.009307282683975062
1761341848695807700,1.615807861328125,-0.06736848587393761,-0.007867792499344795,0.013338099969481118
1761341848705873700,1.625873779296875,-0.06123042151033878,-0.0017131240608170627,0.006927607306092977
1761341848715939800,1.63593994140625,-0.060629533007740974,-0.00722081809900701,0.011904984726710244
1761341848726005800,1.646005859375,-0.06391688411533832,-0.007160630610678344,0.01836028007962741
1761341848736072000,1.656072021484375,-0.06331891822218895,-0.014051175575703382,0.012570038206432946
1761341848746139000,1.666138916015625,-0.058230070650577545,-0.005282981904223561,0.010858279552217572
1761341848756204800,1.676204833984375,-0.0628676673233509,-0.008186612657550722,0.004512440489721484
1761341848766271000,1.68627099609375,-0.06601064152419567,-0.003640895519312471,0.00521723689136561
1761341848776336600,1.696336669921875,-0.0766319887816906,-0.012451266098394989,0.0073188533796928815
1761341848786402600,1.706402587890625,-0.06226502525508403,-0.008162172336038201,-0.002449923035921529
1761341848796468500,1.716468505859375,-0.06540858397781849,-0.0027558563130907713,0.004206995836319402
1761341848806534700,1.72653466796875,-0.06316460444331169,-0.0018234160348773,0.005210893915547058
1761341848816600600,1.7366005859375,-0.0610685089468956,-0.002776241513993591,0.005424175906623713
1761341848826667500,1.74666748046875,-0.0606195961356163,-0.005764463544543832,0.008199248376837932
1761341848836733700,1.756733642578125,-0.06795417680740357,-0.008682670812495052,-0.0010365399735048414
1761341848846799600,1.766799560546875,-0.06391103889644145,0.005567899792827666,0.005449735039565712
1761341848856865500,1.776865478515625,-0.06570493657588958,-0.002132975174393505,0.0074314697415800764
1761341848866931700,1.786931640625,-0.0764788440465927,-0.007241532093472778,0.006224258509441278
1761341848876997400,1.796997314453125,-0.06899579481482505,-0.004707136511337012,0.0033297152448678387
1761341848887063600,1.8070634765625,-0.07153320433795451,-0.00828320489982143,0.006039271031087264
1761341848897129500,1.81712939453125,-0.05612228471636772,-0.008920187629107386,0.00015901735345833003
1761341848907195600,1.827195556640625,-0.06015840836465358,-0.0022001769253984092,0.005375066934735514
1761341848917262600,1.8372626953125,-0.06673954032063484,-0.007245495882537215,0.007090378386061638
1761341848927328500,1.84732861328125,-0.06808160257935524,-0.0029471228351816534,0.005804393696133047
1761341848937394700,1.857394775390625,-0.06464052221477032,0.003487257593870163,0.004704318933165632
1761341848947460600,1.867460693359375,-0.06778291189372539,0.003927804435603321,0.00883031282199081
1761341848957526800,1.87752685546875,-0.06643266632854938,-0.012952164825238286,0.005484701321669854
1761341848967592400,1.887592529296875,-0.06793254949748516,-0.0009783617791719733,0.005173694577161222
1761341848977658600,1.89765869140625,-0.07092822418212891,-0.0023564086667262015,0.005067261360888369
1761341848987724500,1.907724609375,-0.0701788671195507,-0.010054141828790306,0.007977970308973454
1761341848997791500,1.91779150390625,-0.06359188994467257,-0.007617215271759778,0.0041108465520432215
1761341849007857700,1.927857666015625,-0.06837853969931602,-0.006348747972212731,0.006117569564841687
1761341849017923600,1.937923583984375,-0.06478782173097133,-0.015340466467570512,0.006097659287974238
1761341849027989500,1.947989501953125,-0.06344634399414062,-0.010331643595919012,0.0025800019892631095
1761341849038055700,1.9580556640625,-0.060904258295893667,-0.008016443722415716,0.0016381682616192846
1761341849048121600,1.96812158203125,-0.05910802252888679,-0.009857906870637088,0.015834241333883253
1761341849058187500,1.9781875,-0.0628501316666603,-0.003807593855727464,0.01193587305531837
1761341849068253400,1.98825341796875,-0.05881400801837444,-0.011244173597265034,0.0038168548744171855
1761341849078319600,1.998319580078125,-0.06674246293008328,-0.00774657727247104,0.00486029951274395
1761341849088386600,2.008386474609375,-0.06345277373492718,-0.0060201005397364496,0.004201383512862957
1761341849098452500,2.018452392578125,-0.06105740303099155,-0.0054547948071733115,0.011035079157538711
1761341849108518700,2.0285185546875,-0.06315174496173859,-0.005767641882319003,0.008816718121478334
1761341849118584600,2.03858447265625,-0.06255436359047889,-0.010199870442412794,0.004598789899190887
1761341849128650800,2.048650634765625,-0.07497370018064975,-0.007090287054516375,0.007757473125820979
1761341849138716400,2.05871630859375,-0.07497253113687039,-0.005336447390820831,0.004016912057739682
1761341849148782600,2.068782470703125,-0.07093290035724639,-0.0024463154398836192,0.01193458071395289
1761341849158848500,2.0788486328125,-0.060011108848452566,0.001523519772849977,0.007770866896933876
1761341849168914400,2.08891455078125,-0.06315291400551795,-0.005697243527229875,0.0159630599119002
1761341849178981600,2.098981689453125,-0.0610550649434328,-0.004745714956056326,0.005731214295490644
1761341849189047600,2.109047607421875,-0.07032967376708985,-0.004577683179080486,0.006726362812682055
1761341849199113700,2.11911376953125,-0.07018295877277851,-0.005945756661891937,0.001189260016917251
1761341849209179600,2.1291796875,-0.06569266161620617,-0.006938621890451759,0.0005584056343184784
1761341849219245600,2.13924560546875,-0.06823766992390155,-0.010670976819191127,0.005244083799095824
1761341849229311500,2.1493115234375,-0.06629355011880397,-0.006690510614588857,0.00630794560436625
1761341849239377400,2.15937744140625,-0.06494505811929703,-0.01022584513388574,0.008554295192472637
1761341849249443600,2.169443603515625,-0.06779051067829131,-0.010140760666318237,0.010928481544484383
1761341849259509500,2.179509521484375,-0.06749240451455116,-0.009508307981677353,0.01549266592117492
1761341849269576400,2.189576416015625,-0.05866144780516624,-0.009741386085189879,0.0028322734170127656
1761341849279642600,2.199642578125,-0.06943535527586936,-0.009731376147828995,0.010926618380961008
1761341849289708500,2.20970849609375,-0.07018295877277851,-0.002590564482472837,-0.004349080321285874
1761341849299774700,2.219774658203125,-0.06883154416382313,-0.012672927758749574,0.0031389830123167485
1761341849309840600,2.229840576171875,-0.06972936978638172,-0.007127312862966209,0.005035688045690767
1761341849319906600,2.239906494140625,-0.05985153437256813,-0.005392360562831163,0.006594420695817098
1761341849329972500,2.249972412109375,-0.06254559576213359,-0.005406023762002587,0.008397949286713264
1761341849340038700,2.26003857421875,-0.06403788014650344,-0.006651329381670803,-0.0005262477972311899
1761341849350105600,2.270105712890625,-0.07660860790610313,-0.006491773172095418,0.00687901892401278
1761341849360171500,2.280171630859375,-0.08034720991253852,-0.010502305721398443,0.0037743994056014343
1761341849370237700,2.29023779296875,-0.06583177782595158,-0.00609915712531656,0.012391590066719799
1761341849380303600,2.3003037109375,-0.06597498568892479,0.0011396532881073652,0.0006543539891950786
1761341849390369500,2.31036962890625,-0.06462649368941784,-0.006107176034990698,0.002503425055136904
1761341849400435700,2.320435791015625,-0.060435471740365024,-0.0030507293401286005,0.002076404415257275
1761341849410501400,2.33050146484375,-0.06492167724370956,-0.009004632775858045,0.004426547737978398
1761341849420567600,2.340567626953125,-0.07225450434982776,-0.0016224318363703787,0.0031523174179252235
1761341849430633500,2.350633544921875,-0.06701777274012566,0.00006391381537541746,0.0046749786742497235
1761341849440700400,2.360700439453125,-0.0742003777205944,-0.008040756179764866,0.003245635424298234
1761341849450766600,2.3707666015625,-0.06612345424890517,0.001519227190222591,0.007946269129612483
1761341849460832500,2.38083251953125,-0.0578963086515665,-0.00003096139384433627,0.00903143858439289
1761341849470898700,2.390898681640625,-0.06328092429935932,0.0010937500534579157,0.0075891673542093484
1761341849480964600,2.400964599609375,-0.07120704112350941,-0.007407280581817031,0.014451655268529429
1761341849491030800,2.41103076171875,-0.07285071667730808,-0.011224738244432955,0.008083627207111567
1761341849501096400,2.421096435546875,-0.0638701223641634,-0.009079597708210348,0.003355160213378258
1761341849511162600,2.43116259765625,-0.06925649157762527,-0.007894114250689744,0.0073950101887108755
1761341849521228500,2.441228515625,-0.06581891834437847,-0.008152345061767846,0.006731180551694705
1761341849531295500,2.45129541015625,-0.06701894178390502,-0.000968205711338669,0.00391519611577969
1761341849541361700,2.461361572265625,-0.07465279766321181,-0.007469714826159179,0.0026741876453161236
1761341849551427600,2.471427490234375,-0.06866261733770371,-0.012193199684098361,0.00813564508871641
1761341849561493800,2.48149365234375,-0.06432371135056018,-0.006755721337907016,0.0024673536613350733
1761341849571559700,2.4915595703125,-0.06342939285933971,0.00205044799009338,0.010072485769656487
1761341849581625300,2.501625244140625,-0.06043780982792377,-0.003249558114167303,0.009848897013696841
1761341849591691500,2.51169140625,-0.06926876653730869,-0.008677757175359874,0.005303828329429962
1761341849601757400,2.52175732421875,-0.06448094773888588,-0.012662899555079639,0.007144958117511123
1761341849611824600,2.53182470703125,-0.06297814196050167,-0.0035015418475493787,0.005144281253009103
1761341849621890600,2.541890625,-0.06611994711756705,-0.0003598097557201981,0.013145627870992757
1761341849631956500,2.55195654296875,-0.07090776591598986,-0.01579621087843552,0.005839903400931507
1761341849642022700,2.562022705078125,-0.06282733531296253,-0.005600669551268219,0.006267682092636824
1761341849652088600,2.572088623046875,-0.06626783115565776,-0.009364205069560557,-0.0009940160060301422
1761341849662154800,2.58215478515625,-0.06986147173345089,-0.010171174070890993,0.0029184949623188004
1761341849672220400,2.592220458984375,-0.06746902363896369,-0.0032159663718193767,0.011673527758126146
1761341849682286600,2.60228662109375,-0.07300795306563376,-0.01018229825310409,0.0038924499944318082
1761341849692352500,2.6123525390625,-0.07375555656254291,-0.003320066067110747,0.003317070392426103
1761341849702419500,2.62241943359375,-0.06791910549402237,-0.0032250629937276244,0.008559839017270133
1761341849712485600,2.632485595703125,-0.05804068555831909,-0.0075330806522630155,0.016549043106311
1761341849722551600,2.642551513671875,-0.0631289486080408,-0.013084065842907874,0.010176151640107855
1761341849732617700,2.65261767578125,-0.06836801830530166,-0.010489153978880495,0.00739662675706204
1761341849742683600,2.66268359375,-0.0658218409538269,-0.009984547191299497,0.006064241075562313
1761341849752749600,2.67274951171875,-0.07091127304732799,-0.010787570669874548,0.0065880777199985455
1761341849762815500,2.6828154296875,-0.06596972499191761,-0.008852748416084796,0.004249844030779786
1761341849772881200,2.692881103515625,-0.06267302153408527,-0.010684347757417709,0.01022510991494637
1761341849782947000,2.702947021484375,-0.06297346578538418,-0.007787786065693944,0.0034690278174355623
1761341849793014000,2.713013916015625,-0.06656476827561855,-0.009757022045738995,0.0003618875483749434
1761341849803080200,2.723080078125,-0.061924833515286444,-0.012194715787749737,0.004791718655405566
1761341849813146000,2.73314599609375,-0.06372223832607268,-0.0064350745487958185,0.004464655825239606
1761341849823212000,2.7432119140625,-0.0721042822241783,-0.0001824986937455833,0.008510451484168879
1761341849833278000,2.75327783203125,-0.06178104113042354,-0.013299571757111698,0.007440228436770849
1761341849843344000,2.76334375,-0.06088321550786495,-0.006257215497549623,0.006944567574048414
1761341849853410000,2.77341015625,-0.07495265739262104,-0.007182513648923486,0.006432791260164231
1761341849863476000,2.78347607421875,-0.06612403877079487,-0.007952931765839458,0.005161200421769172
1761341849873543000,2.79354296875,-0.049963762086629865,-0.014956490384973585,0.008758699757349676
1761341849883609000,2.803609130859375,-0.06553016453087329,-0.004180792815983295,0.006516624485561623
1761341849893675000,2.813675048828125,-0.06733107647299766,-0.00857484479015693,0.008984850363153964
1761341849903741200,2.8237412109375,-0.05745674819052219,-0.004119436283875256,0.005331145594618283
1761341849913807000,2.83380712890625,-0.06508300528526306,-0.0028426395474001765,0.0037305100315250454
1761341849923873000,2.843873046875,-0.07181962006390094,-0.002106890885066241,0.008443811422167345
1761341849933939000,2.85393896484375,-0.06688450174927711,-0.009624518239870667,0.010791096067521721
1761341849944005000,2.864005126953125,-0.0631423926115036,-0.009522573969047515,0.004860445643216371
1761341849954071000,2.874071044921875,-0.07047638876140118,-0.011981712357886134,0.007582299222005531
1761341849964138000,2.884137939453125,-0.06538754118978977,-0.010246577394660561,0.010480833675106986
1761341849974204200,2.8942041015625,-0.06793254949748516,-0.002740512613486498,0.01475616377359256
1761341849984270000,2.90427001953125,-0.06673837127685546,-0.0027395992980338633,0.007015696581499651
1761341849994336300,2.914336181640625,-0.061350833019614213,-0.007377762226387858,0.0002106014102231711
1761341850004402000,2.92440185546875,-0.07062661088705062,-0.0029810616374015804,0.006203795676724985
1761341850014467800,2.9344677734375,-0.060301616227626795,-0.01690172443492338,0.009332978814234956
1761341850024534000,2.944533935546875,-0.06703413935303687,-0.010636398696154355,0.0031317404207773505
1761341850034600000,2.954599853515625,-0.06718319243490696,-0.00676823375960812,0.00917140874408651
1761341850044666000,2.964666015625,-0.06523673454225062,-0.006564126022253185,-0.0026035746610956266
1761341850054733000,2.974733154296875,-0.0755599756360054,-0.00453565240195021,0.005683183035836555
1761341850064799000,2.984799072265625,-0.06718202339112758,-0.006256009921152144,0.008065630326117389
1761341850074865200,2.994865234375,-0.06583762304484844,-0.004212557927425951,0.005594399640685878
1761341850084931000,3.00493115234375,-0.06927928793132304,-0.007430058669205755,0.005235877659753896
1761341850094997000,3.0149970703125,-0.0698784228682518,-0.0028793730949051677,0.006553253001789562
1761341850105063000,3.02506298828125,-0.06120119541585445,-0.0002504128308035433,-0.0005122603710740805
1761341850115129000,3.035129150390625,-0.0674865592956543,-0.00802857255162671,0.010304837787384167
1761341850125195000,3.045195068359375,-0.06583353139162063,-0.004299651688989252,0.0008283451494993641
1761341850135262000,3.055261962890625,-0.06538111144900322,-0.008895491579268127,0.0068430799609515815
1761341850145328000,3.065328125,-0.06119067402184009,-0.011967610767297446,0.009245971817639656
1761341850155394000,3.07539404296875,-0.0704664518892765,-0.007252053487487137,0.018782592578348703
1761341850165460200,3.085460205078125,-0.06987082408368588,-0.0005917553480714559,0.007675028139911591
1761341850175526100,3.095526123046875,-0.069874331215024,-0.004203095979336649,0.004726978289545513
1761341850185592000,3.105592041015625,-0.061790978002548215,-0.011022402339056133,0.007701797415828332
1761341850195658000,3.115657958984375,-0.0703226595044136,-0.004656776297278702,0.005568813108280301
1761341850205724000,3.125723876953125,-0.06867489229738712,-0.004727722641639411,0.0012202899094205348
1761341850215790000,3.1357900390625,-0.06687982557415961,-0.0050178098957054315,0.008227346526738255
1761341850225857000,3.14585693359375,-0.06703063222169876,-0.010534746686276047,0.007039314919104799
1761341850235923000,3.1559228515625,-0.06792904236614704,-0.007672416057717055,0.009566029518283904
1761341850245989000,3.165989013671875,-0.06359072090089321,-0.0059957698160782455,0.007681951071042567
1761341850256055000,3.176054931640625,-0.0659831689953804,-0.0023605733851902186,0.0012813861466245725
1761341850266121200,3.186121337890625,-0.05850070428550243,-0.007002298243809491,0.004750573794264346
1761341850276187000,3.196186767578125,-0.07361468678712844,-0.015329744144156575,0.010017161686113104
1761341850286253000,3.206253173828125,-0.07256897712647914,-0.0017226590741425752,0.010388077357737347
1761341850296319000,3.216319091796875,-0.0686760613411665,-0.007954466135799884,0.008034221407701261
1761341850306385200,3.22638525390625,-0.06553308714032173,-0.006620514118298888,0.01395013548717834
1761341850316452000,3.2364521484375,-0.06912205154299736,-0.006894563553016633,0.012023473706957883
1761341850326518000,3.24651806640625,-0.06448503939211368,-0.0071407933990471064,0.0008357201717793941
1761341850336584200,3.256584228515625,-0.06672668083906173,-0.006382942502759397,0.009907376602129078
1761341850346650000,3.266650146484375,-0.06687690296471119,-0.012934391706530005,0.004077003647945821
1761341850356716000,3.276716064453125,-0.07420680746138096,-0.004388900875020772,0.011007122571533546
1761341850366782000,3.286781982421875,-0.060141457229852674,-0.007195610592514276,0.004755533097172156
1761341850376848000,3.296847900390625,-0.06268354292809963,-0.005664017111063003,0.006863748289644718
1761341850386914000,3.3069140625,-0.07016893024742603,-0.0095616273378022,-0.0008399807883659377
1761341850396980000,3.31697998046875,-0.06642448302209376,-0.006464830366242676,0.0034098632424138485
1761341850407047000,3.327046875,-0.0631330402612686,-0.004519541517365723,0.004186117445072159
1761341850417113000,3.337113037109375,-0.053555649098753925,-0.00979492463702336,0.0015828076454577967
1761341850427179000,3.347178955078125,-0.06118716689050197,-0.005015197813510895,0.00826914440842811
1761341850437245200,3.3572451171875,-0.06492810698449611,-0.0005412855361588299,-0.0027614321039291095
1761341850447310800,3.367310791015625,-0.06806932761967181,-0.0013586480673402547,0.004953562720189802
1761341850457377000,3.377376953125,-0.0743570295870304,-0.006962897815182805,0.014431439030985347
1761341850467443000,3.38744287109375,-0.0655254883557558,-0.008406100627128035,0.009006651203008368
1761341850477509000,3.397509033203125,-0.07375497204065322,-0.0010791004735976456,0.009362520002550445
1761341850487575000,3.407574951171875,-0.06552373479008675,-0.013532923855260014,0.00131939376918599
1761341850497642000,3.41764208984375,-0.055794952458143234,-0.010198518735542892,-0.002666273766919039
1761341850507708200,3.427708251953125,-0.06821019739508628,-0.002003521842136979,-0.004835123972292058
1761341850517774000,3.437774169921875,-0.06521802984178066,-0.001980177499167621,0.010123161077545954
1761341850527840300,3.44784033203125,-0.06282441270351409,-0.008662084682192654,-0.0004613019353942945
1761341850537906000,3.457906005859375,-0.07344926709234714,-0.015695435651391743,0.0029327107173390686
1761341850547971800,3.467971923828125,-0.06850654999315739,-0.004838197278790176,0.0025385192014044148
1761341850558038000,3.4780380859375,-0.0661094257235527,-0.009627879240736366,0.0013916918204165995
1761341850568104000,3.48810400390625,-0.06790624601244927,-0.010957593474537133,0.005226114317565225
1761341850578171100,3.498171142578125,-0.05862754553556442,-0.00769020744273439,0.008285209627239965
1761341850588237000,3.508237060546875,-0.05967325519621372,-0.009266096723638475,0.017434274108777754
1761341850598303000,3.518302978515625,-0.0653600686609745,-0.007403956113569438,0.007976874330430291
1761341850608369200,3.528369140625,-0.061169631233811375,-0.006833700211253017,0.0031885029761586337
1761341850618435000,3.53843505859375,-0.05667699598968029,-0.008182776732649654,0.0029268609318649393
1761341850628501000,3.5485009765625,-0.06685352208912372,-0.012023743135016411,0.0004789791559800505
1761341850638567000,3.55856689453125,-0.07283902623951434,-0.0081449472066015,0.007052206366718747
1761341850648633000,3.568633056640625,-0.06266600727140903,-0.010437259394861757,0.008038838217314333
1761341850658699000,3.578698974609375,-0.07045183884203433,-0.011276103105489163,0.010306764882989226
1761341850668766000,3.588765869140625,-0.06805939074754715,-0.012282211408112198,0.007070714704366401
1761341850678832000,3.59883203125,-0.06416472139656543,-0.010796027970965951,0.00438643948987592
1761341850688898000,3.60889794921875,-0.05997603753507137,-0.010037300291843711,0.012782895505824126
1761341850698964200,3.618964111328125,-0.05683072524666786,-0.002234535852726549,0.014440850746724753
1761341850709030100,3.629030029296875,-0.06865560307502747,-0.009861121741030364,0.007116407876461744
1761341850719096000,3.639095947265625,-0.064915247502923,-0.0066822177102789275,-0.0025644208276411518
1761341850729162000,3.649161865234375,-0.0647673634648323,-0.003909921719040721,0.0010110676055308432
1761341850739228000,3.659227783203125,-0.06207564016282558,0.00047874169396236536,0.013324578334204851
1761341850749294000,3.669294189453125,-0.06387187592983246,-0.0069654550984501835,0.007446114754863083
1761341850759361000,3.679361083984375,-0.07105272734463214,-0.0039030170542187987,0.00435945558482781
1761341850769427000,3.689427001953125,-0.07180383797287941,-0.0022930976395495236,0.0049432879213476555
1761341850779493600,3.69949365234375,-0.06776362267136574,-0.010834149757958949,0.004031977196130901
1761341850789559600,3.7095595703125,-0.06941022083461285,-0.0036195056714117524,-0.0022708995074732226
1761341850799625700,3.719625732421875,-0.06551905861496925,-0.004068144488055259,0.002368405065196566
1761341850809691400,3.72969140625,-0.05908464165329933,-0.004388791277166456,0.008993526859953999
1761341850819757600,3.739757568359375,-0.0704576840609312,-0.010609620287083088,0.004502914609550498
1761341850829823500,3.749823486328125,-0.06581950286626816,-0.0051966735939495265,0.0050558129516895855
1761341850839889400,3.759889404296875,-0.0532516977161169,-0.009602507337462157,0.005432299847574904
1761341850849956600,3.76995654296875,-0.061032268589735025,-0.011999923868011683,0.005748302427609451
1761341850860022500,3.7800224609375,-0.0659744011670351,-0.013039057657402008,0.003735889459541067
1761341850870088700,3.790088623046875,-0.06043780982792377,-0.010199596447777003,-0.0018261148820398374
1761341850880154600,3.800154541015625,-0.06283201148808003,-0.00960482715871185,0.006124241334223188
1761341850890220500,3.810220458984375,-0.06403261944949626,0.001129789481218904,0.0005721875644987449
1761341850900286500,3.820286376953125,-0.061489364707469935,-0.010365253604575991,0.007332059921137988
1761341850910352400,3.830352294921875,-0.06178513278365135,-0.008599924432486295,0.010825888819689862
1761341850920418600,3.84041845703125,-0.07375789465010166,-0.006480027935374528,0.0016148650178452952
1761341850930484500,3.850484375,-0.06896656872034072,-0.006423840768728405,0.0026169547324767337
1761341850940551400,3.860551513671875,-0.06552841096520423,-0.0015207067612558601,0.004009340672637336
1761341850950617600,3.87061767578125,-0.07106383326053618,-0.0009577391162514686,-0.0023821915619540958
1761341850960683500,3.88068359375,-0.06836684926152228,-0.007109886804129928,-0.0010906310811871663
1761341850970749700,3.890749755859375,-0.06147708974778652,-0.0015470833115279674,0.007487734540039673
1761341850980815600,3.900815673828125,-0.058335284590721126,-0.0080980210586451,0.003946522835805081
1761341850990881500,3.910881591796875,-0.06671382135748863,-0.015221680659800767,0.004706095331721008
1761341851000947500,3.920947509765625,-0.07104980473518371,-0.016864442898146807,0.007429058588785119
1761341851011013600,3.931013671875,-0.058628130057454104,-0.01095878078462556,-0.0033962776750558984
1761341851021079600,3.94107958984375,-0.059974868491291994,-0.016184625674132258,0.0037015259656356645
1761341851031146500,3.951146484375,-0.06970072821378707,-0.0001819324381649494,0.00579897773549892
1761341851041212700,3.961212646484375,-0.07179565466642379,-0.007958137663919479,0.004030314962007105
1761341851051278600,3.971278564453125,-0.0683534052580595,-0.011737144745979457,0.0052500294826924795
1761341851061344500,3.981344482421875,-0.07463876913785934,-0.0045502289165742695,0.0025889250812353563
1761341851071410400,3.991410400390625,-0.06192132638394832,-0.0073267444252036506,0.004212722324207425
1761341851081476400,4.001476318359375,-0.05802665703296661,-0.012424085830524564,0.005165917696082033
1761341851091542500,4.01154248046875,-0.05682780263721943,-0.010275474695581942,-0.0019514856942230835
1761341851101608400,4.0216083984375,-0.07403554254770278,-0.005653331320267171,0.01481612749963533
1761341851111674600,4.031674560546875,-0.06550736817717552,-0.0069772186014801256,0.005328414781414903
1761341851121740500,4.041740478515625,-0.06072305651009082,-0.003975881361030042,0.010575681484863162
1761341851131806700,4.051806640625,-0.06266717631518841,-0.009710296827182174,0.008421613290091045
1761341851141872600,4.06187255859375,-0.055635377982258795,-0.006788052704930305,0.001878977580438368
1761341851151938600,4.0719384765625,-0.060875616723299025,-0.010100264259148388,0.010317998663056641
1761341851162005500,4.082005615234375,-0.0626718524903059,-0.00559648656649515,0.002434058746509254
1761341851172071400,4.092071533203125,-0.06940671370327473,-0.004947813399415463,-0.002746357832383364
1761341851182137600,4.1021376953125,-0.06163081900477409,-0.011112400443758814,0.010963877084851264
1761341851192203500,4.11220361328125,-0.07075637474656105,-0.015094656746648252,0.0018569621114525943
1761341851202269400,4.12226953125,-0.07225216626226902,-0.003439673858787864,0.007738941955287009
1761341851212335600,4.132335693359375,-0.06971066508591174,-0.010843757836520671,0.005436647229129448
1761341851222401500,4.142401611328125,-0.06567103430628776,-0.010361381147056817,0.0030673973471391945
1761341851232467700,4.1524677734375,-0.0514566309928894,-0.006875055134948343,0.0015143272528192028
1761341851242533400,4.162533447265625,-0.06327683264613151,-0.00857977669360116,0.008594362341379747
1761341851252600300,4.172600341796875,-0.0655167205274105,-0.012932126684207469,0.0009013784196693449
1761341851262666500,4.18266650390625,-0.05713876828253269,-0.003144070179387927,0.010342352219601161
1761341851272732400,4.192732421875,-0.06252630653977394,-0.007005293918494135,0.012402485920069739
1761341851282798600,4.202798583984375,-0.05953589255213737,-0.006007661183271557,0.006894595519057475
1761341851292864500,4.212864501953125,-0.06118073714971542,-0.004085826275218278,0.01099700760289561
1761341851302930700,4.2229306640625,-0.06148176592290401,-0.006669467826560139,0.0073761456580366935
1761341851312996600,4.23299658203125,-0.06088029289841652,-0.012174695913027972,0.007426423673704266
1761341851323062500,4.2430625,-0.0608808774203062,-0.007970686618238687,0.011142019263887777
1761341851333128400,4.25312841796875,-0.06911503728032112,-0.00956979237794876,0.0022687988819321617
1761341851343195400,4.2631953125,-0.06268120484054088,-0.007568681688606738,0.0009899334859568626
1761341851353261600,4.273261474609375,-0.07181377484500408,-0.006492686487548053,0.005636558281979523
1761341851363327500,4.283327392578125,-0.06074293025434017,-0.008021393892168998,0.012138889380707405
1761341851373393400,4.293393310546875,-0.06238543676435947,-0.005350366318318992,0.010003854679968208
1761341851383459600,4.30345947265625,-0.06627601446211338,-0.004915244570374488,0.003798853426845744
1761341851393525500,4.313525390625,-0.07002104620933532,-0.003263385710120201,0.0010341425204416735
1761341851403591700,4.323591796875,-0.05939852990806102,-0.0056226987199857826,0.010132741756644099
1761341851413657300,4.3336572265625,-0.06479015981853008,-0.004524729149136692,0.010824961804505437
1761341851423724500,4.343724609375,-0.0638958413273096,-0.0005001498081721365,0.002572398638119921
1761341851433790500,4.35379052734375,-0.0704793113708496,-0.003494874644745141,0.004927802657848224
1761341851443856400,4.3638564453125,-0.0574649314969778,-0.007055909860879182,0.005378806961514056
1761341851453922600,4.373922607421875,-0.07018471233844757,-0.0074917987938039,0.004234504897752777
1761341851463988500,4.383988525390625,-0.06838906109333039,-0.009616791591141371,0.005917311452119611
1761341851474054700,4.3940546875,-0.054174073258042334,-0.014079671017825602,-0.000509401693707332
1761341851484120600,4.40412060546875,-0.06883563581705093,-0.008192512675374746,0.00315659630082082
1761341851494186800,4.414186767578125,-0.0692857176721096,-0.00650866950796917,0.004168732485431246
1761341851504253700,4.424253662109375,-0.07182721884846686,-0.005402279168646783,0.008151153185102157
1761341851514319400,4.4343193359375,-0.06464402934610844,-0.0031384806888177987,0.009604708427703007
1761341851524385500,4.444385498046875,-0.05985621054768562,-0.007008764517214149,0.005913050835533068
1761341851534451500,4.454451416015625,-0.06809037040770054,-0.00247696630647406,0.007985276832594536
1761341851544517600,4.464517578125,-0.06884265007972717,-0.005606770498491823,0.012024788881209678
1761341851554583600,4.47458349609375,-0.06285539236366748,-0.005663396056555211,0.004575810882402584
1761341851564650500,4.484650390625,-0.06854162130653858,-0.008496336193848401,0.0034502683180384335
1761341851574716700,4.494716552734375,-0.06913374198079109,-0.005745265653729438,0.002978623085143044
1761341851584782600,4.504782470703125,-0.07272387542724609,-0.007330160224996507,0.005884276832197792
1761341851594848500,4.5148486328125,-0.06284896262288094,0.00033993601147085426,0.005094601458963006
1761341851604914400,4.52491455078125,-0.06464344482421874,-0.0021000410191714764,0.009862587612331844
1761341851614980400,4.53498046875,-0.06763678142130375,-0.004744874705839902,0.010102424250193871
1761341851625046500,4.545046630859375,-0.05626783066689968,-0.0029696634605526923,0.008561181590985506
1761341851635112400,4.555112548828125,-0.06509820285439491,-0.00022937004277482628,0.005724935251753777
1761341851645179400,4.565179443359375,-0.06539747806191444,-0.00678713938947767,0.0011322143337456508
1761341851655245600,4.57524560546875,-0.06465045908689498,-0.0042198827173560854,0.004500896182400174
1761341851665311500,4.5853115234375,-0.06315700565874577,-0.005559387692809104,-0.002410901633207686
1761341851675377700,4.595377685546875,-0.07213233927488327,-0.0019063998769037424,-0.0006072132121073082
1761341851685443600,4.605443603515625,-0.0637567251175642,-0.0036440190581604835,0.005598322330554947
1761341851695509500,4.615509521484375,-0.06764438020586967,-0.014678678090590983,0.007680311669805087
1761341851705575400,4.625575439453125,-0.07093640748858451,-0.0028825696989893913,0.001760520566231571
1761341851715641600,4.6356416015625,-0.07437573428750038,-0.007809906565956771,-0.0029025758739793673
1761341851725707500,4.64570751953125,-0.0680962156265974,-0.006728011347074061,0.00036047190942335873
1761341851735774500,4.6557744140625,-0.06435410648882389,-0.000519731291476637,0.007249235909315757
1761341851745840600,4.665840576171875,-0.05821838021278381,-0.003977360932063311,0.004778662811010144
1761341851755906600,4.675906494140625,-0.060466451400518414,-0.015052297175955026,0.0033748695608461273
1761341851765972700,4.68597265625,-0.06824936036169528,-0.008245210976991803,0.006354451627214439
1761341851776038700,4.69603857421875,-0.07169044072628021,-0.004686769576743245,0.00036053127492778
1761341851786104600,4.7061044921875,-0.06121580846309661,-0.004569664269406348,0.0014050490589113905
1761341851796170800,4.716170654296875,-0.06870061126053333,-0.0060945905480533835,0.006214691530074924
1761341851806236700,4.726236572265625,-0.06480944904088974,-0.003720116501674056,0.005457918346021324
1761341851816302800,4.736302734375,-0.06270984641313553,-0.006166066615376621,0.003992202308168635
1761341851826369800,4.746369873046875,-0.0655477001875639,-0.0024751031429506836,0.005039309341460466
1761341851836435700,4.756435791015625,-0.06569792231321335,-0.0018042729429900645,0.009932415145263076
1761341851846501600,4.766501708984375,-0.06928513315021992,-0.010198372605070472,0.011669057078985497
1761341851856567600,4.776567626953125,-0.06928513315021992,-0.01095284423418343,-0.0004505613456713035
1761341851866633700,4.7866337890625,-0.07167875028848647,-0.0011249854419380426,0.007370976292574777
1761341851876699600,4.79669970703125,-0.06374971085488795,0.0008884002070873975,-0.0016433924260083584
1761341851886765800,4.806765869140625,-0.07168108837604523,-0.00013904314450919627,-0.0019319772761547938
1761341851896831700,4.816831787109375,-0.0634469285160303,-0.003282181742135435,0.004868354955036193
1761341851906897700,4.826897705078125,-0.07197510288655758,-0.007093757653236389,0.0052100171327125275
1761341851916964900,4.83696484375,-0.06404489440917968,-0.006324198052845895,0.011838221367122604
1761341851927030800,4.84703076171875,-0.07721066545248031,-0.002095529240835458,0.010625891001871786
1761341851937096700,4.8570966796875,-0.05970423485636711,-0.0013121785771101713,0.008032819468481465
1761341851947162600,4.86716259765625,-0.06673427962362766,-0.0024654219991527494,0.0036038742774398996
1761341851957228500,4.877228515625,-0.06598667612671852,-0.004841540013346821,0.002545821158448234
1761341851967294700,4.887294677734375,-0.07676233716309071,-0.010309833622910082,0.00695266868211329
1761341851977360600,4.897360595703125,-0.06314356165528297,-0.009050736939907074,0.007701130695547908
1761341851987426800,4.9074267578125,-0.06344166781902313,-0.007313117758650332,0.00721207767012529
1761341851997492700,4.91749267578125,-0.059549336555600164,-0.00038043241864070293,0.0017081510581774637
1761341852007559700,4.9275595703125,-0.058503626894950866,-0.0024492197830229996,0.009146415866725146
1761341852017625900,4.9376259765625,-0.0700268914282322,-0.010762838087417185,0.004689655653573572
1761341852027691500,4.94769140625,-0.058657940673828124,-0.007943762078694998,0.0071431360531831155
1761341852037757700,4.9577578125,-0.0585065495043993,-0.005028239958174526,0.007399882726650685
1761341852047823600,4.96782373046875,-0.06883505129516124,-0.004746226412709802,0.0052641584727447475
1761341852057889800,4.977889892578125,-0.0691331574589014,-0.007032583784218878,0.003933562889532186
1761341852067955700,4.987955810546875,-0.07467033331990242,-0.0011893011161126195,0.007172407813440077
1761341852078022000,4.99802197265625,-0.06314706878662109,-0.00499998197806999,-0.0016935517106670885
1761341852088087800,5.008087890625,-0.0635953970760107,-0.007885529085434972,0.002872441030619666
1761341852098154800,5.01815478515625,-0.06389291871786117,-0.00795355282034725,0.007497328918869606
1761341852108221000,5.028220947265625,-0.06419160940349102,-0.0015348631507717072,-0.001700136715080589
1761341852118286600,5.03828662109375,-0.06539104832112788,-0.009094028092361987,0.003425800597062334
1761341852128352800,5.048352783203125,-0.05745733271241188,-0.00993298140084371,0.00037393417919520287
1761341852138418700,5.058418701171875,-0.06479074434041976,-0.010186389906331896,0.004080844139424152
1761341852148484600,5.068484619140625,-0.05790858361124992,0.0007323876614682376,0.012917358373338355
1761341852158550800,5.07855078125,-0.06180091487467289,-0.014166052393335848,0.011482211003685369
1761341852168616700,5.08861669921875,-0.06823533183634281,-0.011016611919086426,0.0049208888598717745
1761341852178683600,5.09868359375,-0.06524374880492687,-0.0072424088763073085,0.009686637390381655
1761341852188749800,5.108749755859375,-0.07167582767903805,-0.010764317658450455,0.0043152556834975256
1761341852198815500,5.1188154296875,-0.06314356165528297,-0.00958309025093913,-0.001483895581937395
1761341852208881700,5.128881591796875,-0.06733049195110798,-0.013126553277764469,0.0022012957368278876
1761341852218947600,5.138947509765625,-0.07765665565431118,-0.00949997854474932,-0.0015499785215128212
1761341852229013800,5.149013671875,-0.0686760613411665,-0.0113961675548926,0.0017071418446023016
1761341852239079700,5.15907958984375,-0.05550795221030712,-0.0085506784632802,0.007432305425219238
1761341852249145900,5.169145751953125,-0.06687865653038025,-0.0012927797568961978,0.001262845842936076
1761341852259211800,5.179211669921875,-0.07480886500775813,-0.006567797550372779,0.010373783970903605
1761341852269278700,5.18927880859375,-0.062242228901386254,-0.006301109438203275,0.00794682625203859
1761341852279345000,5.199344970703125,-0.05909983922243118,-0.0019593539068475363,0.0031829363184748215
1761341852289410600,5.20941064453125,-0.07077098779380321,-0.00362840136392042,0.00857357984825503
1761341852299476700,5.219476806640625,-0.06418634870648383,-0.006804163589514791,0.005769623776851222
1761341852309542700,5.229542724609375,-0.06568506283164025,-0.009075359924510121,0.005637339166691527
1761341852319608600,5.239608642578125,-0.06823007113933563,-0.009324950771406292,0.0030682010647375135
1761341852329674800,5.2496748046875,-0.06463876864910126,-0.014571016465034335,0.007194615078670904
1761341852339740700,5.25974072265625,-0.05850771854817867,-0.013926562815345824,0.00032719526090659197
1761341852349806800,5.269806884765625,-0.06254559576213359,-0.008178447617404163,0.005370354226999916
1761341852359873800,5.279873779296875,-0.06449030008912086,-0.00972297364566475,0.0033629553607665
1761341852369939700,5.289939697265625,-0.06808218710124492,-0.010914119658991694,-0.0021013698931550604
1761341852380005600,5.300005615234375,-0.06897592107057571,-0.0080760832214728,0.007379218964534811
1761341852390071600,5.310071533203125,-0.0646370150834322,-0.0102751824346371,0.0015068380661075933
1761341852400137700,5.3201376953125,-0.06134674136638641,-0.010177201952878386,0.008440505220228805
1761341852410203600,5.33020361328125,-0.07885609457194805,-0.008115300987008958,0.0033677000345429405
1761341852420269800,5.340269775390625,-0.0634434213846922,-0.011847948176693171,0.000883495703106746
1761341852430335700,5.350335693359375,-0.05790741456747055,-0.010479034443665295,0.0020303733164444564
1761341852440402000,5.36040185546875,-0.06508943502604961,-0.0037691250088624654,0.003557299755932763
1761341852450467600,5.370467529296875,-0.07152443650960921,-0.006893723302800208,0.010303152720374055
1761341852460534800,5.38053466796875,-0.07541676777303219,-0.0039869142116978765,0.00737885820493102
1761341852470600700,5.3906005859375,-0.05851005663573742,0.0010503858357667922,0.0013788369054207577
1761341852480666600,5.40066650390625,-0.06225684194862842,-0.008446469170134514,0.00039632867409382014
1761341852490732500,5.410732666015625,-0.060167176192998884,-0.002982285480108112,0.00405937665970996
1761341852500798700,5.420798828125,-0.05567921712398529,-0.01028146604495123,0.008218779627792537
1761341852510864600,5.43086474609375,-0.058821022281050676,-0.007000690808612853,0.005258285854384303
1761341852520930800,5.440930908203125,-0.06615794104039668,-0.0012577632424421608,-0.00012614256374072282
1761341852530996700,5.450996826171875,-0.0713946726500988,-0.0030990985265001653,0.0021942677744198587
1761341852541062700,5.461062744140625,-0.06630757864415646,-0.007589852340798824,0.00476229619809892
1761341852551129900,5.4711298828125,-0.06286532923579216,-0.0038966421123594044,0.005584188773925415
1761341852561195500,5.481195556640625,-0.05987491524815559,-0.000824742120038718,0.0012039552625501527
1761341852571261700,5.49126171875,-0.05613514419794082,-0.007788498451747,0.010078997708833776
1761341852581327600,5.50132763671875,-0.06242635329663753,-0.0025767551528289912,0.0028402283946052194
1761341852591393800,5.511393798828125,-0.060334349453449246,-0.011277546143904327,0.01438555406264495
1761341852601459700,5.521459716796875,-0.061382981723546975,-0.0049420777783729134,-0.0007633444887353107
1761341852611526000,5.53152587890625,-0.06527531298696994,-0.01347012428473681,0.0055767863521818065
1761341852621591800,5.541591796875,-0.06751987704336643,-0.0056356312667950985,0.004088191762240604
1761341852631657700,5.55165771484375,-0.05509995593130588,-0.003242708248272538,-0.005174977785372175
1761341852641724700,5.561724609375,-0.061086044603586194,-0.0015740261173807083,0.0022840375502593815
1761341852651790600,5.57179052734375,-0.07036240699291228,0.0006203421217389404,0.005769683142355643
1761341852661856800,5.581856689453125,-0.06407996572256087,-0.00015173822930082678,0.001608206948195584
1761341852671922700,5.591922607421875,-0.06557634176015853,-0.007043050379306077,-0.001497124956268817
1761341852681988600,5.601988525390625,-0.0691682287722826,-0.0070163998343981794,0.005154999009845778
1761341852692054800,5.6120546875,-0.06811725841462611,-0.002539838942233473,0.008733871276769787
1761341852702120700,5.62212060546875,-0.06737199300527572,0.0008758695190772414,0.0009445645408472045
1761341852712187000,5.632186767578125,-0.05645137054026127,-0.0030651049253530797,0.00115057197434362
1761341852722252500,5.64225244140625,-0.06139174955189228,-0.0008656038533896207,0.017653593114996327
1761341852732319500,5.652319580078125,-0.06004384207427501,-0.005232621690165251,0.010785515710106119
1761341852742385700,5.6623857421875,-0.05899579432606697,-0.00887086859466508,-0.0014882109974510968
1761341852752451600,5.67245166015625,-0.06273907250761986,-0.009806998667307198,0.0016989037392195314
1761341852762517800,5.682517822265625,-0.05959376021921634,-0.008456460841186344,0.013996477113245054
1761341852772583700,5.692583740234375,-0.06722703157663346,0.0018266857041977344,0.006611659524985589
1761341852782649600,5.702649658203125,-0.07216448797881603,0.0024293643050827085,0.0022970385957276447
1761341852792715300,5.71271533203125,-0.07081716502308845,-0.004306264092866331,0.00759259228715673
1761341852802781400,5.722781494140625,-0.060789692005515095,-0.0070466488421894605,0.011162240068009123
1761341852812847400,5.732847412109375,-0.06917115138173104,-0.006374393870122731,-0.001977871377649717
1761341852822914300,5.742914306640625,-0.06662906568348408,-0.0043125111705623565,0.009061536895134486
1761341852832980500,5.75298046875,-0.06588029314279556,-0.007630293949041515,0.00295148848304525
1761341852843046400,5.76304638671875,-0.06558043341338635,-0.001075849070586264,0.006235346159036271
1761341852853112600,5.773112548828125,-0.058847325766086575,-0.007363898097816854,0.007011116304504685
1761341852863178500,5.783178466796875,-0.07186287468373775,-0.010028057539463042,0.007588117041438818
1761341852873244400,5.793244384765625,-0.06647592094838618,-0.011972981062158942,0.006556435906141996
1761341852883310300,5.803310302734375,-0.06483049182891845,-0.00686436934415251,0.007310359545983374
1761341852893376300,5.813376220703125,-0.07007073056995869,-0.000035674101579934356,0.005372769946372136
1761341852903442400,5.8234423828125,-0.06588087766468524,-0.003933667920809239,0.005901305598812178
1761341852913509400,5.83350927734375,-0.06872340761423111,-0.0027842969562858343,0.007955338352057152
1761341852923575300,5.8435751953125,-0.06094108317494392,-0.0023674963163211942,0.0003610335984267294
1761341852933641500,5.853641357421875,-0.05989303542673587,-0.011240063677728175,0.0007784004939720034
1761341852943707400,5.863707275390625,-0.06916998233795166,-0.009166380942519753,0.009642222859920002
1761341852953773600,5.873773681640625,-0.06856792479157447,-0.004499704305734485,0.0020893826278392223
1761341852963839200,5.883839111328125,-0.07231003392934798,-0.004907755383662879,0.0070211445081746204
1761341852973905400,5.893905517578125,-0.06153904906809329,-0.007330178491305559,0.010567324648471548
1761341852983971300,5.903971435546875,-0.06961889514923095,-0.010649751368071883,0.010855685736332088
1761341852994037500,5.91403759765625,-0.0705143826842308,-0.0020732078111730516,0.01172494285153225
1761341853004103400,5.924103515625,-0.057795186364650725,-0.009259539118688553,0.006850637646322138
1761341853014170400,5.93417041015625,-0.061686933106184005,-0.009056143767386674,0.011641634782520121
1761341853024236500,5.944236572265625,-0.06931728185415267,-0.007575878614373505,0.00916347203280311
1761341853034302500,5.954302490234375,-0.06243161399364471,-0.0036593992903828617,0.0039080357226310295
1761341853044368400,5.964368408203125,-0.06093582247793674,-0.001566920523159206,0.00005014101834967732
1761341853054434300,5.974434326171875,-0.06497720682322979,-0.007059910182561725,0.004790298449876718
1761341853064500200,5.984500244140625,-0.06288344941437245,-0.012463102666661143,0.007692495297943242
1761341853074566400,5.99456640625,-0.0724620096206665,0.0015139299605973064,0.006741953107458539
1761341853084632300,6.00463232421875,-0.07425590730011462,-0.0016829846508800983,0.006438325951807201
1761341853094698500,6.014698486328125,-0.07051555172801018,-0.00873989915875718,0.004690409138821997
1761341853104765400,6.024765380859375,-0.06258592777252196,-0.0031594321453012526,0.005944030495686457
1761341853114831400,6.034831298828125,-0.06482698469758033,-0.0046894364578649395,0.0045019510617479675
1761341853124897500,6.0448974609375,-0.061982116660475726,-0.013743717061728238,0.008426513227494433
1761341853134963500,6.05496337890625,-0.061083706516027444,-0.014493896108213812,0.007722506843716837
1761341853145029400,6.065029296875,-0.062280807346105575,-0.011647932092566043,-0.002125883279903792
1761341853155095300,6.07509521484375,-0.07110942596793174,0.0006419876979663968,0.010798475656379014
1761341853165161500,6.085161376953125,-0.07036474508047104,-0.006559486379753798,0.0035644921151222657
1761341853175227400,6.095227294921875,-0.07111468666493892,-0.008298183273244648,-0.0008974420300684869
1761341853185293300,6.105293212890625,-0.07186229016184806,-0.004595200569462031,-0.0038861435512313617
1761341853195360500,6.115360595703125,-0.07036474508047104,-0.008997490649018437,-0.0009716443440178408
1761341853205426400,6.125426513671875,-0.06751929252147675,-0.0014498517484404145,0.00688443945122417
1761341853215492600,6.13549267578125,-0.05988952829539775,-0.005583353090286254,0.014466428145975804
1761341853225558500,6.14555859375,-0.0669195730626583,-0.010977905610203743,0.005241645246837288
1761341853235624200,6.155624267578125,-0.06676759737133979,-0.006892809987347572,-0.0054037861391436305
1761341853245690400,6.1656904296875,-0.0633253479629755,-0.0031575689817778764,0.0003428951535373926
1761341853255756300,6.17575634765625,-0.06452011070549488,-0.009086849432904272,0.00021049181236885487
1761341853265822500,6.185822509765625,-0.0694558135420084,-0.0003818754570558667,0.00808538533935789
1761341853275888400,6.195888427734375,-0.06616495530307293,-0.002478683339525014,-0.001586310210218653
1761341853285955300,6.205955322265625,-0.059730538341403,-0.011471936204843223,0.0123307495578425
1761341853296021500,6.216021484375,-0.06616904695630073,-0.006839655028004199,0.009328074310254305
1761341853306087400,6.22608740234375,-0.06826221984326838,-0.0003335793359205127,0.004947242577257566
1761341853316153600,6.236153564453125,-0.07050503033399581,-0.005179192736186087,0.008193247894314117
1761341853326219300,6.24621923828125,-0.07170563829541206,-0.007124536383990198,0.005045012996462174
1761341853336285400,6.256285400390625,-0.06601707126498221,-0.005296572038158774,0.00242184771890752
1761341853346351400,6.266351318359375,-0.07005494847893715,-0.008239110029768197,0.0044764284614240745
1761341853356417500,6.27641748046875,-0.06317044966220856,-0.009810341401863843,0.008442761109396815
1761341853366483500,6.2864833984375,-0.0700526103913784,-0.0053740394548513,0.005951035625208169
1761341853376550400,6.29655029296875,-0.0658610039204359,-0.008575374513119459,0.008127603346155955
1761341853386616600,6.306616455078125,-0.061221069160103794,-0.007550579776335507,0.012045859068701974
1761341853396682500,6.3166826171875,-0.07109364387691021,-0.00008413461949676274,-0.0027983574476791546
1761341853406748400,6.32674853515625,-0.0603232435375452,-0.014569427296146749,-0.0006960788056487217
1761341853416814300,6.336814453125,-0.06092763917148113,-0.007265241762623191,0.018170561627228743
1761341853426880300,6.34688037109375,-0.05808686278760433,-0.0034514921607449647,0.016893678125785662
1761341853436946400,6.356946533203125,-0.0612251608133316,-0.004655552454572171,0.007801860256819054
1761341853447012400,6.367012451171875,-0.06930559141635895,-0.0058807651342824094,0.0037022200853796673
1761341853457078500,6.37707861328125,-0.06018003567457199,-0.007104059851542115,0.003497094001295045
1761341853467144400,6.38714453125,-0.06436988857984542,-0.00469679778041318,0.0009349975614808499
1761341853477211400,6.39721142578125,-0.06391746863722801,-0.007691887943167239,0.006682331874710508
1761341853487277600,6.407277587890625,-0.06107318512201309,-0.004618581445049494,0.0040704414764186365
1761341853497343200,6.41734326171875,-0.0655646513223648,-0.003048208589479327,0.004579432178172283
1761341853507409400,6.427409423828125,-0.05988017594516277,-0.008941504411771894,0.004714369969721883
1761341853517475300,6.437475341796875,-0.06841185744702816,-0.01095149252731353,0.0072392533714184535
1761341853527541500,6.44754150390625,-0.06093231534659862,-0.006948777958285063,0.002459814242273569
1761341853537607400,6.457607421875,-0.06452712496817112,-0.00019513897961005567,0.0007616457219934091
1761341853547673300,6.46767333984375,-0.0670721332758665,-0.007028784391935914,0.003903697474231012
1761341853557739500,6.477739501953125,-0.06751929252147675,-0.0006569112724624574,0.00987365242904052
1761341853567806500,6.487806396484375,-0.06347790817618369,-0.005932403989974409,-0.005333826175471767
1761341853577872600,6.49787255859375,-0.06018704993724823,-0.009033109951671212,0.005017841861746274
1761341853587938300,6.507938232421875,-0.0649766223013401,-0.009746518918033688,0.012585505203623323
1761341853598004200,6.518004150390625,-0.06392974359691142,-0.00384098466867581,0.004637153714778833
1761341853608070400,6.5280703125,-0.06542261250317097,-0.009372278778161852,0.00812926101370249
1761341853618136300,6.53813623046875,-0.06931319020092487,-0.00023684096317738292,0.003703042069287039
1761341853628202500,6.548202392578125,-0.06437222666740416,-0.0045254963341169055,0.005383195442263968
1761341853638268400,6.558268310546875,-0.0613777210265398,-0.0010103095537051558,0.005605733885453082
1761341853648334600,6.56833447265625,-0.06706687257885932,-0.004361738873459398,0.0036529695495963093
1761341853658401500,6.578401611328125,-0.07111001048982143,-0.009351181191205978,0.0006704100748524069
1761341853668467500,6.588467529296875,-0.06722001731395721,-0.00406916740136221,0.0012235915447818115
1761341853678533400,6.598533447265625,-0.06721884827017784,-0.006662015172466635,0.009718649096996523
1761341853688599300,6.608599365234375,-0.07051262911856174,-0.0027969920410774647,0.00827620433687698
1761341853698665500,6.61866552734375,-0.0711111795336008,-0.006382741573359817,0.009996876949910074
1761341853708731400,6.6287314453125,-0.07769874123036861,-0.0031083412788808344,0.004027090958459303
1761341853718797600,6.638797607421875,-0.06737491561472415,-0.003918579949531704,0.0057819718017708506
1761341853728863500,6.648863525390625,-0.05974456686675548,-0.003891326616425067,0.00482622827978339
1761341853738929400,6.658929443359375,-0.06408113476634025,-0.007124591182917356,0.004950644677318632
1761341853748996600,6.66899658203125,-0.06542611963450909,-0.011406962943542749,-0.00014427644205279648
1761341853759062500,6.6790625,-0.06931903541982173,-0.012541501665115355,0.009248008511099033
1761341853769128400,6.68912841796875,-0.05794833109974861,-0.0015616598261520265,0.0069210771006066344
1761341853779194400,6.6991943359375,-0.06093932960927486,-0.0008649827988818288,0.0016167053484823554
1761341853789260300,6.70926025390625,-0.065277066552639,-0.008279204578138888,0.007156945382826961
1761341853799326200,6.719326171875,-0.058842065069079394,-0.00783690417073667,0.005275748445838689
1761341853809392000,6.72939208984375,-0.06228197638988495,-0.010311568922270089,0.007048146679531782
1761341853819458300,6.739458251953125,-0.06916530616283416,-0.01674395832363516,0.006898650639667175
1761341853829524200,6.749524169921875,-0.0715595078229904,-0.006583963233884424,0.001015597650175914
1761341853839590400,6.75959033203125,-0.07036825221180916,-0.004094502772018313,0.001017693709139712
1761341853849657300,6.7696572265625,-0.0651332741677761,-0.007380155112873763,0.0007131669377675279
1761341853859723300,6.77972314453125,-0.06977437797188758,-0.005020495043136179,0.0078021981835365295
1761341853869789400,6.78978955078125,-0.06603752953112126,-0.0015219306039623915,0.007291303219064138
1761341853879855400,6.79985546875,-0.06199789875149726,0.0016560966439545153,0.002582002150104381
1761341853889921300,6.80992138671875,-0.06439502302110195,-0.00467796521577984,0.010002589738066307
1761341853899987200,6.8199873046875,-0.07008066744208336,-0.008277030887361616,-0.001297830391349271
1761341853910053400,6.830053466796875,-0.07142799039781093,-0.009111088825017214,0.004926268287887796
1761341853920119300,6.840119384765625,-0.073376786378026,-0.0034294812583364545,0.006402049062028527
1761341853930185200,6.850185302734375,-0.060657590058445926,-0.004756455545779317,0.002031912252982147
1761341853940252400,6.86025244140625,-0.05811141270697116,-0.005797306368220598,0.004217508097179233
1761341853950318300,6.870318359375,-0.06709083797633647,-0.008266838286910206,0.005202418348146602
1761341853960384300,6.88038427734375,-0.06140343998968601,-0.012975344771426171,0.007573216299829073
1761341853970450400,6.890450439453125,-0.06813420954942703,-0.007392393539939075,0.014202333849691785
1761341853980516000,6.90051611328125,-0.059300330230593674,-0.006759849523752927,0.002157904119673185
1761341853990582300,6.910582275390625,-0.0639396804690361,-0.00031865576142445207,-0.0007871911552036181
1761341854000648200,6.920648193359375,-0.06574000788927079,-0.0043073966040275986,0.004755227136495523
1761341854010714400,6.93071435546875,-0.06364508143663405,-0.007490538418479263,-0.0015385392454685643
1761341854020780300,6.9407802734375,-0.06259878725409507,-0.0014626016321592032,0.005240147409494966
1761341854030847200,6.95084716796875,-0.07008008292019367,-0.002101739785913378,0.006687359676277265
1761341854040913400,6.960913330078125,-0.07277063717842101,-0.006266330385766923,0.006400350295286625
1761341854050979300,6.970979248046875,-0.06782908912301062,-0.004466879748366773,0.00767459431507159
1761341854061045200,6.981045166015625,-0.06513268964588642,-0.011004227361548692,0.01014477468773257
1761341854071111200,6.991111083984375,-0.07216331893503665,-0.007216068858653306,0.0014432073785224928
1761341854081177300,7.00117724609375,-0.06737257752716541,-0.004624280533473938,0.009418748268391937
1761341854091243300,7.0112431640625,-0.07141513091623783,-0.0039339419154450295,0.0015638152506202458
1761341854101309200,7.02130908203125,-0.06333470031321048,0.0007091163837350904,0.0071466614508302875
1761341854111375400,7.031375244140625,-0.06273439633250236,-0.011152714187838137,0.007388096390734426
1761341854121441300,7.041441162109375,-0.06183657070994377,-0.007882789139077067,0.007789096673368476
1761341854131508200,7.05150830078125,-0.06049100131988525,-0.0039586562315933405,0.008905606547906062
1761341854141574400,7.061574462890625,-0.0702180300861597,-0.0003394245548173785,0.006473433797806501
1761341854151640000,7.07164013671875,-0.0648328299164772,-0.005621602741442621,0.001823877259180881
1761341854161706200,7.081706298828125,-0.062439797300100325,-0.006333513870462775,0.0053783137711696325
1761341854171772200,7.091772216796875,-0.06588029314279556,-0.00641611411999911,-0.00011454802406951784
1761341854181838300,7.10183837890625,-0.06962357132434845,-0.00045371685056015844,-0.010666058615478686
1761341854191904300,7.111904296875,-0.06379296547472477,-0.005026194131560623,-0.0009775945941917598
1761341854201970400,7.121970458984375,-0.062000821360945695,-0.006086644703615456,0.010514790743635967
1761341854212036400,7.132036376953125,-0.06514321103990077,-0.006077529815398156,0.0007346024514408782
1761341854222103300,7.142103271484375,-0.0697825612783432,-0.006199165167380124,0.004838640236784704
1761341854232169500,7.15216943359375,-0.06663315733671188,-0.008452405720576643,0.007641185235814191
1761341854242235100,7.162235107421875,-0.0654343029409647,-0.009435973397828638,0.007061033560568466
1761341854252301300,7.17230126953125,-0.06662906568348408,-0.012835351778846234,-0.00481400811902713
1761341854262367200,7.1823671875,-0.061547232374548906,-0.007492803440801799,0.0024057185680139807
1761341854272433400,7.192433349609375,-0.06199672970771789,-0.005112776436470449,0.010459649323183112
1761341854282499300,7.202499267578125,-0.06394201855659484,-0.00932290494479239,0.003447711034771055
1761341854292565200,7.212565185546875,-0.06678454850614071,-0.008772595851961523,0.003844067108328454
1761341854302631400,7.22263134765625,-0.06184650758206844,-0.0030599172935821114,0.008291666767490095
1761341854312698400,7.232698486328125,-0.06020224750638008,-0.00581109743155539,0.001311995914019644
1761341854322764300,7.242764404296875,-0.05571838009059429,-0.011445066464226692,0.0030247318157693368
1761341854332830200,7.252830322265625,-0.06439560754299163,-0.005490669838152826,0.004791225465061143
1761341854342896000,7.262896240234375,-0.0636480040460825,-0.00890780307156965,0.0001709406866924837
1761341854352962300,7.27296240234375,-0.06379997973740101,-0.0031261691965162753,-0.0017615069469204172
1761341854363028200,7.2830283203125,-0.06409983946681022,-0.006061985186394303,-0.00014602087456732987
1761341854373094400,7.293094482421875,-0.0648503655731678,-0.009548165068030356,0.0023874385592294856
1761341854383160300,7.303160400390625,-0.07158581130802631,-0.0038136217377148568,0.004516290114354342
1761341854393226500,7.3132265625,-0.05572890148460865,-0.0006481434441171586,0.009330334765999577
1761341854403293400,7.32329345703125,-0.07144143440127372,-0.008848218371439724,0.012159658174100332
1761341854413359400,7.333359375,-0.06575345189273357,-0.007424724906962364,-0.001433014778071083
1761341854423425300,7.34342529296875,-0.06590308949649333,-0.00548482461925596,0.003802086563548073
1761341854433491200,7.3534912109375,-0.07278700379133224,-0.0015253464037552475,-0.002737914231023751
1761341854443557400,7.363557373046875,-0.06709960580468177,0.0017375278497114776,0.00045885424998123197
1761341854453623300,7.373623291015625,-0.05677578018903732,0.0008467530224472284,0.001339139649271965
1761341854463689200,7.383689208984375,-0.07038812595605849,0.0040771132458001375,0.0034493321696994826
1761341854473755400,7.39375537109375,-0.06425298420190811,0.00007823460167273878,0.007285270770499483
1761341854483821300,7.4038212890625,-0.06365384926497936,-0.0059298284403979775,0.004141634415951557
1761341854493887200,7.41388720703125,-0.06724339818954467,-0.008399086364451795,0.005071649841638282
1761341854503954200,7.4239541015625,-0.05811550436019897,-0.008757818407937884,0.0026497427572263403
1761341854514020000,7.43402001953125,-0.06365443378686904,-0.003564231820218265,0.007572019856586121
1761341854524086300,7.444086181640625,-0.0658960752338171,-0.007408979348558932,0.00253323567151092
1761341854534152200,7.454152099609375,-0.059760933479666704,-0.00036441286560147997,0.002334384064585902
1761341854544218400,7.46421826171875,-0.06633972734808921,-0.004168079464882612,0.0041402735759271305
1761341854554284300,7.4742841796875,-0.061551324027776716,-0.00539078966025263,0.006629925834038294
1761341854564350500,7.4843505859375,-0.07352642398178577,0.0002929367982782423,0.008143654865236022
1761341854574416400,7.49441650390625,-0.06514613364934921,-0.005574585261940956,0.001953732450236566
1761341854584482300,7.504482421875,-0.07038286525905132,-0.0007023395830765367,0.00483494130920153
1761341854594549200,7.51454931640625,-0.06843640736639499,-0.007046447912789881,0.008388720234064385
1761341854604615200,7.524615234375,-0.07277414430975913,-0.001301456253696233,0.0011445988912833853
1761341854614681300,7.534681396484375,-0.06783785695135593,-0.00033352453699335454,0.014879201064794324
1761341854624747300,7.544747314453125,-0.05766425346136093,-0.009696651894319803,0.0027120993697550147
1761341854634813200,7.554813232421875,-0.06005962416529655,-0.003680369013175368,-0.0002114553601713851
1761341854644879400,7.56487939453125,-0.06409983946681022,-0.0005101962781511247,0.005267848267173394
1761341854654945300,7.5749453125,-0.0654512540757656,-0.007368135881517082,0.01163552013556473
1761341854665011200,7.58501123046875,-0.06649637921452523,-0.005195175756607205,0.0038961352222831916
1761341854675077000,7.5950771484375,-0.06813947024643421,-0.008886120962724089,0.0010297312068054453
1761341854685143300,7.605143310546875,-0.05991057108342647,-0.003771554427966475,0.0029613614230882376
1761341854695210200,7.615210205078125,-0.07127952183783054,-0.0013139686753973364,0.004222837292845361
1761341854705276200,7.625276123046875,-0.05825929674506187,-0.000794694041647017,-0.00254545583226718
1761341854715342300,7.63534228515625,-0.06379179643094539,-0.004145575372129678,0.006769105975865386
1761341854725408300,7.645408203125,-0.06379413451850414,-0.008993892186135053,0.003130617042770609
1761341854735474400,7.655474365234375,-0.06424538541734218,0.00009460121458396314,0.006875379361934028
1761341854745540400,7.665540283203125,-0.05825929674506187,-0.0003568871462717652,0.0037131981371203433
1761341854755606300,7.675606201171875,-0.06244739608466625,-0.007768003652989864,0.0041253591345855965
1761341854765672200,7.685672119140625,-0.0679834029018879,-0.010639759697020053,-0.0033328616166021672
1761341854775738000,7.695738037109375,-0.0658873074054718,-0.0027801870367489753,0.0017020135783357546
1761341854785805600,7.7058056640625,-0.0607984598338604,-0.001165189588163048,0.004856870013219304
1761341854795871500,7.71587158203125,-0.0687327599644661,-0.008958619943354278,0.009811167952348477
1761341854805937400,7.7259375,-0.06663900255560874,0.00021782573545351623,0.003197649830416776
1761341854816003300,7.73600341796875,-0.06978139223456382,-0.005578969176113605,0.0050887790729524564
1761341854826069200,7.7460693359375,-0.060358899372816084,-0.005131736865267157,0.005397945486824028
1761341854836135400,7.756135498046875,-0.07143208205103874,-0.0021438436282798646,0.007588541733124293
1761341854846201300,7.766201416015625,-0.06155366211533546,-0.008374646042939275,0.0037512331591453402
1761341854856267500,7.776267578125,-0.06334931336045264,-0.001638177394773811,0.005335419910936616
1761341854866333400,7.78633349609375,-0.06051087506413459,-0.00027050577076151964,0.008841226941649802
1761341854876399600,7.796399658203125,-0.0588636923789978,-0.009902787191979586,0.01074142540663015
1761341854886466600,7.806466552734375,-0.07307984925806522,-0.006910217779874802,0.008581091867852955
1761341854896532200,7.8165322265625,-0.07697101147770881,0.003451090301945805,0.003660696198325604
1761341854906598400,7.826598388671875,-0.058415948611497875,-0.0039020672061480578,0.004675485564325936
1761341854916664300,7.836664306640625,-0.06290332315862178,-0.007666753501910716,0.007092702773888595
1761341854926730500,7.84673046875,-0.06051145958602428,-0.004535597603023052,0.0029045121027389538
1761341854936796400,7.85679638671875,-0.06649696373641491,-0.0009211699655279516,0.0029305826923344282
1761341854946862300,7.8668623046875,-0.06784604025781155,-0.0006801277512684464,-0.0060400382160674775
1761341854956928500,7.876928466796875,-0.060513797673583024,-0.0075326787934638555,0.007947232677415013
1761341854966994400,7.886994384765625,-0.06934007820785046,-0.0055826589705422515,0.00815299808231648
1761341854977061600,7.8970615234375,-0.06694003132879733,-0.005550345869828015,0.0012228106600698082
1761341854987127300,7.907127197265625,-0.05945581305325031,-0.004915354168228804,0.005300558660109527
1761341854997193200,7.917193115234375,-0.061550154983997345,-0.005101999314129352,0.004725763579993508
1761341855007259400,7.92725927734375,-0.05990881751775741,-0.002953296847641468,0.008912803473672829
1761341855017325300,7.9373251953125,-0.06799275525212288,-0.001478949978761375,0.0031381153626367448
1761341855027391500,7.9473916015625,-0.0688935034841299,-0.005033427589945494,-0.006415693994890898
1761341855037457400,7.95745751953125,-0.06383154391944408,-0.0003703311497345567,-0.00714736927030608
1761341855047523600,7.967523681640625,-0.12906827846169472,0.0018548888853751123,-0.02155506209952291
1761341855057589200,7.97758935546875,0.006347907721996307,-0.009056691756658256,0.02987129248611163
1761341855067656400,7.987656494140625,-0.09286240809261798,0.0017401033992879092,-0.005616237013158388
1761341855077722400,7.997722412109375,-0.05080547360777855,-0.003161898097023368,0.010685206273943185
1761341855087788300,8.007788330078125,-0.06725742671489715,-0.001907970779482275,-0.0024636045014020053
1761341855097854500,8.0178544921875,-0.06336041927635669,-0.006848751649912446,0.0011271271666744723
1761341855107920400,8.02792041015625,-0.084909987783432,-0.004080054121557623,0.0012835004718974232
