time,seconds_elapsed,z,y,x
1761341847155691300,0.075691162109375,-0.0014482135884463787,-0.0005548102781176567,0.000028935261070728302
1761341847165757200,0.085757080078125,0.0001046275720000267,0.0006392914801836014,0.0009782598353922367
1761341847175822800,0.09582275390625,0.0008529755286872387,-0.0003897547721862793,0.0009849178604781628
1761341847185889000,0.105888916015625,-0.00020829122513532639,0.0013917898759245872,-0.0011333362199366093
1761341847195955000,0.115954833984375,0.00034484732896089554,-0.0007946658879518509,0.0021881586872041225
1761341847206021000,0.126021240234375,-0.0011933841742575169,-0.00011315848678350449,-0.00208504730835557
1761341847216087000,0.136087158203125,0.002320390660315752,0.0009339964017271996,-0.0016624038107693195
1761341847226153200,0.1461533203125,-0.0010288124904036522,0.00000451505184173584,0.0009542107582092285
1761341847236220200,0.15622021484375,-0.0007539740763604641,0.0011837631464004517,-0.0014812503941357136
1761341847246286000,0.1662861328125,-0.00026909029111266136,0.0006018960848450661,0.0011276877485215664
1761341847256352300,0.176352294921875,-0.0011921422556042671,-0.0006846766918897629,-0.0011085686273872852
1761341847266418000,0.18641796875,0.0013115913607180119,-0.0020097000524401665,0.003365772310644388
1761341847276484000,0.196484130859375,0.001541954930871725,-0.0013710744678974152,-0.0002835579216480255
1761341847286550000,0.206550048828125,0.0006139958277344704,0.00021430104970932007,0.001175751443952322
1761341847296616200,0.2166162109375,-0.00042170751839876175,-0.0003231251612305641,-0.000991262961179018
1761341847306682000,0.22668212890625,-0.0006294790655374527,-0.0008468590676784515,0.0015821256674826145
1761341847316749000,0.2367490234375,-0.0012135105207562447,0.0009089633822441101,-0.0005270983092486858
1761341847326815200,0.246815185546875,-0.00007923273369669914,0.00164878461509943,-0.0010281414724886417
1761341847336881200,0.256881103515625,-0.0029194937087595463,0.0005044247955083847,-0.0012236172333359718
1761341847346947000,0.266947021484375,0.001033911481499672,-0.0013950541615486145,-0.00008269445970654488
1761341847357013000,0.277012939453125,0.0026222208980470896,0.0009735617786645889,-0.0029647676274180412
1761341847367079000,0.287078857421875,-0.001407488714903593,0.00010963901877403259,-0.00021548429504036903
1761341847377145000,0.29714501953125,-0.00017497781664133072,-0.0014371257275342941,-0.00014198105782270432
1761341847387211000,0.3072109375,-0.0010575591586530209,-0.0007688282057642937,0.0015022302977740765
1761341847397278000,0.31727783203125,-0.0006578187458217144,-0.0005882661789655685,-0.00043948041275143623
1761341847407344000,0.32734423828125,-0.0007532867603003979,-0.000038428232073783875,0.001756956335157156
1761341847417410000,0.33741015625,-0.0005876380018889904,0.00029766280204057693,-0.0001815585419535637
1761341847427476200,0.347476318359375,0.0009471005760133266,0.0011438541114330292,-0.0018024859018623829
1761341847437542000,0.3575419921875,-0.002263339702039957,0.0004719384014606476,0.00009767943993210793
1761341847447608000,0.367608154296875,0.0010791285894811153,-0.001716778613626957,-0.0009097438305616379
1761341847457674000,0.377674072265625,0.0021284138783812523,-0.002479241229593754,0.00098802475258708
1761341847467740200,0.387740234375,-0.0021660118363797665,-0.0014460580423474312,-0.000724762212485075
1761341847477807000,0.39780712890625,-0.00010232813656330109,0.00004371441900730133,0.0011072265915572643
1761341847487873000,0.407873046875,0.0012341905385255814,0.0001252954825758934,0.0004702918231487274
1761341847497939200,0.417939208984375,0.000546562485396862,0.0004451414570212364,-0.0006876504048705101
1761341847508005000,0.428005126953125,-0.0004013311117887497,-0.0015092752873897552,-0.0005072159692645073
1761341847518071300,0.4380712890625,0.0007129358127713203,0.00033869221806526184,0.0008485997095704079
1761341847528137000,0.448136962890625,-0.0015601706691086292,-0.0008249152451753616,0.00008982932195067406
1761341847538203000,0.458202880859375,0.002630313392728567,0.0003881547600030899,0.000023782718926668167
1761341847548269000,0.46826904296875,-0.0013980604708194733,-0.0016058534383773804,-0.0022750929929316044
1761341847558335000,0.4783349609375,-0.00019830651581287384,-0.00067188311368227,0.0028584166429936886
1761341847568402200,0.488402099609375,0.0003305133432149887,0.000025816261768341064,-0.0004038400948047638
1761341847578468000,0.498468017578125,0.0000463537871837616,-0.0001928294077515602,0.0017626411281526089
1761341847588534000,0.508533935546875,0.00022770976647734642,0.0011905757710337639,-0.0022476855665445328
1761341847598600200,0.51860009765625,0.0015997705049812794,0.00021186377853155136,-0.002676454372704029
1761341847608666000,0.528666015625,0.0008918172679841518,-0.00024950597435235977,-0.00041540758684277534
1761341847618732000,0.53873193359375,0.0005064578726887703,0.001002446748316288,-0.0007384489290416241
1761341847628798000,0.5487978515625,-0.0004342556931078434,-0.0007126862183213234,0.000720796175301075
1761341847638864100,0.558864013671875,0.0016760332509875298,-0.0006184102967381477,0.00044276192784309387
1761341847648931000,0.56893115234375,0.0006617321632802486,-0.0009895293042063713,0.00004349462687969208
1761341847658997000,0.5789970703125,-0.0004131197929382324,0.001268298365175724,0.0017338022589683533
1761341847669063200,0.589063232421875,0.00046309642493724823,0.0014655040577054024,0.0011315010488033295
1761341847679129000,0.599129150390625,-0.00036940770223736763,0.0006252769380807877,-0.001992653589695692
1761341847689195300,0.6091953125,-0.000011873897165060043,-0.0002926979213953018,0.002909981645643711
1761341847699261200,0.61926123046875,0.00033753272145986557,0.00015071779489517212,-0.0006874166429042816
1761341847709327000,0.6293271484375,0.0005063437856733799,-0.00007181242108345032,0.0011591697111725807
1761341847719393000,0.63939306640625,0.00020274333655834198,0.000405958853662014,0.0005066953599452972
1761341847729460000,0.6494599609375,-0.0000199819914996624,-0.0008415095508098602,-0.0010577174834907055
1761341847739526100,0.659526123046875,-0.0014969711191952229,-0.002131544053554535,0.0033996151760220528
1761341847749592000,0.669592041015625,0.000936578493565321,0.002127544954419136,-0.0007218462415039539
1761341847759658000,0.679657958984375,0.0007365751080214977,-0.002721537835896015,-0.00010372651740908623
1761341847769724200,0.68972412109375,0.000957974698394537,-0.0016540000215172768,0.0012721139937639236
1761341847779790800,0.699790771484375,-0.00004337402060627937,-0.00021802354604005814,0.0021845130249857903
1761341847789856800,0.709856689453125,-0.00041080964729189873,-0.0015136394649744034,-0.0007309336215257645
1761341847799922700,0.719922607421875,0.0005756248719990253,0.001232345588505268,-0.00023878179490566254
1761341847809989600,0.72998974609375,-0.00048007117584347725,0.00006322935223579407,0.0022616395726799965
1761341847820055800,0.740055908203125,-0.0005727494135499001,-0.0003812527284026146,0.00034469645470380783
1761341847830121700,0.750121826171875,-0.00039891432970762253,-0.0012648990377783775,0.0013080788776278496
1761341847840188000,0.76018798828125,0.00010895077139139175,0.0016603171825408936,-0.00018222583457827568
1761341847850253800,0.77025390625,-0.000400009099394083,0.001610097475349903,0.0011565973982214928
1761341847860319700,0.78031982421875,0.0013166647404432297,0.0015397900715470314,0.000044461339712142944
1761341847870386000,0.790385986328125,-0.00017561903223395348,-0.0018716426566243172,0.00038836244493722916
1761341847880451600,0.80045166015625,0.0003759213723242283,-0.0005118334665894508,0.00048610009253025055
1761341847890517800,0.810517822265625,0.0006552352569997311,-0.0010043736547231674,-0.00138418423011899
1761341847900584700,0.820584716796875,0.00043392693623900414,-0.0011756150051951408,0.003275814466178417
1761341847910650600,0.830650634765625,-0.00038307812064886093,-0.000828837975859642,-0.0006318185478448868
1761341847920716800,0.840716796875,0.002652126597240567,-0.0025460440665483475,-0.0002890694886445999
1761341847930782700,0.85078271484375,0.0003700433298945427,-0.0007265005260705948,0.0025124112144112587
1761341847940849000,0.860848876953125,-0.0014243945479393005,-0.0009462116286158562,-0.000303083099424839
1761341847950914800,0.870914794921875,0.0018120319582521915,0.0010927561670541763,-0.0017418982461094856
1761341847960981000,0.88098095703125,-0.00015204912051558495,0.0004437435418367386,0.00151141919195652
1761341847971046700,0.891046630859375,-0.001983223482966423,0.0004182197153568268,-0.0015615206211805344
1761341847981113600,0.901113525390625,0.0012455927208065987,0.0013465974479913712,-0.0014917459338903427
1761341847991179800,0.9111796875,0.0005369181744754314,0.0012353844940662384,0.001989833079278469
1761341848001245700,0.92124560546875,-0.0016351565718650818,0.0001988820731639862,-0.0006576152518391609
1761341848011311900,0.931311767578125,-0.0006180331110954285,0.0008514989167451859,0.00178611371666193
1761341848021377800,0.941377685546875,0.0011859922669827938,0.001579873263835907,-0.0010980898514389992
1761341848031443700,0.951443603515625,0.0006582480855286121,0.000940040685236454,-0.0014400440268218517
1761341848041510000,0.961510009765625,0.00003187265247106552,-0.0024203360080718994,0.0014430945739150047
1761341848051575800,0.971575927734375,-0.0009563770145177841,0.0005881721153855324,0.004484429955482483
1761341848061643000,0.98164306640625,-0.0006261449307203293,-0.0008334238082170486,0.00011365022510290146
1761341848071708700,0.991708740234375,0.002336866222321987,-0.0014481022953987122,-0.0014872872270643711
1761341848081774600,1.001774658203125,0.00009368592873215675,0.0003111818805336952,-0.0006537181325256824
1761341848091840800,1.0118408203125,-0.0000581229105591774,0.0001931963488459587,-0.001336383167654276
1761341848101906700,1.02190673828125,0.001192231196910143,-0.0008307890966534615,-0.0016639521345496178
1761341848111972900,1.031972900390625,0.00251778238452971,0.001159563660621643,0.0019621411338448524
1761341848122038800,1.042038818359375,-0.0008172942325472832,-0.0019669877365231514,0.00036131590604782104
1761341848132105000,1.05210498046875,0.00007520336657762527,-0.0007343785837292671,-0.0017391019500792027
1761341848142170600,1.062170654296875,0.00022833514958620071,-0.001354629173874855,-0.0010480117052793503
1761341848152237800,1.07223779296875,0.0012599569745361805,-0.0007829228416085243,-0.0007308055646717548
1761341848162303700,1.0823037109375,-0.00047535868361592293,0.002258674241602421,0.002134755253791809
1761341848172369700,1.09236962890625,0.000562925823032856,-0.002353479154407978,-0.0008965819142758846
1761341848182435800,1.102435791015625,-0.001642704475671053,-0.001162514090538025,0.001059776172041893
1761341848192501800,1.112501708984375,-0.000574442557990551,0.001485062763094902,-0.0018661031499505043
1761341848202568000,1.12256787109375,-0.0011361031793057919,-0.0014566648751497269,-0.0017859418876469135
1761341848212633900,1.1326337890625,-0.0021404302679002285,0.0022411812096834183,-0.0009907158091664314
1761341848222699800,1.14269970703125,0.0015752119943499565,-0.000021706335246562958,-0.0010426472872495651
1761341848232767000,1.15276708984375,-0.0005155391991138458,-0.00011474546045064926,-0.0015485347248613834
1761341848242833000,1.1628330078125,-0.0014162203297019005,-0.0006612259894609451,0.0029546041041612625
1761341848252898800,1.17289892578125,0.0011046291328966618,0.0037531424313783646,0.0018696226179599762
1761341848262964700,1.18296484375,-0.00006955862045288086,-0.0005752928555011749,0.0013404525816440582
1761341848273030700,1.19303076171875,-0.0010700155980885029,0.0010542906820774078,0.0001281173899769783
1761341848283096800,1.203096923828125,-0.0000976957380771637,-0.0013358956202864647,-0.0018263766542077065
1761341848293162800,1.213162841796875,-0.0005892734043300152,-0.00004191603511571884,-0.0007260488346219063
1761341848303229000,1.22322900390625,0.00010687671601772308,0.0002449061721563339,0.0033512506633996964
1761341848313296000,1.2332958984375,0.0008614826947450638,0.0009875530377030373,-0.0016948524862527847
1761341848323361800,1.24336181640625,-0.0029151462949812412,-0.0019315378740429878,-0.0030820928514003754
1761341848333427700,1.253427734375,0.0007798918522894382,0.0010255975648760796,0.0005343137308955193
1761341848343493600,1.26349365234375,-0.0022041797637939453,0.0004229247570037842,0.00010900665074586868
1761341848353559800,1.273559814453125,-0.0000834660604596138,-0.0029765022918581963,0.0016304347664117813
1761341848363625700,1.283625732421875,-0.00030583981424570084,0.001531696878373623,-0.0012303325347602367
1761341848373692000,1.29369189453125,0.002405034378170967,0.0003633582964539528,-0.0015988750383257866
1761341848383757800,1.3037578125,-0.0013007544912397861,0.00047068390995264053,-0.0012033958919346333
1761341848393823700,1.31382373046875,-0.0037040552124381065,0.00031966157257556915,-0.0034266109578311443
1761341848403891000,1.323890869140625,0.0017964374274015427,-0.0013530701398849487,-9.872019290924072e-7
1761341848413956900,1.333956787109375,-0.00134595250710845,-0.00006171688437461853,-0.00046733347699046135
1761341848424022800,1.344022705078125,-0.0014679250307381153,-0.0026790713891386986,-0.000589040108025074
1761341848434088700,1.354088623046875,0.0002406025305390358,-0.002447182312607765,0.00179219339042902
1761341848444154600,1.364154541015625,0.0004331492818892002,0.0011126650497317314,0.0016830042004585266
1761341848454220800,1.374220703125,-0.0022907708771526814,-0.0014922218397259712,-0.00392319867387414
1761341848464286700,1.38428662109375,0.0018757442012429237,0.00002151820808649063,-0.001730884425342083
1761341848474353000,1.394352783203125,-0.0006478661671280861,0.0006572473794221878,-0.001670711673796177
1761341848484419800,1.404419921875,0.0007630768232047558,-0.002294333651661873,-0.0007766885682940483
1761341848494485800,1.41448583984375,-0.0014176457189023495,-0.0000775335356593132,-0.0007460853084921837
1761341848504552000,1.424552001953125,0.001154701691120863,0.0011483188718557358,0.001257411204278469
1761341848514617600,1.43461767578125,0.0014535109512507915,-0.0014018183574080467,-0.0015848022885620594
1761341848524683800,1.444683837890625,0.0002654748968780041,0.0008938265964388847,0.002259736880660057
1761341848534749700,1.454749755859375,-0.0013705170713365078,0.00023429561406373978,-0.00037290388718247414
1761341848544815900,1.46481591796875,-0.0014032740145921707,-0.0003247018903493881,0.0007797125726938248
1761341848554881800,1.4748818359375,-0.0002584485337138176,0.0010236604139208794,-0.002496823202818632
1761341848564948700,1.48494873046875,0.0005602072924375534,-0.00008208397775888443,-0.0015298291109502316
1761341848575015000,1.495014892578125,-0.0012790295295417309,0.0009641367942094803,0.002535865642130375
1761341848585080800,1.505080810546875,-0.0006321477703750134,-0.00047610048204660416,0.0025563715025782585
1761341848595147000,1.51514697265625,0.0014956849627196789,0.0008009988814592361,-0.0018193195573985577
1761341848605212700,1.525212646484375,-0.0002705231308937073,0.001853213645517826,-0.0004768199287354946
1761341848615278800,1.53527880859375,0.002105958294123411,0.000501011498272419,0.0011108322069048882
1761341848625344800,1.5453447265625,-0.00019687693566083908,0.0004165889695286751,-0.00043779658153653145
1761341848635410700,1.55541064453125,0.0016862996853888035,0.001083187758922577,0.00023604463785886765
1761341848645476900,1.565476806640625,-0.00040428154170513153,-0.000872638076543808,-0.00171978073194623
1761341848655543800,1.575543701171875,0.0016061477363109589,-0.0007040007039904594,-0.0010850466787815094
1761341848665609700,1.585609619140625,0.0023547622840851545,-0.001013193279504776,-0.001422735396772623
1761341848675676000,1.595676025390625,0.0015291711315512657,0.002209773287177086,-0.004405605141073465
1761341848685741800,1.605741943359375,-0.0026844823732972145,0.001556234434247017,-0.0023413891904056072
1761341848695807700,1.615807861328125,-0.00033347588032484055,0.0002812696620821953,-0.0023128120228648186
1761341848705873700,1.625873779296875,-0.0002913977950811386,-0.0019890759140253067,-0.0016691256314516068
1761341848715939800,1.63593994140625,-0.0002865721471607685,0.0024680225178599358,-0.004025897942483425
1761341848726005800,1.646005859375,-0.002048785798251629,0.0008347062394022942,-0.0020519630052149296
1761341848736072000,1.656072021484375,0.0011044139973819256,0.0001841699704527855,-0.0022283275611698627
1761341848746139000,1.666138916015625,-0.0006705829873681068,0.000818534754216671,0.00012777093797922134
1761341848756204800,1.676204833984375,-0.0010795537382364273,-0.0017568329349160194,0.0009556272998452187
1761341848766271000,1.68627099609375,-0.0012595835141837597,-0.0010092835873365402,0.0005814526230096817
1761341848776336600,1.696336669921875,-0.00047418056055903435,0.00023747887462377548,-0.002519190777093172
1761341848786402600,1.706402587890625,0.001113596372306347,-0.0022898614406585693,-0.0008214255794882774
1761341848796468500,1.716468505859375,0.0010752249509096146,0.0012279460206627846,-0.0014981641434133053
1761341848806534700,1.72653466796875,0.00000836281105875969,-0.0012139063328504562,0.0006302343681454659
1761341848816600600,1.7366005859375,0.0010369336232542992,0.0006855586543679237,-0.0006931251846253872
1761341848826667500,1.74666748046875,0.0025956816971302032,0.0012197885662317276,0.00010129623115062714
1761341848836733700,1.756733642578125,0.0013657789677381516,-0.0011667944490909576,0.0005584610626101494
1761341848846799600,1.766799560546875,0.0013101189397275448,-0.00011830776929855347,-0.0016975030303001404
1761341848856865500,1.776865478515625,-0.0006946190260350704,0.0010304879397153854,-0.002702247817069292
1761341848866931700,1.786931640625,0.0009594704024493694,-0.0016095032915472984,0.0007350938394665718
1761341848876997400,1.796997314453125,0.0011403034441173077,-0.0007957089692354202,0.000932672992348671
1761341848887063600,1.8070634765625,-0.000006187707185745239,-0.0010740086436271667,-0.00024843867868185043
1761341848897129500,1.81712939453125,0.0011008153669536114,-0.0011496897786855698,0.000057610683143138885
1761341848907195600,1.827195556640625,0.0017383764497935772,-0.00036831852048635483,-0.001535492017865181
1761341848917262600,1.8372626953125,0.00044455984607338905,-0.0011988300830125809,0.0004896838217973709
1761341848927328500,1.84732861328125,0.00126161752268672,0.0003599179908633232,-0.0014805225655436516
1761341848937394700,1.857394775390625,-0.0006141681224107742,0.0019301138818264008,0.0008257431909441948
1761341848947460600,1.867460693359375,0.0013696206733584404,-0.0003277137875556946,-0.00034977588802576065
1761341848957526800,1.87752685546875,-0.0009626913815736771,0.00014922581613063812,0.0006265854462981224
1761341848967592400,1.887592529296875,0.001119634136557579,-0.00045025162398815155,-0.000764383003115654
1761341848977658600,1.89765869140625,0.0013129082508385181,0.0007324954494833946,0.000890880823135376
1761341848987724500,1.907724609375,0.001342735718935728,0.0015940284356474876,-0.0003320425748825073
1761341848997791500,1.91779150390625,-0.0012498055584728718,-0.0007550269365310669,-0.0002757525071501732
1761341849007857700,1.927857666015625,-0.0011834925971925259,0.0012921448796987534,-0.00017588399350643158
1761341849017923600,1.937923583984375,-0.001450293231755495,0.00034398771822452545,0.002080644480884075
1761341849027989500,1.947989501953125,0.001434975303709507,-0.00011727213859558105,0.002886250615119934
1761341849038055700,1.9580556640625,-0.0013313894160091877,0.000673934817314148,-0.0018012160435318947
1761341849048121600,1.96812158203125,0.0008241729810833931,-0.0002765478566288948,0.0012827245518565178
1761341849058187500,1.9781875,-0.001333874650299549,-0.0021813269704580307,0.001028616912662983
1761341849068253400,1.98825341796875,-0.0005642212927341461,-0.00007130485028028488,0.0019567282870411873
1761341849078319600,1.998319580078125,0.0012161089107394218,-0.0005375053733587265,-0.00037342822179198265
1761341849088386600,2.008386474609375,-0.0001692674122750759,-0.0004581436514854431,-0.0006410758942365646
1761341849098452500,2.018452392578125,-0.002199257258325815,0.0004612728953361511,-0.0025988328270614147
1761341849108518700,2.0285185546875,0.0027486300095915794,0.0001036105677485466,0.0029799574986100197
1761341849118584600,2.03858447265625,-0.0018172906711697578,0.0022664954885840416,0.00021528545767068863
1761341849128650800,2.048650634765625,0.00006369967013597488,-0.0019588759168982506,-0.0005583623424172401
1761341849138716400,2.05871630859375,-0.0009232037700712681,0.0015276707708835602,0.0005216654390096664
1761341849148782600,2.068782470703125,-0.0016856668516993523,-0.00265695434063673,-0.0010775625705718994
1761341849158848500,2.0788486328125,0.002920938655734062,0.00047629326581954956,0.0011799922212958336
1761341849168914400,2.08891455078125,0.00034033553674817085,-0.002055307850241661,0.0001474851742386818
1761341849178981600,2.098981689453125,0.0009365701116621494,0.0007569808512926102,-0.003470753785222769
1761341849189047600,2.109047607421875,0.0012566819787025452,0.0009575169533491135,0.0010475656017661095
1761341849199113700,2.11911376953125,0.0003140880726277828,0.0014838920906186104,-0.00009194156154990196
1761341849209179600,2.1291796875,0.00017800042405724525,0.0026860423386096954,-0.0012759831734001637
1761341849219245600,2.13924560546875,-0.00010231509804725647,0.00004504714161157608,0.0019214879721403122
1761341849229311500,2.1493115234375,-0.0026269922964274883,0.0010077795013785362,-0.0008822879754006863
1761341849239377400,2.15937744140625,0.0002936902455985546,0.0010936707258224487,0.002073710784316063
1761341849249443600,2.169443603515625,0.0003048754297196865,-0.00011354032903909683,-0.002510921098291874
1761341849259509500,2.179509521484375,0.00018805265426635742,-0.0005793897435069084,-0.0005747447721660137
1761341849269576400,2.189576416015625,0.003833653638139367,-0.0009485036134719849,-0.0014346796087920666
1761341849279642600,2.199642578125,-0.0011696829460561275,0.0015917615965008736,0.0008378634229302406
1761341849289708500,2.20970849609375,-0.0015172255225479603,0.0013113310560584068,-0.0038253311067819595
1761341849299774700,2.219774658203125,0.002569232601672411,-0.0009869756177067757,-0.0009888764470815659
1761341849309840600,2.229840576171875,0.001540453638881445,0.00003434624522924423,0.0007530967704951763
1761341849319906600,2.239906494140625,0.0008612275123596191,0.001835498958826065,-0.00028350064530968666
1761341849329972500,2.249972412109375,-0.001756926067173481,0.00041576847434043884,0.00041717756539583206
1761341849340038700,2.26003857421875,0.0006605363450944424,-0.000053802505135536194,-0.001007947139441967
1761341849350105600,2.270105712890625,0.0007196585647761822,0.00047936197370290756,-0.0008332435972988605
1761341849360171500,2.280171630859375,0.0006163096986711025,0.002588227391242981,-0.001436098013073206
1761341849370237700,2.29023779296875,0.0006024613976478577,-0.00019690673798322678,-0.0020571472123265266
1761341849380303600,2.3003037109375,-0.000370862428098917,-0.0008353060111403465,-0.0008745603263378143
1761341849390369500,2.31036962890625,-0.00009043188765645027,0.00021131616085767746,-0.0025230571627616882
1761341849400435700,2.320435791015625,0.0010473602451384068,0.0017190398648381233,-0.0009755720384418964
1761341849410501400,2.33050146484375,-0.0005052625201642513,-0.002157723531126976,-0.0022536232136189938
1761341849420567600,2.340567626953125,0.0018723784014582634,-0.0011941595003008842,0.0004937341436743736
1761341849430633500,2.350633544921875,-0.002521304879337549,0.0002612583339214325,0.0015933532267808914
1761341849440700400,2.360700439453125,-0.0003011031076312065,0.0018101288005709648,0.0011212332174181938
1761341849450766600,2.3707666015625,-0.0008012447506189346,0.001776306889951229,0.001543077640235424
1761341849460832500,2.38083251953125,0.001440858468413353,0.0006941007450222969,0.0009551821276545525
1761341849470898700,2.390898681640625,-0.002031104639172554,0.0006232615560293198,-0.003881117794662714
1761341849480964600,2.400964599609375,-0.0014972272329032421,0.0011887596920132637,-0.0036167516373097897
1761341849491030800,2.41103076171875,0.0008841715753078461,-0.0006677303463220596,0.000439508818089962
1761341849501096400,2.421096435546875,0.00021126726642251015,-0.0007891785353422165,-0.0005411012098193169
1761341849511162600,2.43116259765625,0.00003896094858646393,-0.0006166063249111176,0.0008629169315099716
1761341849521228500,2.441228515625,-0.003003519494086504,-0.0012617874890565872,0.002788514830172062
1761341849531295500,2.45129541015625,0.00025832047685980797,-0.0012463415041565895,0.00048754364252090454
1761341849541361700,2.461361572265625,-0.0020845583640038967,0.0002766316756606102,-0.001458887942135334
1761341849551427600,2.471427490234375,0.0015687658451497555,0.000472106970846653,-0.001452762633562088
1761341849561493800,2.48149365234375,-0.0020475154742598534,0.0003435378894209862,0.00285229180008173
1761341849571559700,2.4915595703125,0.001977319363504648,0.0021129418164491653,0.0003119027242064476
1761341849581625300,2.501625244140625,-0.0012983065098524094,-0.002207810990512371,0.0014965017326176167
1761341849591691500,2.51169140625,0.00021996162831783295,-0.0002043154090642929,0.0011865091510117054
1761341849601757400,2.52175732421875,-0.0014881794340908527,-0.0006481846794486046,-0.001061625313013792
1761341849611824600,2.53182470703125,0.0007584630511701107,-0.002390158362686634,-0.002030749339610338
1761341849621890600,2.541890625,-0.0012654764577746391,-0.0006200699135661125,-0.00039043650031089783
1761341849631956500,2.55195654296875,-0.000786107499152422,-0.0010222075507044792,-0.0025973981246352196
1761341849642022700,2.562022705078125,0.0000034831464290618896,-0.0007118992507457733,0.002663849387317896
1761341849652088600,2.572088623046875,-0.0014932132326066494,0.0010684235021471977,-0.0017841621302068233
1761341849662154800,2.58215478515625,0.000015955418348312378,0.0007372954860329628,0.0042685046792030334
1761341849672220400,2.592220458984375,0.0009781555272638798,0.0005005411803722382,-0.0029414710588753223
1761341849682286600,2.60228662109375,-0.0010368414223194122,0.002176341600716114,0.0018580951727926731
1761341849692352500,2.6123525390625,0.0008774390444159508,0.00020533520728349686,-0.0001834845170378685
1761341849702419500,2.62241943359375,0.0009532198309898376,0.0015123197808861732,-0.0007211789488792419
1761341849712485600,2.632485595703125,-0.0007924819365143776,0.0008878083899617195,-0.0016966951079666615
1761341849722551600,2.642551513671875,0.001093067228794098,0.0011719558387994766,0.0010764682665467262
1761341849732617700,2.65261767578125,0.00025044288486242294,0.0008640950545668602,-0.0027675386518239975
1761341849742683600,2.66268359375,0.00011800369247794151,0.0004910873249173164,0.0004362836480140686
1761341849752749600,2.67274951171875,-0.00037121865898370743,0.00012490339577198029,-0.0009522885084152222
1761341849762815500,2.6828154296875,0.0009385920129716396,0.0003308244049549103,-0.0018012076616287231
1761341849772881200,2.692881103515625,0.0011314046569168568,-0.0011110110208392143,-0.0004661646671593189
1761341849782947000,2.702947021484375,-0.0013081692159175873,0.00037538353353738785,0.0005113855004310608
1761341849793014000,2.713013916015625,0.00009052269160747528,0.001232655718922615,-0.001126458402723074
1761341849803080200,2.723080078125,-0.00010339589789509773,-0.0022616805508732796,0.0010733595117926598
1761341849813146000,2.73314599609375,-0.0011689267121255398,0.0017714109271764755,0.0010472601279616356
1761341849823212000,2.7432119140625,-0.0018629543483257294,0.00011650659143924713,0.0013556932099163532
1761341849833278000,2.75327783203125,-0.000931380782276392,-0.00007071439176797867,0.0001418241299688816
1761341849843344000,2.76334375,0.0014913138002157211,0.0021643098443746567,0.001994867343455553
1761341849853410000,2.77341015625,-0.000332685187458992,0.0012614987790584564,0.0018944661132991314
1761341849863476000,2.78347607421875,-0.0013787304051220417,0.0009924201294779778,0.0008687861263751984
1761341849873543000,2.79354296875,-0.001500969287008047,0.0006254371255636215,-0.00008649006485939026
1761341849883609000,2.803609130859375,-0.00006605684757232666,0.001750878058373928,0.0011347094550728798
1761341849893675000,2.813675048828125,-0.0015536989085376263,-0.0011080261319875717,0.002483334392309189
1761341849903741200,2.8237412109375,0.0008643688634037971,0.0007368894293904305,-0.0012536905705928802
1761341849913807000,2.83380712890625,-0.0017079785466194153,-0.0006000176072120667,0.0011655250564217567
1761341849923873000,2.843873046875,0.0007042568176984787,-0.002197330817580223,-0.0006091776303946972
1761341849933939000,2.85393896484375,-0.0013642199337482452,0.000015223398804664612,0.002717109862715006
1761341849944005000,2.864005126953125,-0.0007872367277741432,0.0006716568022966385,-0.0001498619094491005
1761341849954071000,2.874071044921875,0.0021702037192881107,0.0003233160823583603,0.00020353961735963821
1761341849964138000,2.884137939453125,-0.001006297767162323,-0.000014123506844043732,-0.0012590587139129639
1761341849974204200,2.8942041015625,0.0017032027244567871,-0.0006791148334741592,0.002249655779451132
1761341849984270000,2.90427001953125,0.000040253158658742905,-0.0001979796215891838,-0.00003001093864440918
1761341849994336300,2.914336181640625,-0.0001075519248843193,-0.0019527366384863853,-0.0020747859962284565
1761341850004402000,2.92440185546875,-0.0013662180863320827,-0.001322316937148571,0.0007202280685305595
1761341850014467800,2.9344677734375,0.000855923630297184,0.0002276422455906868,-0.0035546785220503807
1761341850024534000,2.944533935546875,-0.0014736223965883255,-0.0002756379544734955,0.00009828759357333183
1761341850034600000,2.954599853515625,0.00022094696760177612,0.00023675430566072464,-0.0024727280251681805
1761341850044666000,2.964666015625,0.001631423830986023,0.001874089241027832,-0.0007101250812411308
1761341850054733000,2.974733154296875,0.001968313939869404,-0.0018250411376357079,-0.0007050647400319576
1761341850064799000,2.984799072265625,0.00009998492896556854,-0.0010355552658438683,0.0004883543588221073
1761341850074865200,2.994865234375,-0.000574860256165266,-0.003423611633479595,-0.0001675826497375965
1761341850084931000,3.00493115234375,0.000754091888666153,-0.001161462627351284,-0.0010003265924751759
1761341850094997000,3.0149970703125,-0.00037508830428123474,-0.0001989956945180893,-0.0007318798452615738
1761341850105063000,3.02506298828125,0.0007041976787149906,-0.0022565051913261414,0.0019185980781912804
1761341850115129000,3.035129150390625,-0.0015794630162417889,0.0028351927176117897,-0.0037225098349153996
1761341850125195000,3.045195068359375,0.0025095681194216013,-0.0026426035910844803,-0.0004771011881530285
1761341850135262000,3.055261962890625,0.001365740317851305,-0.000361073762178421,-0.0017807185649871826
1761341850145328000,3.065328125,0.00023853452876210213,0.0013908101245760918,-0.0005837571807205677
1761341850155394000,3.07539404296875,0.0007445351220667362,0.0014446061104536057,-0.0005755014717578888
1761341850165460200,3.085460205078125,0.0004789545200765133,0.001538146287202835,0.0004912777803838253
1761341850175526100,3.095526123046875,0.0013298345729708672,-0.003372722305357456,0.0004710382781922817
1761341850185592000,3.105592041015625,-0.000948756467550993,0.00010962970554828644,-0.0011685541830956936
1761341850195658000,3.115657958984375,-0.0002922872081398964,-0.00023524928838014603,-0.0003317887894809246
1761341850205724000,3.125723876953125,-0.002916314173489809,0.00021136831492185593,0.0010280697606503963
1761341850215790000,3.1357900390625,-0.00028990488499403,0.0019416240975260735,0.0015833391807973385
1761341850225857000,3.14585693359375,-0.0007685800082981586,0.0008993381634354591,-0.0010647177696228027
1761341850235923000,3.1559228515625,0.0007864395156502724,-0.000039159320294857025,0.0022136340849101543
1761341850245989000,3.165989013671875,-0.0005800258368253708,0.00021800678223371506,-0.0021105771884322166
1761341850256055000,3.176054931640625,-0.00359925115481019,0.0011418573558330536,0.001217841636389494
1761341850266121200,3.186121337890625,0.001897255890071392,-0.00016766786575317383,-0.0037908689118921757
1761341850276187000,3.196186767578125,-0.00017015589401125908,-0.0015117647126317024,0.0042409589514136314
1761341850286253000,3.206253173828125,0.0020444467663764954,-0.0017343256622552872,0.0014186892658472061
1761341850296319000,3.216319091796875,0.00009740935638546944,0.00004652980715036392,-0.00043007684871554375
1761341850306385200,3.22638525390625,0.0013854997232556343,0.0007015606388449669,-0.0009701661765575409
1761341850316452000,3.2364521484375,-0.00009734835475683212,0.0025609787553548813,-0.0017696470022201538
1761341850326518000,3.24651806640625,0.0009212600998580456,0.0005638115108013153,-0.0002666860818862915
1761341850336584200,3.256584228515625,-0.000006052665412425995,-0.0015289001166820526,-0.001135941594839096
1761341850346650000,3.266650146484375,-0.0004613730125129223,0.0017134835943579674,-0.00045831361785531044
1761341850356716000,3.276716064453125,0.0012409193441271782,-0.0018186671659350395,-0.0004314160905778408
1761341850366782000,3.286781982421875,0.0012566172517836094,-0.0010226750746369362,0.0005761934444308281
1761341850376848000,3.296847900390625,-0.00370378652587533,0.002585907466709614,-0.000665638130158186
1761341850386914000,3.3069140625,-0.0004922184161841869,0.0014262804761528969,-0.000951940193772316
1761341850396980000,3.31697998046875,0.000922719482332468,0.002375963144004345,-0.001954087521880865
1761341850407047000,3.327046875,0.0001427559182047844,-0.0008852947503328323,-0.00017940299585461617
1761341850417113000,3.337113037109375,-0.0010359594598412514,-0.00016011670231819153,0.00036654481664299965
1761341850427179000,3.347178955078125,-0.0006836503744125366,0.00012636464089155197,0.0001717940904200077
1761341850437245200,3.3572451171875,-0.0021254858002066612,-0.0007511470466852188,-0.0017472798936069012
1761341850447310800,3.367310791015625,0.0013781082816421986,0.0011671818792819977,-0.0003280113451182842
1761341850457377000,3.377376953125,-0.00026239873841404915,-0.0012882519513368607,0.00012312782928347588
1761341850467443000,3.38744287109375,0.0012698806822299957,-0.000683145597577095,-0.00329422764480114
1761341850477509000,3.397509033203125,-0.0003309454768896103,-0.00018912926316261292,-0.00212163757532835
1761341850487575000,3.407574951171875,0.00005464954301714897,0.00004505738615989685,0.0002523120492696762
1761341850497642000,3.41764208984375,0.0008999370038509369,0.0008858172222971916,-0.0022649080492556095
1761341850507708200,3.427708251953125,-0.00037647970020771027,-0.0002471497282385826,-0.0007582977414131165
1761341850517774000,3.437774169921875,0.002007049508392811,0.0006181113421916962,0.002612731885164976
1761341850527840300,3.44784033203125,-0.00038885558024048805,-0.0019817082211375237,0.00037532486021518707
1761341850537906000,3.457906005859375,-0.001216033473610878,0.000537908636033535,-0.0007277564145624638
1761341850547971800,3.467971923828125,-0.0023403670638799667,0.0018443558365106583,-0.0009811939671635628
1761341850558038000,3.4780380859375,-0.0015384894795715809,0.0011426126584410667,-0.00016413629055023193
1761341850568104000,3.48810400390625,-0.000599774532020092,-0.002232055179774761,0.0013563772663474083
1761341850578171100,3.498171142578125,-0.002244809176772833,-0.0008378904312849045,-0.00042367959395051
1761341850588237000,3.508237060546875,0.0002278401516377926,-0.0021573593840003014,-0.0003687269054353237
1761341850598303000,3.518302978515625,0.0011729961261153221,-0.000729905441403389,-0.0002781795337796211
1761341850608369200,3.528369140625,-0.0015550130046904087,0.0004731714725494385,-0.002762456424534321
1761341850618435000,3.53843505859375,-0.0022580879740417004,0.0015695951879024506,0.0011097798123955727
1761341850628501000,3.5485009765625,-0.0002558482810854912,0.000715409405529499,0.0014924649149179459
1761341850638567000,3.55856689453125,-0.0006840843707323074,0.0003593442961573601,0.001065026968717575
1761341850648633000,3.568633056640625,0.0001418660394847393,0.0006908737123012543,-0.0010789372026920319
1761341850658699000,3.578698974609375,0.00041324226185679436,0.0005601122975349426,0.00006835255771875381
1761341850668766000,3.588765869140625,-0.0023904270492494106,-0.0004423772916197777,0.000281735323369503
1761341850678832000,3.59883203125,0.0018538529984652996,0.001752067357301712,-0.0004373183473944664
1761341850688898000,3.60889794921875,-0.0014322730712592602,0.00047064851969480515,-0.0012331297621130943
1761341850698964200,3.618964111328125,0.0002894606441259384,0.0001555969938635826,0.0009900773875415325
1761341850709030100,3.629030029296875,-0.0008110636845231056,-0.00019271112978458405,0.00260053388774395
1761341850719096000,3.639095947265625,-0.00003981264308094978,0.00021182280033826828,-0.0016187122091650963
1761341850729162000,3.649161865234375,-0.0011446177959442139,-0.00012473762035369873,0.002454847563058138
1761341850739228000,3.659227783203125,0.0010759257711470127,0.0010449225082993507,-0.0011595948599278927
1761341850749294000,3.669294189453125,-0.001121995970606804,-0.0009922748431563377,-0.001084142830222845
1761341850759361000,3.679361083984375,0.0015241210348904133,0.00055715162307024,-0.0011102422140538692
1761341850769427000,3.689427001953125,0.003454280784353614,-0.00015129521489143372,0.0006167651154100895
1761341850779493600,3.69949365234375,-0.0008605727925896645,0.00015869736671447754,0.00031103426590561867
1761341850789559600,3.7095595703125,-0.0024812775664031506,-0.0016324222087860107,0.0025493139401078224
1761341850799625700,3.719625732421875,-0.0009387745521962643,-0.00017008092254400253,0.0010701939463615417
1761341850809691400,3.72969140625,0.0012711300514638424,0.0018988819792866707,-0.001283856574445963
1761341850819757600,3.739757568359375,0.001128384843468666,0.00018966477364301682,-0.00045401556417346
1761341850829823500,3.749823486328125,-0.0012515615671873093,0.0014361189678311348,0.0014326712116599083
1761341850839889400,3.759889404296875,-0.0016275998204946518,-0.0016989540308713913,0.0019040508195757866
1761341850849956600,3.76995654296875,-0.00013908464461565018,0.00016918499022722244,0.002440524287521839
1761341850860022500,3.7800224609375,0.00044175051152706146,-0.000562385655939579,0.0007118657231330872
1761341850870088700,3.790088623046875,0.0033506264444440603,0.0004682820290327072,0.0007867678068578243
1761341850880154600,3.800154541015625,-0.00031015463173389435,0.0004701465368270874,-0.001850827131420374
1761341850890220500,3.810220458984375,-0.0014126962050795555,0.002822715789079666,0.002633878029882908
1761341850900286500,3.820286376953125,0.00002461206167936325,0.0007433192804455757,-0.0010340940207242966
1761341850910352400,3.830352294921875,0.0014334502629935741,0.003657851368188858,-0.0035662222653627396
1761341850920418600,3.84041845703125,-0.002037980128079653,0.0005017397925257683,0.00019442755728960037
1761341850930484500,3.850484375,-0.0018484625034034252,-0.0011134417727589607,0.00044618919491767883
1761341850940551400,3.860551513671875,0.0006613004952669144,0.0012863324955105782,0.0018062656745314598
1761341850950617600,3.87061767578125,0.0011575310491025448,0.0017802519723773003,-0.002250511199235916
1761341850960683500,3.88068359375,-0.0007764566689729691,-0.0009761201217770576,-0.0016547623090445995
1761341850970749700,3.890749755859375,-0.001647256314754486,-0.001519528217613697,-0.0035930206067860126
1761341850980815600,3.900815673828125,0.00145692378282547,-0.0000638449564576149,-0.0006795222871005535
1761341850990881500,3.910881591796875,-0.0000983518548309803,-0.00021711550652980804,-0.0021044956520199776
1761341851000947500,3.920947509765625,-0.00004934985190629959,-0.0009968895465135574,-0.000669051893055439
1761341851011013600,3.931013671875,-0.0013351868838071823,-0.00045804865658283234,-0.0010854336433112621
1761341851021079600,3.94107958984375,-0.00040787411853671074,2.812594175338745e-7,-0.0015256539918482304
1761341851031146500,3.951146484375,-0.0014513451606035233,-0.00009568780660629272,0.0007033506408333778
1761341851041212700,3.961212646484375,-0.0001463964581489563,-0.002285870723426342,0.00016778893768787384
1761341851051278600,3.971278564453125,0.00047937408089637756,0.00262497179210186,-0.0015516411513090134
1761341851061344500,3.981344482421875,0.00033369939774274826,0.0011320030316710472,-0.00007039075717329979
1761341851071410400,3.991410400390625,0.0023766341619193554,-0.0005532605573534966,0.0006722430698573589
1761341851081476400,4.001476318359375,-0.00007347390055656433,0.00004914682358503342,-0.0027243527583777905
1761341851091542500,4.01154248046875,-0.0015150224789977074,-0.001212000846862793,-0.00084290886297822
1761341851101608400,4.0216083984375,0.0008059223182499409,-0.00022822897881269455,-0.00007751630619168282
1761341851111674600,4.031674560546875,-0.00018688291311264038,0.00016351044178009033,0.00038483133539557457
1761341851121740500,4.041740478515625,0.001241370104253292,-0.0002748463302850723,0.0009012180380523205
1761341851131806700,4.051806640625,0.0001305663026869297,-0.0011382950469851494,-0.0005542570725083351
1761341851141872600,4.06187255859375,-0.0005847588181495667,-0.00023814663290977478,0.0034820297732949257
1761341851151938600,4.0719384765625,-0.000613474752753973,0.0008996231481432915,-0.0013140435330569744
1761341851162005500,4.082005615234375,-0.0009815236553549767,0.0017726076766848564,-0.0005912617780268192
1761341851172071400,4.092071533203125,0.00030444422736763954,0.0000439593568444252,0.0004777219146490097
1761341851182137600,4.1021376953125,0.001017638947814703,-0.0007259603589773178,0.0009293947368860245
1761341851192203500,4.11220361328125,-0.0006589354015886784,0.001551770605146885,0.001386912539601326
1761341851202269400,4.12226953125,0.0013725236058235168,-0.0029689455404877663,0.00020553357899188995
1761341851212335600,4.132335693359375,-0.0003925706259906292,-0.0003432994708418846,-0.0014127567410469055
1761341851222401500,4.142401611328125,0.0012830905616283417,0.00037841685116291046,-0.00044602900743484497
1761341851232467700,4.1524677734375,-0.001224045641720295,-0.0001744953915476799,0.00013725552707910538
1761341851242533400,4.162533447265625,-0.00011031189933419228,-0.0011276407167315483,0.0005790740251541138
1761341851252600300,4.172600341796875,-0.0012403661385178566,-0.0004281243309378624,0.0002674688585102558
1761341851262666500,4.18266650390625,-0.00004753610119223595,0.0015790993347764015,-0.0018289713189005852
1761341851272732400,4.192732421875,0.001888871192932129,-0.00157161895185709,0.0010476326569914818
1761341851282798600,4.202798583984375,0.0007149497978389263,-0.0007902476936578751,-0.001484767533838749
1761341851292864500,4.212864501953125,-0.0003714580088853836,-0.0006712628528475761,0.0020487476140260696
1761341851302930700,4.2229306640625,-0.0012742695398628712,0.0005596503615379333,-0.000494837760925293
1761341851312996600,4.23299658203125,-0.0026572654023766518,-0.0006804754957556725,-0.00028435373678803444
1761341851323062500,4.2430625,0.0009872708469629288,0.0005243392661213875,0.0009742565453052521
1761341851333128400,4.25312841796875,-0.0016932138241827488,-0.001978762447834015,0.0022049210965633392
1761341851343195400,4.2631953125,0.0009196135215461254,-0.0006490461528301239,-0.0011549233458936214
1761341851353261600,4.273261474609375,-0.0009853891097009182,0.0017362497746944427,-0.0009346045553684235
1761341851363327500,4.283327392578125,-0.00007458822801709175,-0.0005897553637623787,0.0016087144613265991
1761341851373393400,4.293393310546875,-0.00014115963131189346,0.0013392791152000427,-0.0032126596197485924
1761341851383459600,4.30345947265625,-0.0010229325853288174,-0.0001129424199461937,0.0015069949440658092
1761341851393525500,4.313525390625,-0.00098733464255929,0.0006438018754124641,0.0012344946153461933
1761341851403591700,4.323591796875,-0.0015953341498970985,0.00030158553272485733,0.000025685876607894897
1761341851413657300,4.3336572265625,0.0014653396792709827,-0.00038801226764917374,0.0032560592517256737
1761341851423724500,4.343724609375,-0.001790640875697136,-0.001112125813961029,0.0006512217223644257
1761341851433790500,4.35379052734375,0.0024302254896610975,-0.0011308500543236732,-0.0008017239160835743
1761341851443856400,4.3638564453125,-0.0011927387677133083,0.0011581368744373322,0.0011615580879151821
1761341851453922600,4.373922607421875,-0.001377093605697155,0.00005988776683807373,0.00024581747129559517
1761341851463988500,4.383988525390625,0.00043385615572333336,0.0002010352909564972,0.0008354415185749531
1761341851474054700,4.3940546875,0.0008749612607061863,0.0005787592381238937,0.0003577047027647495
1761341851484120600,4.40412060546875,-0.0014089657925069332,-0.0013040956109762192,0.0005182926543056965
1761341851494186800,4.414186767578125,0.0023218882270157337,0.0014587100595235825,-0.00014687469229102135
1761341851504253700,4.424253662109375,-0.0020949640311300755,-0.000407366082072258,-0.0004028044641017914
1761341851514319400,4.4343193359375,-0.0022408124059438705,-0.002295713871717453,-0.00027578510344028473
1761341851524385500,4.444385498046875,0.00029744626954197884,0.00018635205924510956,0.0025959019549191
1761341851534451500,4.454451416015625,-0.0005743596702814102,-0.0006675859913229942,0.0035123229026794434
1761341851544517600,4.464517578125,-0.0017392262816429138,-0.0015727942809462547,-0.0023849811404943466
1761341851554583600,4.47458349609375,0.0007059932686388493,0.0011961683630943298,-0.0007193400524556637
1761341851564650500,4.484650390625,-0.0010093487799167633,-0.0021655401214957237,-0.001651179976761341
1761341851574716700,4.494716552734375,0.00038659991696476936,0.00022691115736961365,-0.0016264049336314201
1761341851584782600,4.504782470703125,0.0017637205310165882,0.0016093580052256584,-0.00008257059380412102
1761341851594848500,4.5148486328125,-0.00135020911693573,0.00047513097524642944,0.0011125477030873299
1761341851604914400,4.52491455078125,-0.0026407772675156593,-0.00022767670452594757,-0.000325825996696949
1761341851614980400,4.53498046875,-0.0013390653766691685,-0.004463190212845802,0.0024323537945747375
1761341851625046500,4.545046630859375,0.000648984219878912,0.000006126239895820618,-0.0010670400224626064
1761341851635112400,4.555112548828125,0.000542190857231617,0.0002745073288679123,0.0005907928571105003
1761341851645179400,4.565179443359375,-0.0005723419599235058,-0.0007942188531160355,0.00035590212792158127
1761341851655245600,4.57524560546875,0.0003355923108756542,-0.0008934773504734039,0.0005644382908940315
1761341851665311500,4.5853115234375,0.001961984671652317,-0.0019752532243728638,0.0016962820664048195
1761341851675377700,4.595377685546875,0.0009378055110573769,-0.0018943417817354202,0.0016238582320511341
1761341851685443600,4.605443603515625,0.0002664225175976753,-0.0006391936913132668,-0.001264872495085001
1761341851695509500,4.615509521484375,-0.0008262805640697479,0.0014743627980351448,-0.00031022215262055397
1761341851705575400,4.625575439453125,0.0016957330517470837,0.002630440518260002,-0.0014109066687524319
1761341851715641600,4.6356416015625,-0.0011726990342140198,0.0016792593523859978,0.00033727893605828285
1761341851725707500,4.64570751953125,-0.001707462128251791,0.0011711278930306435,0.0012134588323533535
1761341851735774500,4.6557744140625,-0.0006618136540055275,0.00046425405889749527,-0.002550964243710041
1761341851745840600,4.665840576171875,0.0006391406059265137,0.0006549358367919922,0.0021583037450909615
1761341851755906600,4.675906494140625,-0.00025448016822338104,-0.000202263705432415,0.001387015450745821
1761341851765972700,4.68597265625,-0.001364219468086958,-0.0010406272485852242,0.0019856938160955906
1761341851776038700,4.69603857421875,-0.0017221998423337936,0.0013676043599843979,-0.0011585261672735214
1761341851786104600,4.7061044921875,-0.00010219868272542953,0.002030464820563793,-0.00026903022080659866
1761341851796170800,4.716170654296875,-0.0015239794738590717,0.00008606072515249252,0.0002308017574250698
1761341851806236700,4.726236572265625,0.001215614378452301,0.0004562400281429291,-0.00036361534148454666
1761341851816302800,4.736302734375,-0.00023870263248682022,-0.002948193810880184,-0.0027658483013510704
1761341851826369800,4.746369873046875,-0.0002709268592298031,-0.0007161982357501984,-0.002079551573842764
1761341851836435700,4.756435791015625,0.0008884994313120842,-0.0012684296816587448,0.0013302485458552837
1761341851846501600,4.766501708984375,-0.000009784940630197525,-0.00006707757711410522,-0.001498295459896326
1761341851856567600,4.776567626953125,-0.00019093556329607964,0.0019071875140070915,0.0008386969566345215
1761341851866633700,4.7866337890625,0.000002143438905477524,-0.0004979129880666733,-0.00022789929062128067
1761341851876699600,4.79669970703125,-0.0009821648709475994,-0.0009011738002300262,-0.001690535806119442
1761341851886765800,4.806765869140625,-0.00017016706988215446,0.0015846211463212967,0.0005864668637514114
1761341851896831700,4.816831787109375,0.00020598061382770538,-0.00020921416580677032,-0.0016829115338623524
1761341851906897700,4.826897705078125,-0.002331745345145464,0.001493876799941063,0.0013392437249422073
1761341851916964900,4.83696484375,-0.0008012577891349792,-0.0020332392305135727,-0.0010587209835648537
1761341851927030800,4.84703076171875,0.0014824029058218002,0.00010581221431493759,-0.0015503405593335629
1761341851937096700,4.8570966796875,0.002181542571634054,0.0005766507238149643,0.002547512762248516
1761341851947162600,4.86716259765625,-0.000659517478197813,-0.0022500287741422653,-0.0023582959547638893
1761341851957228500,4.877228515625,-0.0007610186003148556,0.002248993143439293,0.0003497488796710968
1761341851967294700,4.887294677734375,-0.00012052850797772408,-0.002202213741838932,-0.000555726233869791
1761341851977360600,4.897360595703125,0.00009963475167751312,0.00029425136744976044,-0.0013068662956357002
1761341851987426800,4.9074267578125,0.0009276117198169231,0.0009089093655347824,-0.0015129949897527695
1761341851997492700,4.91749267578125,-0.0019815852865576744,0.0016057584434747696,0.00047478172928094864
1761341852007559700,4.9275595703125,0.00006185844540596008,0.0007934942841529846,0.0022151581943035126
1761341852017625900,4.9376259765625,0.0012936224229633808,-0.0019757719710469246,0.0031094257719814777
1761341852027691500,4.94769140625,0.0006944108754396439,-0.00016988255083560944,-0.000025647226721048355
1761341852037757700,4.9577578125,-0.0012334426864981651,0.0005249232053756714,0.00286305183544755
1761341852047823600,4.96782373046875,0.0004994762130081654,0.002025880850851536,-0.0005109068006277084
1761341852057889800,4.977889892578125,0.00014929799363017082,-0.00028978381305933,-0.0009627188555896282
1761341852067955700,4.987955810546875,-0.0007889335975050926,-0.0003030998632311821,-0.0017755157314240932
1761341852078022000,4.99802197265625,0.00007047224789857864,0.00038603413850069046,-0.0007251668721437454
1761341852088087800,5.008087890625,0.002548011252656579,0.0007482236251235008,0.0017078975215554237
1761341852098154800,5.01815478515625,0.0020862328819930553,-0.0031651416793465614,-0.001916365697979927
1761341852108221000,5.028220947265625,-0.0005236649885773659,-0.0004622992128133774,-0.001937671098858118
1761341852118286600,5.03828662109375,0.00004772748798131943,0.00023456383496522903,-0.0015335427597165108
1761341852128352800,5.048352783203125,-0.0013674763031303883,-0.000584091991186142,0.0003762100823223591
1761341852138418700,5.058418701171875,-0.0015207170508801937,0.0012151291593909264,-0.000646411906927824
1761341852148484600,5.068484619140625,-0.0004493272863328457,0.004051662050187588,0.002038853242993355
1761341852158550800,5.07855078125,0.0005080439150333405,-0.003242185339331627,0.000505001749843359
1761341852168616700,5.08861669921875,-0.0007186080329120159,0.002238066866993904,0.000017643440514802933
1761341852178683600,5.09868359375,0.000515911728143692,0.0006478140130639076,0.0013676183298230171
1761341852188749800,5.108749755859375,-0.0006795814260840416,0.0011093402281403542,-0.001596746500581503
1761341852198815500,5.1188154296875,-0.001309035811573267,-0.00021073967218399048,-0.002128381747752428
1761341852208881700,5.128881591796875,-0.002403595019131899,-0.000654156319797039,-0.000051116105169057846
1761341852218947600,5.138947509765625,0.0002614031545817852,0.0002864282578229904,0.0004653632640838623
1761341852229013800,5.149013671875,0.0018108305521309376,-0.00040492787957191467,0.0002118302509188652
1761341852239079700,5.15907958984375,-0.0001872265711426735,0.00010682549327611923,0.0007431618869304657
1761341852249145900,5.169145751953125,0.000017570331692695618,-0.00036854855716228485,-0.0005671135149896145
1761341852259211800,5.179211669921875,0.0008987453766167164,0.0005442248657345772,0.0013951347209513187
1761341852269278700,5.18927880859375,0.0003360193222761154,0.0006062770262360573,-0.00042939698323607445
1761341852279345000,5.199344970703125,-0.0009454763494431973,-0.0015392852947115898,-0.0015619066543877125
1761341852289410600,5.20941064453125,-0.001027768012136221,0.000811220146715641,-0.0032269153743982315
1761341852299476700,5.219476806640625,0.001911110244691372,0.0011242162436246872,-0.00027174782007932663
1761341852309542700,5.229542724609375,-0.001553662121295929,0.00011780764907598495,0.0000052209943532943726
1761341852319608600,5.239608642578125,0.000985664315521717,-0.00010057445615530014,0.0019312482327222824
1761341852329674800,5.2496748046875,0.0005238722078502178,-0.0009932657703757286,0.0005629155784845352
1761341852339740700,5.25974072265625,-0.001426583155989647,-0.0002977317199110985,0.0006512459367513657
1761341852349806800,5.269806884765625,0.0003494792617857456,0.00011559110134840012,-0.0005205445922911167
1761341852359873800,5.279873779296875,-0.0009810933843255043,0.0013194512575864792,0.0009552687406539917
1761341852369939700,5.289939697265625,-0.0006886781193315983,-0.00012611225247383118,-0.0005898973904550076
1761341852380005600,5.300005615234375,-0.001548317726701498,-0.0019666245207190514,0.0009399116970598698
1761341852390071600,5.310071533203125,0.0007148361764848232,0.00022355932742357254,-0.00009605847299098969
1761341852400137700,5.3201376953125,-0.0011523198336362839,-0.0012581869959831238,0.0009250231087207794
1761341852410203600,5.33020361328125,0.0021412111818790436,-0.00123634934425354,0.0010342132300138474
1761341852420269800,5.340269775390625,0.0006353077478706837,-0.0003268616273999214,-0.002259813714772463
1761341852430335700,5.350335693359375,0.001087778713554144,0.0007069781422615051,-0.00010238680988550186
1761341852440402000,5.36040185546875,0.002751600230112672,-0.0006991084665060043,-0.00016334513202309608
1761341852450467600,5.370467529296875,-0.00014778319746255875,-0.0011523785069584846,0.0009043160825967789
1761341852460534800,5.38053466796875,0.0022941380739212036,0.00033204536885023117,-0.0013294215314090252
1761341852470600700,5.3906005859375,-0.0006065769121050835,-0.000753459520637989,0.004192642401903868
1761341852480666600,5.40066650390625,0.0014509535394608974,0.0009983573108911514,-0.00042935600504279137
1761341852490732500,5.410732666015625,-0.0023001087829470634,0.0022551026195287704,0.0009291227906942368
1761341852500798700,5.420798828125,-0.0014028358273208141,-0.002271050587296486,-0.000731208361685276
1761341852510864600,5.43086474609375,-0.001508031040430069,-0.0012273574247956276,0.0007495088502764702
1761341852520930800,5.440930908203125,-0.0013426821678876877,0.00015140045434236526,-0.000305230263620615
1761341852530996700,5.450996826171875,-0.0012284326367080212,-0.0012448951601982117,-0.0004365243948996067
1761341852541062700,5.461062744140625,-0.0002647740766406059,0.0016393885016441345,0.0009410879574716091
1761341852551129900,5.4711298828125,0.00015573902055621147,0.0015552332624793053,0.00023961113765835762
1761341852561195500,5.481195556640625,0.00006310036405920982,-0.0012065740302205086,0.0010830126702785492
1761341852571261700,5.49126171875,0.0004945327527821064,-0.00023904815316200256,0.001881161704659462
1761341852581327600,5.50132763671875,0.0003779935650527477,-0.0009087836369872093,0.001062764786183834
1761341852591393800,5.511393798828125,0.0022640442475676537,-0.0004781503230333328,0.0001578223891556263
1761341852601459700,5.521459716796875,-0.0014713844284415245,0.0016180966049432755,0.00030217738822102547
1761341852611526000,5.53152587890625,-0.0022823167964816093,0.0006819954141974449,0.001460918691009283
1761341852621591800,5.541591796875,-0.000055528245866298676,-0.002914232201874256,0.0014081313274800777
1761341852631657700,5.55165771484375,-0.0006640604697167873,0.00012576580047607422,0.00020491564646363258
1761341852641724700,5.561724609375,0.00012118974700570107,-0.0019813785329461098,0.0017094388604164124
1761341852651790600,5.57179052734375,-0.0007488648407161236,0.0005014864727854729,0.000057746656239032745
1761341852661856800,5.581856689453125,-0.0008981558494269848,-0.002377297729253769,0.003243786282837391
1761341852671922700,5.591922607421875,-0.0003809700720012188,0.001239808276295662,-0.0005762521177530289
1761341852681988600,5.601988525390625,-0.0009224596433341503,0.00025819335132837296,-0.0006661433726549149
1761341852692054800,5.6120546875,0.0007649189792573452,-0.0011796476319432259,-0.0005244631320238113
1761341852702120700,5.62212060546875,-0.00011595943942666054,0.0013059023767709732,0.0016799084842205048
1761341852712187000,5.632186767578125,0.0013453168794512749,-0.0007718959823250771,-0.002021352294832468
1761341852722252500,5.64225244140625,-0.0021856073290109634,-0.0008688708767294884,0.0020395638421177864
1761341852732319500,5.652319580078125,0.001484761480242014,0.0011135861277580261,-0.0008704722858965397
1761341852742385700,5.6623857421875,-0.000899909995496273,-0.002271217294037342,0.0025189584121108055
1761341852752451600,5.67245166015625,-0.00016061635687947273,0.0014494843780994415,0.0010254578664898872
1761341852762517800,5.682517822265625,-0.0010536713525652885,-0.0011113695800304413,-0.002430083230137825
1761341852772583700,5.692583740234375,-0.0014864346012473106,-0.0008857995271682739,0.000027748290449380875
1761341852782649600,5.702649658203125,-0.00038656778633594513,-0.0015943832695484161,0.0023138169199228287
1761341852792715300,5.71271533203125,-0.0023141633719205856,-0.000378916971385479,-0.0022343299351632595
1761341852802781400,5.722781494140625,0.0002824757248163223,-0.0014649145305156708,0.0014580832794308662
1761341852812847400,5.732847412109375,-0.0036028102040290833,-0.0005072420462965965,0.0022644884884357452
1761341852822914300,5.742914306640625,0.00007216399535536766,0.00018305983394384384,0.0009302287362515926
1761341852832980500,5.75298046875,-0.00020107626914978027,-0.0016369447112083435,-0.0008279904723167419
1761341852843046400,5.76304638671875,0.0003166799433529377,-0.0017471155151724815,-0.0012878417037427425
1761341852853112600,5.773112548828125,0.0019635790959000587,0.0014478787779808044,-0.000649748370051384
1761341852863178500,5.783178466796875,-0.0000958726741373539,0.0007065180689096451,0.0006771031767129898
1761341852873244400,5.793244384765625,0.0026493140030652285,-0.0020346734672784805,-0.0009546154178678989
1761341852883310300,5.803310302734375,0.0005969437770545483,0.001810755580663681,0.000921604223549366
1761341852893376300,5.813376220703125,-0.00010959291830658913,0.0018882537260651588,0.000057674478739500046
1761341852903442400,5.8234423828125,0.0012660548090934753,-0.00046529434621334076,-0.0016830996610224247
1761341852913509400,5.83350927734375,0.0018639345653355122,-0.0008080434054136276,0.00048018619418144226
1761341852923575300,5.8435751953125,0.004210798069834709,-0.0009614955633878708,0.0006772703491151333
1761341852933641500,5.853641357421875,-0.0015639998018741608,0.0013053873553872108,-0.001382684800773859
1761341852943707400,5.863707275390625,-0.0005510901100933552,-0.003908652812242508,-0.003632709849625826
1761341852953773600,5.873773681640625,-0.0007843831554055214,-0.0010228510946035385,0.000687470193952322
1761341852963839200,5.883839111328125,-0.0006217658519744873,0.0011462057009339333,0.0009583313949406147
1761341852973905400,5.893905517578125,-0.0007149768061935902,0.0015097279101610184,0.0012845690362155437
1761341852983971300,5.903971435546875,-0.00017832592129707336,-0.0007670912891626358,-0.0024097440764307976
1761341852994037500,5.91403759765625,0.0008581764996051788,-0.0010568425059318542,0.00038657477125525475
1761341853004103400,5.924103515625,0.0007451856508851051,0.0004513030871748924,-0.000011428724974393845
1761341853014170400,5.93417041015625,-0.0007131611928343773,-0.0001732083037495613,0.0014378633350133896
1761341853024236500,5.944236572265625,0.0024028029292821884,0.0005696611478924751,-0.0014548269100487232
1761341853034302500,5.954302490234375,-0.00259568402543664,0.0016040336340665817,-0.0029672360979020596
1761341853044368400,5.964368408203125,0.002504168776795268,0.0003174804151058197,0.0001512579619884491
1761341853054434300,5.974434326171875,-0.0002319631166756153,0.0008426560088992119,-0.0009997603483498096
1761341853064500200,5.984500244140625,0.0018676593899726868,0.0028058765456080437,-0.0007072389125823975
1761341853074566400,5.99456640625,0.0006772265769541264,0.0007259482517838478,0.001485074870288372
1761341853084632300,6.00463232421875,-0.0008369293063879013,0.0013100719079375267,-0.0011519137769937515
1761341853094698500,6.014698486328125,-0.0020968709141016006,0.0027455156669020653,0.0002065650187432766
1761341853104765400,6.024765380859375,0.00165225425735116,0.001061948947608471,-0.0016574403271079063
1761341853114831400,6.034831298828125,0.0009076343849301338,0.001524273306131363,-0.004406888037919998
1761341853124897500,6.0448974609375,-0.0008138860575854778,-0.004343011416494846,0.0008705370128154755
1761341853134963500,6.05496337890625,-0.0014157602563500404,0.0013830512762069702,0.0014796014875173569
1761341853145029400,6.065029296875,-0.0003924379125237465,-0.0023698629811406136,0.00022200914099812508
1761341853155095300,6.07509521484375,-0.00014556292444467545,-0.00023587141185998917,0.003296362701803446
1761341853165161500,6.085161376953125,0.0005891686305403709,-0.0003740759566426277,0.002003470901399851
1761341853175227400,6.095227294921875,-0.0012566684745252132,-0.00011628121137619019,0.00023726234212517738
1761341853185293300,6.105293212890625,-0.0006398032419383526,0.00019173603504896164,0.0004483833909034729
1761341853195360500,6.115360595703125,0.0021996591240167618,-0.0018077651038765907,0.000677681528031826
1761341853205426400,6.125426513671875,-0.0013161329552531242,-0.0010466212406754494,-0.0027080816216766834
1761341853215492600,6.13549267578125,-0.00002796156331896782,0.00045859720557928085,-0.00002468051388859749
1761341853225558500,6.14555859375,0.0014918562956154346,0.0004123486578464508,0.0001379065215587616
1761341853235624200,6.155624267578125,-0.001691419631242752,-0.00015543773770332336,0.0007789297960698605
1761341853245690400,6.1656904296875,0.00008936692029237747,-0.0001244824379682541,-0.004279883578419685
1761341853255756300,6.17575634765625,0.0003892388194799423,-0.00010610651224851608,0.0009364495053887367
1761341853265822500,6.185822509765625,0.001272320281714201,0.0020277518779039383,-0.0011514420621097088
1761341853275888400,6.195888427734375,-0.000315988902002573,0.0014029741287231445,0.000776153989136219
1761341853285955300,6.205955322265625,0.0006133993156254292,0.0003833901137113571,-0.0005470579490065575
1761341853296021500,6.216021484375,-0.0019373768009245396,0.000984998419880867,0.001999722793698311
1761341853306087400,6.22608740234375,0.00012776348739862442,-0.002787952311336994,-0.0009285812266170979
1761341853316153600,6.236153564453125,-0.00005173357203602791,-0.0005508968606591225,0.0016733277589082718
1761341853326219300,6.24621923828125,-0.0009393417276442051,0.0006525898352265358,0.0013059396296739578
1761341853336285400,6.256285400390625,-0.0016730427742004395,-0.0006294557824730873,-0.000057332683354616165
1761341853346351400,6.266351318359375,-0.0006059571169316769,-0.000850895419716835,0.001645443495362997
1761341853356417500,6.27641748046875,0.0004952596500515938,-0.0002580750733613968,-0.002632125746458769
1761341853366483500,6.2864833984375,0.0011796876788139343,0.0002932446077466011,-0.0008130110800266266
1761341853376550400,6.29655029296875,0.002315259538590908,-0.0004726806655526161,-0.002333410084247589
1761341853386616600,6.306616455078125,0.00009448174387216568,0.000023941509425640106,-0.0025662886910140514
1761341853396682500,6.3166826171875,-0.00019074277952313423,0.0008684303611516953,0.0009493506513535976
1761341853406748400,6.32674853515625,0.000136462040245533,-0.0003736671060323715,0.002564172726124525
1761341853416814300,6.336814453125,0.0016576596535742283,0.0019129235297441483,-0.00007821619510650635
1761341853426880300,6.34688037109375,-0.00015714438632130623,0.0007953252643346786,-0.00006885547190904617
1761341853436946400,6.356946533203125,-0.0014293366111814976,-0.00112241692841053,-0.0036396216601133347
1761341853447012400,6.367012451171875,0.002716975985094905,0.00009657256305217743,0.0012458357959985733
1761341853457078500,6.37707861328125,-0.0010727019980549812,-0.0026235803961753845,-0.0014871000312268734
1761341853467144400,6.38714453125,-0.00005356781184673309,-0.0006215283647179604,0.00131628243252635
1761341853477211400,6.39721142578125,-0.0007228204049170017,0.0009065931662917137,-0.003100836183875799
1761341853487277600,6.407277587890625,0.000041555147618055344,0.00022626295685768127,0.0017063994891941547
1761341853497343200,6.41734326171875,0.0021110977977514267,0.0015338752418756485,0.0010637794621288776
1761341853507409400,6.427409423828125,0.0011622379533946514,0.0006031086668372154,0.00031347712501883507
1761341853517475300,6.437475341796875,0.00015556300058960915,-0.0002546953037381172,0.001413895282894373
1761341853527541500,6.44754150390625,0.0011580884456634521,-0.0017015626654028893,0.0010214131325483322
1761341853537607400,6.457607421875,-0.002568206749856472,-0.002030462957918644,0.0002291221171617508
1761341853547673300,6.46767333984375,0.001447159331291914,0.000964900478720665,-0.0013194167986512184
1761341853557739500,6.477739501953125,0.000039412640035152435,-0.0010026432573795319,0.0005890047177672386
1761341853567806500,6.487806396484375,-0.0001630028709769249,-0.0008148234337568283,-0.0012561199255287647
1761341853577872600,6.49787255859375,-0.00003463868051767349,0.00008319411426782608,0.0014597713015973568
1761341853587938300,6.507938232421875,0.0001958971843123436,-0.0020209578797221184,0.0013325605541467667
1761341853598004200,6.518004150390625,0.0013815364800393581,0.001122637651860714,-0.0009702746756374836
1761341853608070400,6.5280703125,0.002326634246855974,-0.0008985353633761406,-0.002049374859780073
1761341853618136300,6.53813623046875,0.0031708565074950457,0.0004681982100009918,0.0016905018128454685
1761341853628202500,6.548202392578125,-0.002146170474588871,-0.0009096860885620117,-0.003621940966695547
1761341853638268400,6.558268310546875,-0.000011113937944173813,-0.001614358276128769,0.0024993345141410828
1761341853648334600,6.56833447265625,0.0015288288705050945,0.0006715375930070877,-0.0008252598345279694
1761341853658401500,6.578401611328125,0.0012840842828154564,-0.0006091762334108353,0.001814465969800949
1761341853668467500,6.588467529296875,0.0013571945019066334,-0.0013160621747374535,-0.0012699039652943611
1761341853678533400,6.598533447265625,-0.001275873277336359,0.0003015417605638504,0.0005253325216472149
1761341853688599300,6.608599365234375,0.0011811410076916218,-0.0026344740763306618,0.0014415080659091473
1761341853698665500,6.61866552734375,0.0010463851504027843,0.001665998250246048,-0.0005545308813452721
1761341853708731400,6.6287314453125,-0.00048158690333366394,0.00043105706572532654,0.0009767855517566204
1761341853718797600,6.638797607421875,0.0010254960507154465,-0.0013743005692958832,0.0008763843216001987
1761341853728863500,6.648863525390625,-0.0011157002300024033,0.00019742734730243683,0.0030464818701148033
1761341853738929400,6.658929443359375,-0.0007484504021704197,-0.0024660006165504456,-0.0025749183259904385
1761341853748996600,6.66899658203125,0.0004313807003200054,0.0015312973409891129,0.00008191727101802826
1761341853759062500,6.6790625,0.0010830564424395561,0.0026349108666181564,0.0008694138377904892
1761341853769128400,6.68912841796875,0.0001724972389638424,-0.0007988875731825829,-0.0002160356380045414
1761341853779194400,6.6991943359375,0.0005719717592000961,0.00001683831214904785,0.0002739857882261276
1761341853789260300,6.70926025390625,0.00016968278214335442,-0.0021943608298897743,-0.0006088521331548691
1761341853799326200,6.719326171875,0.00010070670396089554,-0.000947202555835247,0.0004273839294910431
1761341853809392000,6.72939208984375,0.0011154809035360813,-0.00009076017886400223,-0.002627408131957054
1761341853819458300,6.739458251953125,0.00011280085891485214,-0.00007478147745132446,-0.00030486565083265305
1761341853829524200,6.749524169921875,0.0006901822052896023,0.0013068672269582748,0.002519479487091303
1761341853839590400,6.75959033203125,-0.0012094504199922085,0.0005939388647675514,0.002778338734060526
1761341853849657300,6.7696572265625,-0.0006481274031102657,0.00019055232405662537,0.00008949823677539825
1761341853859723300,6.77972314453125,-0.0012894170358777046,-0.0012568756937980652,0.002487940713763237
1761341853869789400,6.78978955078125,0.00006089778617024422,-0.0011048698797821999,-0.002007001079618931
1761341853879855400,6.79985546875,0.0005613057874143124,0.00033616647124290466,-0.0009449324570596218
1761341853889921300,6.80992138671875,-0.001617511734366417,-0.0012313872575759888,-0.001553062815219164
1761341853899987200,6.8199873046875,0.00156869413331151,-0.0012843841686844826,-0.00023373309522867203
1761341853910053400,6.830053466796875,0.0016854186542332172,-0.0006251651793718338,0.0011116624809801579
1761341853920119300,6.840119384765625,-0.0008171540684998035,-0.001433168537914753,-0.00013869116082787514
1761341853930185200,6.850185302734375,-0.0007090745493769646,0.0005105072632431984,0.0000475393608212471
1761341853940252400,6.86025244140625,0.000012908130884170532,0.003217077814042568,-0.0008632615208625793
1761341853950318300,6.870318359375,-0.00018812436610460281,-0.002297867089509964,-0.0009652310982346535
1761341853960384300,6.88038427734375,0.00000894954428076744,0.0021829018369317055,0.00020629353821277618
1761341853970450400,6.890450439453125,0.0010746498592197895,0.0007697232067584991,-0.00275567639619112
1761341853980516000,6.90051611328125,0.0004802322946488857,0.0012064818292856216,-0.0027117342688143253
1761341853990582300,6.910582275390625,-0.0006834319792687893,0.00006957538425922394,-0.0002544489689171314
1761341854000648200,6.920648193359375,-0.0012908987700939178,0.0005105948075652122,0.0017130947671830654
1761341854010714400,6.93071435546875,-0.002184714190661907,0.00046145636588335037,0.0022623022086918354
1761341854020780300,6.9407802734375,0.0014150808565318584,0.0015038177371025085,0.0012476383708417416
1761341854030847200,6.95084716796875,0.00024661654606461525,-0.00004762783646583557,-0.0019336976110935211
1761341854040913400,6.960913330078125,-0.00045006629079580307,-0.001235131174325943,-0.0010758931748569012
1761341854050979300,6.970979248046875,0.0010728645138442516,-0.0008384473621845245,-0.0024380641989409924
1761341854061045200,6.981045166015625,-0.0003007939085364342,-0.0013556331396102905,-0.00026625627651810646
1761341854071111200,6.991111083984375,0.0000751689076423645,0.000776318833231926,-0.0005595092661678791
1761341854081177300,7.00117724609375,-0.0006801034323871136,0.0013680728152394295,0.0007355860434472561
1761341854091243300,7.0112431640625,-0.0006563062779605389,-0.000023739412426948547,0.00001916429027915001
1761341854101309200,7.02130908203125,-0.00008266139775514603,-0.001199524849653244,-0.0019632927142083645
1761341854111375400,7.031375244140625,0.00111363735049963,-0.000554877333343029,0.00008241366595029831
1761341854121441300,7.041441162109375,-0.001572426874190569,-0.0009490251541137695,0.001451810821890831
1761341854131508200,7.05150830078125,0.0001872694119811058,0.0011570276692509651,-0.0005500055849552155
1761341854141574400,7.061574462890625,-0.0007965019904077053,-0.0007529910653829575,0.0007767807692289352
1761341854151640000,7.07164013671875,0.00006901659071445465,-0.0010528527200222015,0.0007223477587103844
1761341854161706200,7.081706298828125,-0.0017145019955933094,0.0011290749534964561,-0.0011780834756791592
1761341854171772200,7.091772216796875,0.0011713691055774689,0.0013015959411859512,-0.0004881294444203377
1761341854181838300,7.10183837890625,-0.0008307951502501965,-0.0009762058034539223,0.0013489187695086002
1761341854191904300,7.111904296875,0.0004954538308084011,0.001557786948978901,0.0018158219754695892
1761341854201970400,7.121970458984375,-0.00014556897804141045,0.001195862889289856,-0.0013389592058956623
1761341854212036400,7.132036376953125,-0.0011844048276543617,0.001117081381380558,0.0023305132053792477
1761341854222103300,7.142103271484375,-0.00009543821215629578,-0.0022795135155320168,-0.003626978024840355
1761341854232169500,7.15216943359375,-0.0022701742127537727,0.0009237900376319885,-0.0019005415961146355
1761341854242235100,7.162235107421875,-0.00016041845083236694,0.0005677258595824242,-0.0034459740854799747
1761341854252301300,7.17230126953125,-0.0014240853488445282,-0.0005185659974813461,0.0020400770008563995
1761341854262367200,7.1823671875,0.0005237506702542305,0.0011823950335383415,0.0011995835229754448
1761341854272433400,7.192433349609375,-0.0010921801440417767,0.0015113111585378647,0.0013419021852314472
1761341854282499300,7.202499267578125,0.0013725757598876953,0.0016655083745718002,-0.0006269728764891624
1761341854292565200,7.212565185546875,-0.0006000944413244724,-0.0003405259922146797,-0.00003645988181233406
1761341854302631400,7.22263134765625,-0.0013564322143793106,-0.000522952526807785,-0.00007986929267644882
1761341854312698400,7.232698486328125,0.00004327530041337013,-0.001965402625501156,0.0005041877739131451
1761341854322764300,7.242764404296875,0.001682184636592865,0.0025470582768321037,0.00032575568184256554
1761341854332830200,7.252830322265625,0.0009367908351123333,-0.0018649399280548096,-0.000515311025083065
1761341854342896000,7.262896240234375,0.0007437118329107761,0.0017556268721818924,0.0015904507599771023
1761341854352962300,7.27296240234375,0.0026388545520603657,-0.000002925284206867218,0.0010633552446961403
1761341854363028200,7.2830283203125,-0.0010632057674229145,0.00024421606212854385,-0.0004027150571346283
1761341854373094400,7.293094482421875,0.00007550884038209915,0.001255704089999199,-0.00023700064048171043
1761341854383160300,7.303160400390625,0.0014608856290578842,0.0014439895749092102,0.0006897794082760811
1761341854393226500,7.3132265625,0.0015933820977807045,0.0013096285983920097,0.00029642973095178604
1761341854403293400,7.32329345703125,0.0013060271739959717,-0.0001417938619852066,-0.00025431206449866295
1761341854413359400,7.333359375,-0.0002836897037923336,0.0024560941383242607,-0.0008124955929815769
1761341854423425300,7.34342529296875,0.0008833073079586029,-0.0020608939230442047,0.0014618439599871635
1761341854433491200,7.3534912109375,0.0026073413901031017,-0.003983562812209129,-0.0005392595194280148
1761341854443557400,7.363557373046875,-0.00025768717750906944,0.0016128038987517357,-0.00126284034922719
1761341854453623300,7.373623291015625,-0.00036966102197766304,0.0017948392778635025,-0.0015111933462321758
1761341854463689200,7.383689208984375,0.0002039838582277298,-0.0009319717064499855,-0.001753541175276041
1761341854473755400,7.39375537109375,0.0005938461981713772,-0.0011082282289862633,0.0002491036430001259
1761341854483821300,7.4038212890625,0.0015413989312946796,0.00011229794472455978,-0.0009266817942261696
1761341854493887200,7.41388720703125,0.0013707173056900501,0.000014769844710826874,0.000571053009480238
1761341854503954200,7.4239541015625,-0.001233055256307125,0.0014171898365020752,-0.0005035325884819031
1761341854514020000,7.43402001953125,0.0004959260113537312,-0.0004455326125025749,0.0006326898001134396
1761341854524086300,7.444086181640625,0.0016373568214476109,0.00011825934052467346,-0.0025298139080405235
1761341854534152200,7.454152099609375,-0.00003378419205546379,-0.0023912163451313972,-0.0019093584269285202
1761341854544218400,7.46421826171875,-0.0002028951421380043,0.0009744865819811821,0.0008803028613328934
1761341854554284300,7.4742841796875,0.0011954326182603836,-0.000373239628970623,0.001425478607416153
1761341854564350500,7.4843505859375,0.0019232742488384247,0.000950351357460022,-0.000990541186183691
1761341854574416400,7.49441650390625,0.000430357176810503,-0.0013879267498850822,-0.00032237404957413673
1761341854584482300,7.504482421875,0.001709206961095333,0.0015420829877257347,-0.001073918305337429
1761341854594549200,7.51454931640625,0.00037868693470954895,-0.0005537569522857666,-0.0017771553248167038
1761341854604615200,7.524615234375,-0.001823747530579567,0.000918172299861908,0.000902250874787569
1761341854614681300,7.534681396484375,0.001282809767872095,-0.00010943133383989334,0.002190861850976944
1761341854624747300,7.544747314453125,0.0014418005011975765,0.0006128177046775818,0.0012441081926226616
1761341854634813200,7.554813232421875,-0.0011658752337098122,-0.002406877465546131,-0.0002549579367041588
1761341854644879400,7.56487939453125,0.0008884868584573269,0.00008078105747699738,0.0030593457631766796
1761341854654945300,7.5749453125,0.002204237040132284,0.00003376603126525879,-0.00028901733458042145
1761341854665011200,7.58501123046875,-0.00021790806204080582,-0.001029367558658123,-0.001426186878234148
1761341854675077000,7.5950771484375,0.0015278402715921402,-0.00025491882115602493,0.0011754324659705162
1761341854685143300,7.605143310546875,0.00009053247049450874,-0.0003571845591068268,0.0003447923809289932
1761341854695210200,7.615210205078125,0.0003183586522936821,-0.0004445444792509079,-0.0009159897454082966
1761341854705276200,7.625276123046875,-0.001865167636424303,-0.001214730553328991,-0.0010001454502344131
1761341854715342300,7.63534228515625,0.00038847094401717186,0.001616198569536209,0.00012610992416739464
1761341854725408300,7.645408203125,-0.0004695998504757881,0.0004177764058113098,0.002371686976402998
1761341854735474400,7.655474365234375,-0.0010774582624435425,-0.000026987865567207336,0.000570985022932291
1761341854745540400,7.665540283203125,0.0011809025891125202,-0.0010179504752159119,-0.0014018844813108444
1761341854755606300,7.675606201171875,0.0022953995503485203,-0.000043929554522037506,-0.0003007641062140465
1761341854765672200,7.685672119140625,0.0006421091966331005,0.0008578170090913773,-0.0017495239153504372
1761341854775738000,7.695738037109375,-0.0021133869886398315,0.0002506524324417114,-0.0002543395385146141
1761341854785805600,7.7058056640625,-0.00014744186773896217,-0.001292916014790535,-0.00041359663009643555
1761341854795871500,7.71587158203125,0.0007917247712612152,0.0014005154371261597,0.0011584064923226833
1761341854805937400,7.7259375,0.00020529655739665031,-0.0007742224261164665,-0.0026488485746085644
1761341854816003300,7.73600341796875,-0.0012637884356081486,0.0026489319279789925,0.003960448317229748
1761341854826069200,7.7460693359375,0.0016510412096977234,0.0023772893473505974,0.00008714664727449417
1761341854836135400,7.756135498046875,-0.0002433345653116703,-0.0009384704753756523,-0.00009369337931275368
1761341854846201300,7.766201416015625,-0.001685436349362135,0.0007917853072285652,0.00009299395605921745
1761341854856267500,7.776267578125,0.0010661594569683075,0.0003343280404806137,0.0026028058491647243
1761341854866333400,7.78633349609375,0.0003604218363761902,-0.00008165743201971054,0.0004810658283531666
1761341854876399600,7.796399658203125,0.0005313609726727009,0.002176772803068161,-0.00017128325998783112
1761341854886466600,7.806466552734375,0.001284236554056406,0.0008497191593050957,-0.001811524387449026
1761341854896532200,7.8165322265625,-0.0016181999817490578,-0.00126640684902668,0.00009865127503871918
1761341854906598400,7.826598388671875,-0.0008048703894019127,0.0026902509853243828,-0.00007365550845861435
1761341854916664300,7.836664306640625,-0.0008122376166284084,-0.0018050102517008781,-0.00024392548948526382
1761341854926730500,7.84673046875,0.0009587644599378109,-0.0014132587239146233,0.0007736687548458576
1761341854936796400,7.85679638671875,-0.0007222569547593594,0.0017009526491165161,-0.001119980588555336
1761341854946862300,7.8668623046875,0.0011803056113421917,-0.0009140055626630783,0.0043746535666286945
1761341854956928500,7.876928466796875,-0.00021074432879686356,0.0003107702359557152,-0.00007021473720669746
1761341854966994400,7.886994384765625,0.0008699665777385235,0.0010242313146591187,-0.0028385710902512074
1761341854977061600,7.8970615234375,0.0008574975654482841,0.0014947373420000076,-0.0034617185592651367
1761341854987127300,7.907127197265625,0.0006897184066474438,0.0008736886084079742,0.0018006879836320877
1761341854997193200,7.917193115234375,0.000515506137162447,-0.0015017101541161537,0.000292907003313303
1761341855007259400,7.92725927734375,0.00020897621288895607,-0.0002034185454249382,0.0018671010620892048
1761341855017325300,7.9373251953125,0.00033566588535904884,-0.0016335221007466316,0.0016156607307493687
1761341855027391500,7.9473916015625,-0.0010845977813005447,-0.0005275113508105278,0.0018968903459608555
1761341855037457400,7.95745751953125,-0.0018020803108811378,0.04428187012672424,0.01972009241580963
1761341855047523600,7.967523681640625,-0.00016689999029040337,0.005895331501960754,0.001927779521793127
1761341855057589200,7.97758935546875,-0.0026314319111406803,0.005784821696579456,0.003223762847483158
1761341855067656400,7.987656494140625,-0.0013805455528199673,-0.004977544769644737,-0.0016460930928587914
1761341855077722400,7.997722412109375,0.0028869472444057465,-0.007094365544617176,-0.004617722705006599
1761341855087788300,8.007788330078125,0.001424339134246111,-0.007109545636922121,-0.00395592674612999
1761341855097854500,8.0178544921875,0.0005691619589924812,-0.00016192160546779633,0.0006374893710017204
1761341855107920400,8.02792041015625,0.00028926366940140724,0.0010530129075050354,0.0005504032596945763
