time,seconds_elapsed,z,y,x
1761338311248386800,0.07138671875,0.15092472096085546,-0.5060018952012062,-0.06636694414857774
1761338311258453000,0.081452880859375,-0.1368506029009819,-0.4677521709796041,-0.13642368272580205
1761338311268519000,0.091518798828125,-0.4769739536374807,-0.435863067831099,-0.21272397360140458
1761338311278583800,0.101583740234375,-0.7637561748087406,-0.37339601719789206,-0.20280268263835458
1761338311288649700,0.111649658203125,-0.9582242694199085,-0.47121254056654865,-0.21387447707708923
1761338311298716000,0.1217158203125,-1.0239537559151648,-0.7400880797777325,-0.23067959100343285
1761338311308780800,0.13178076171875,-0.9865917012482881,-0.941331879068911,-0.2426134090989828
1761338311318847000,0.141846923828125,-0.8601824128627776,-0.9367246044691652,-0.21554595395326612
1761338311328912000,0.151911865234375,-0.7339139942526817,-0.8358444557461887,-0.025466157428920267
1761338311338977800,0.161977783203125,-0.7293003629773854,-0.7463277778849006,0.2931864987229928
1761338311349044000,0.1720439453125,-0.8568763570547103,-0.5494783410951495,0.5694307400712743
1761338311359108900,0.18210888671875,-1.148189207392931,-0.3502354332976043,0.7397170545082539
1761338311369174800,0.1921748046875,-1.5302011503100394,-0.3436621923871338,0.8738262497466057
1761338311379240700,0.20224072265625,-1.8182050222307442,-0.3656124506495893,0.9453651531729846
1761338311389305900,0.212305908203125,-2.005045690703392,-0.3105177554152906,0.8897640427865088
1761338311399371800,0.222371826171875,-2.0910791295588016,-0.3931747035749256,0.8323341826029121
1761338311409437000,0.23243701171875,-1.9514333429813384,-0.3760042269349098,0.5345050091732293
1761338311419502800,0.2425029296875,-1.4195721993803978,-0.18363997273519633,-0.06776712980270386
1761338311429568800,0.25256884765625,-0.81194883556962,-0.2566847506798804,-0.4860786857869476
1761338311439634000,0.262634033203125,-0.5072644624829292,-0.5659012142382562,-0.5274888468008488
1761338311449699800,0.272699951171875,-0.6290402458488941,-0.8480259649924934,-0.36869945687949657
1761338311459766000,0.28276611328125,-1.121730239534378,-0.8118301776260137,-0.09117978876791893
1761338311469830700,0.29283056640625,-1.905413350084424,-0.4070077063553035,0.35273346065841615
1761338311479896800,0.302896728515625,-2.876693500432372,0.04742679095491767,0.913572203875333
1761338311489962000,0.3129619140625,-3.6725574626415964,0.49692573155909775,1.5422297340169548
1761338311500028000,0.32302783203125,-4.043690868669748,1.000402199935913,2.017296246597916
1761338311510093800,0.33309375,-3.907662688067555,1.3309741707339882,2.211400914724171
1761338311520158700,0.34315869140625,-3.318522490930557,1.3890230395987628,2.1212170781910418
1761338311530225000,0.353224853515625,-2.4675012896448374,1.3184772388629615,1.793107990375161
1761338311540290800,0.363290771484375,-1.5919097107261417,1.1195306836634873,1.354419343729317
1761338311550356000,0.37335595703125,-0.6957371160715818,0.912616364455223,0.8165840210895985
1761338311560422000,0.383421875,0.12642097882330416,0.7329400346539914,0.2862822357598692
1761338311570486800,0.39348681640625,0.8410837446391582,0.5006679137621075,-0.1917704530250281
1761338311580552700,0.403552734375,1.4494991356104612,0.2811103860799223,-0.6004078064087778
1761338311590619000,0.413618896484375,1.9095155247062443,0.25199754271171987,-0.9702261843156069
1761338311600684000,0.42368408203125,2.229851640433073,0.3065516282632947,-1.2472703438699244
1761338311610749700,0.433749755859375,2.375083118188381,0.2358118393253535,-1.390303288667649
1761338311620816000,0.44381591796875,2.3944635259628293,0.12720993724390864,-1.38456167627573
1761338311630880800,0.453880859375,2.2842589379251,0.02371931376159191,-1.2557808364532888
1761338311640947000,0.463947021484375,2.0061340704619885,-0.056244376726076004,-1.0355388336382805
1761338311651011800,0.47401171875,1.6478192294746636,-0.12916092518121003,-0.7496748232904821
1761338311661077800,0.484077880859375,1.2548995235741138,-0.1695019225936383,-0.4545595119293779
1761338311671143700,0.494143798828125,0.8291805408775806,-0.031900355194881554,-0.18114172617867588
1761338311681208800,0.504208740234375,0.3317074045687914,0.1280110975589603,0.1807118103288114
1761338311691275000,0.51427490234375,-0.07404138776659965,0.3518866345707327,0.590386763131991
1761338311701339600,0.524339599609375,-0.3254933523595333,0.627417540017888,1.0110139756474643
1761338311711405800,0.53440576171875,-0.38678164153695105,0.8232462554577737,1.388564189915359
1761338311721471700,0.5444716796875,-0.2523258248180151,0.8264780769858509,1.651632650282979
1761338311731537000,0.554536865234375,0.05557283414006233,0.7504374782260507,1.768217587007582
1761338311741602800,0.564602783203125,0.42310967698097224,0.6669857994921505,1.716657495640218
1761338311751669000,0.5746689453125,0.7242658759415149,0.579528684509173,1.6037424796000121
1761338311761734000,0.58473388671875,1.0079138907402754,0.5377058510411531,1.4338494387969374
1761338311771799800,0.5947998046875,1.2928916928380727,0.43415348743423815,1.249421676684916
1761338311781865000,0.604864990234375,1.5398171199172734,0.21585531216338275,1.0572279567465186
1761338311791931000,0.614930908203125,1.6741127776384352,-0.001888115301541984,0.8254118359938264
1761338311801997000,0.6249970703125,1.707699989941716,-0.15161862150914965,0.559454558849521
1761338311812061700,0.635061767578125,1.5418594393998384,-0.2685052811266854,0.3424394456591457
1761338311822127900,0.6451279296875,1.2491513353109358,-0.3646325727667659,0.1657335099708289
1761338311832193800,0.65519384765625,0.9616466450840234,-0.4026708461947739,0.056322337333112954
1761338311842259000,0.665259033203125,0.6041454585671424,-0.5416922903288155,0.05954276068434119
1761338311852324600,0.67532470703125,0.12532441575825215,-0.7929026281856,0.025394334301725028
1761338311862389800,0.6853896484375,-0.02144669265449047,-0.8083020765651017,-0.17669957901276648
1761338311872456000,0.6954560546875,0.011111176601052283,-0.9390157110810279,-0.41024500777609646
1761338311882521900,0.70552197265625,0.03502162902057171,-1.2067683106768876,-0.4968863493967801
1761338311892587000,0.7155869140625,0.04905658411383629,-1.475271874770522,-0.573819293886423
1761338311902652400,0.72565234375,0.01607493648827076,-1.6878155781678854,-0.7952071788009256
1761338311912717600,0.735717529296875,-0.16406652660667895,-2.181667601370066,-1.370594817982614
1761338311922783500,0.745783447265625,-0.504883120304346,-2.0369016952998935,-1.6092084899209438
1761338311932849400,0.755849365234375,-0.645657618650794,-1.9899992204800248,-1.3247649408303201
1761338311942914600,0.76591455078125,-1.2250614346712827,-2.198840416097641,-1.249540919150412
1761338311952980500,0.77598046875,-1.8188596867471933,-1.978503574606031,-1.4089602044731377
1761338311963046700,0.786046630859375,-2.0413918463259932,-1.5253941884197293,-1.520947876535356
1761338311973111300,0.796111328125,-1.873191580915451,-1.3912319478198885,-1.3230015844196081
1761338311983177500,0.806177490234375,-1.4887714078128338,-1.263503247398883,-0.8417701194681226
1761338311993242600,0.81624267578125,-1.1990168928325176,-1.150663050160557,-0.4696496751639992
1761338312003308500,0.82630859375,-1.0408867705374956,-0.9019139878507703,-0.3364851403646171
1761338312013374500,0.83637451171875,-0.908888283842802,-0.5118897841960192,-0.3015934943992644
1761338312023439400,0.846439453125,-0.7910182757437229,-0.1115659029861912,-0.24657865946814417
1761338312033505500,0.856505615234375,-0.6556085193008184,0.22081169246174392,-0.1376891726169735
1761338312043571500,0.866571533203125,-0.3578139057278633,0.3929750528169796,0.015406462642177939
1761338312053636600,0.87663671875,0.10355623606443405,0.7644058708891273,-0.020988281362503764
1761338312063702500,0.88670263671875,0.45046880854964255,1.2624717123940585,-0.15925426748674362
1761338312073767400,0.896767333984375,0.592256867852807,1.4480490829326211,-0.11459880440868436
1761338312083833300,0.906833251953125,0.6336585532993078,1.153999501106888,0.07471632788609713
1761338312093899500,0.9168994140625,0.3493079431891441,0.809772002987191,0.3306923823073506
1761338312103964700,0.926964599609375,-0.10241408029198645,0.5045004411296918,0.6269215001292526
1761338312114030600,0.937030517578125,-0.5521557436108588,0.3882894157513976,0.9147867672968655
1761338312124096500,0.947096435546875,-0.9805255330771208,0.5674604994442314,1.1362092120680958
1761338312134161400,0.957161376953125,-1.364824125626683,0.6984468134216963,1.1982197511054575
1761338312144227600,0.9672275390625,-1.7412924629420041,0.5868987383531407,1.0730565172582864
1761338312154292500,0.97729248046875,-2.0075556276977062,0.6257296599961817,0.6616893735844641
1761338312164358700,0.987358642578125,-2.0474416478842494,0.7571651059806347,0.13778824907727538
1761338312174424300,0.99742431640625,-1.728649838989973,0.6088627694126219,-0.2685174099558964
1761338312184489500,1.007489501953125,-1.2899334275543688,0.3732984751075506,-0.173469364919886
1761338312194555600,1.0175556640625,-0.8523726158946752,0.33798213745672256,0.260720107143186
1761338312204620500,1.02762060546875,-0.3833984288394451,0.5545131934572011,0.6223983236163855
1761338312214686500,1.0376865234375,0.1364110424399376,0.8325175032805651,0.8288594922296703
1761338312224752400,1.04775244140625,0.8525678462058305,0.9410148490089922,0.8701631971944123
1761338312234817500,1.057817626953125,1.5918892524600028,0.7454580093130468,0.8763495576791465
1761338312244883500,1.067883544921875,2.005401080012321,0.5833810856210068,1.0607658485490827
1761338312254949600,1.07794970703125,2.0717688644111156,0.6195538209054618,1.2485931169062852
1761338312265014500,1.0880146484375,1.992887635397911,0.7045880926556884,1.3282464993357657
1761338312275080400,1.09808056640625,1.8619968176841735,0.6745796156220137,1.2753551593646406
1761338312285145600,1.1081455078125,1.7327713028341531,0.5603072666887193,1.2128045221012085
1761338312295211500,1.11821142578125,1.4935405219107865,0.2765902052417397,1.0843354516416788
1761338312305277700,1.128277587890625,1.0812994449466466,-0.05792290439754724,0.8232584573522209
1761338312315342300,1.13834228515625,0.8264227666020393,0.08742854647561907,0.48636678201332684
1761338312325408500,1.148408447265625,0.40038288138806816,0.28721622867435215,0.5119788507189601
1761338312335474400,1.158474365234375,-0.05156885919570923,0.3256742253517732,0.627416882430762
1761338312345539600,1.16853955078125,-0.40117549307048317,0.3740024586584419,0.569490617032349
1761338312355605500,1.17860546875,-0.6043319210499525,0.5275018889455124,0.34167087243944405
1761338312365670400,1.18867041015625,-0.5969722059369087,0.5107241744827479,0.1629310015044175
1761338312375736600,1.198736572265625,-0.498357517927885,0.40614005667529995,0.16294903035145253
1761338312385802500,1.208802490234375,-0.3651537470966577,0.4639573818065226,0.28150398850739
1761338312395867600,1.21886767578125,-0.10246610274016857,0.5901168236168101,0.39063988786768167
1761338312405933300,1.228933349609375,0.28475626830160616,0.6358063789829611,0.5600696220079436
1761338312415998500,1.23899853515625,0.5759451999992132,0.6050328358609229,0.7870515640698373
1761338312426064400,1.249064453125,0.7922983786821365,0.5658509818883612,1.0040936017997562
1761338312436130600,1.259130615234375,0.9550357025116681,0.6353080740720033,1.2271252353332935
1761338312446195700,1.26919580078125,1.2306459568053483,0.6528348168037832,1.4163812943845986
1761338312456261400,1.279261474609375,1.5113362908422947,0.5439270636435598,1.6097487342774868
1761338312466327600,1.28932763671875,1.614308005017042,0.4816483751893043,1.9195710547745226
1761338312476392400,1.299392333984375,1.3695458934515714,0.5115291707227007,2.1775364929147063
1761338312486458600,1.309458740234375,0.8784779480099677,0.5057891657659783,2.2747204174682496
1761338312496523300,1.319523193359375,0.2848603131979704,0.44983905927874146,2.272174386247247
1761338312506589400,1.32958935546875,-0.1963537622272968,0.31233371879607436,2.0997562108807264
1761338312516655400,1.3396552734375,-0.4030103072822094,0.053565439840406175,1.820581395973265
1761338312526720500,1.349720458984375,-0.39531215399503705,-0.7962048846013844,1.3240084233745932
1761338312536786400,1.359786376953125,-0.2928542345613241,-3.292223974330723,-0.47406654175817964
1761338312546851300,1.369851318359375,-0.15714520291090012,-6.438312215542793,-4.768130932134389
1761338312556917500,1.37991748046875,-0.07338087803125382,-2.974535742764175,-7.957716077506542
1761338312566983400,1.3899833984375,-1.0071838229000567,-2.705551044090092,-8.40977829272747
1761338312577048600,1.400048583984375,-1.6329817258268593,-2.691692322346568,-6.18070406640768
1761338312587114500,1.410114501953125,-1.5404787986963986,-1.414181007861346,-3.5612826150238512
1761338312597180700,1.4201806640625,-1.2490718403339385,-0.8884952649597078,-1.4352416238076984
1761338312607245600,1.43024560546875,-1.2014788990318774,-1.0794214491803198,-0.1947380706589669
1761338312617311500,1.4403115234375,-1.158701833578944,-0.9708723732646554,0.3778357532110065
1761338312627376600,1.450376708984375,-1.052064582633972,-0.5792023386316374,0.8165969536364078
1761338312637442600,1.460442626953125,-0.8684224179416894,-0.14442878307029605,1.2136890498507766
1761338312647508500,1.470508544921875,-0.584088174444437,-0.1949682992182672,1.1265627742573618
1761338312657573400,1.480573486328125,-0.21560615970790384,-0.5944418472090736,0.6072396251901984
1761338312667639600,1.4906396484375,0.12335048533678054,-0.6214817202281206,0.007071874614991247
1761338312677705500,1.50070556640625,0.43854047034680843,-0.10404000099338591,-0.15512209958545864
1761338312687770600,1.5107705078125,0.5399333908975124,0.1817555106954649,0.3955536346007138
1761338312697836300,1.520836181640625,0.5122101021915674,0.22599249263312665,1.2449164742201566
1761338312707901400,1.5309013671875,0.27152444628477096,0.2791363095279783,1.9103763793192803
1761338312717967600,1.540967529296875,-0.263836814391613,0.03020392654053867,2.2385345669738945
1761338312728033500,1.551033447265625,-1.0628338139295577,-0.18723178668208418,2.356514465188235
1761338312738098400,1.561098388671875,-2.1465824055939913,0.145262968872115,2.427543519396335
1761338312748164400,1.571164306640625,-3.2619659064501523,0.6991169677682221,2.3480746997535227
1761338312758229500,1.5812294921875,-4.053962087315321,1.264616469337791,2.30303962624073
1761338312768295400,1.59129541015625,-4.3148640172988175,1.954076550966501,1.8672525462552905
1761338312778361600,1.601361572265625,-4.109750610032678,2.2762536183848976,1.0555650650355963
1761338312788426500,1.611426513671875,-3.500688737851381,2.0864143526181578,0.503113188022375
1761338312798492400,1.621492431640625,-2.6450544898122548,1.8716189247712491,0.07936904906276614
1761338312808558600,1.63155859375,-1.7744670027911662,1.793404635234177,-0.3528669508449733
1761338312818623500,1.64162353515625,-0.9622527942836284,1.768920036188513,-0.65808148528561
1761338312828689700,1.651689697265625,-0.23116613241136072,1.8304462257750331,-0.7976408356886356
1761338312838754300,1.66175439453125,0.41649113562405105,2.010950384702533,-0.8413122196327895
1761338312848820500,1.671820556640625,0.9099614660322666,2.2212797730512914,-0.7989895468838513
1761338312858886400,1.681886474609375,1.3208183951616286,2.2567267878770827,-0.7769279372014105
1761338312868951600,1.69195166015625,1.7672955037266016,2.292572300501168,-0.6975866163957863
1761338312879017500,1.702017578125,2.1363480118274687,2.3383082157596946,-0.5247071071278303
1761338312889082400,1.712082275390625,2.2924469205558298,2.300939731352031,-0.2082771685266867
1761338312899148500,1.7221484375,2.2069471501857043,2.1136232620611786,0.18766214092336594
1761338312909214700,1.732214599609375,2.010851746633649,1.8479016568362712,0.6976951182715594
1761338312919279900,1.74227978515625,1.7048714885175227,1.5780417827628552,1.2302699630998075
1761338312929345500,1.752345458984375,1.340344348886609,1.3053757652275264,1.7161751189507544
1761338312939411700,1.76241162109375,0.9269599471062421,1.0928222710885107,2.1532883329734207
1761338312949476600,1.7724765625,0.3647936816126108,0.9213320972871035,2.449993105483055
1761338312959542800,1.782542724609375,-0.23580489812791347,0.7017946625448763,2.427721360181272
1761338312969607700,1.792607666015625,-0.5869809732764959,0.411516415951401,2.1671609371118246
1761338312979673600,1.802673583984375,-0.5268886158853769,0.03307265037726611,1.621590855501592
1761338312989739800,1.81273974609375,-0.1939759271800518,-0.47093938618097453,0.7283886549599469
1761338312999804700,1.8228046875,0.3808142575651407,-1.1484775228150188,-0.4651859737534076
1761338313009870800,1.832870849609375,0.972296633914113,-1.7226365700498223,-1.7179796841546893
1761338313019935500,1.842935546875,1.3481857100367545,-1.538028629065305,-2.528663322094083
1761338313030001700,1.853001708984375,1.6932038470774888,-1.025797557150945,-2.884685668230057
1761338313040067600,1.863067626953125,1.9348107094824314,-0.478347178219445,-2.7596292557582256
1761338313050132700,1.8731328125,2.075339124113321,-0.018706819361820816,-2.362971240112185
1761338313060198700,1.88319873046875,1.9476175840854644,0.42358514900561417,-1.7634980111397802
1761338313070264800,1.893264892578125,1.4201672426640986,0.921253259897232,-1.0473149038888514
1761338313080329700,1.903329833984375,0.8338783433049917,1.1583138571746647,-0.5087529840076342
1761338313090395600,1.913395751953125,0.3058499097347259,0.9414417691841721,-0.3524732753522694
1761338313100460800,1.923460693359375,-0.17778233274817465,0.4799276888765394,-0.6664309420883655
1761338313110526700,1.933526611328125,-0.591436199119687,0.06343410556707531,-1.162449568739906
1761338313120592600,1.943592529296875,-0.7581377504050731,-0.30127496650200336,-1.486607507777214
1761338313130657800,1.95365771484375,-0.6752472857505083,-0.6240238789916038,-1.4438542615912855
1761338313140723700,1.9637236328125,-0.4876975922256708,-0.8320369532220065,-1.161169027410075
1761338313150788900,1.973788818359375,-0.2800707408338785,-0.8493851245164871,-0.9037481444753706
1761338313160854800,1.983854736328125,-0.13316577690839768,-0.8085534940429031,-0.8194641796357929
1761338313170920700,1.993920654296875,-0.0505459458887577,-0.7452912013787776,-0.8303842906441539
1761338313180985600,2.003985595703125,0.07796762129962444,-0.6473574813712388,-0.7470151756271719
1761338313191051800,2.0140517578125,0.2338473343193531,-0.4499722572043538,-0.4886043318070471
1761338313201117700,2.02411767578125,0.42007542385160923,-0.28106881196051836,-0.19750855828560887
1761338313211182600,2.0341826171875,0.5622808317840099,-0.18474727638997138,-0.09831000597402453
1761338313221248500,2.04424853515625,0.704255938091874,-0.08054192876704036,-0.22851276835836468
1761338313231313700,2.054313720703125,0.7240016720473766,0.049655645985528823,-0.4829355654556304
1761338313241379800,2.0643798828125,0.6216197404593229,0.21699571437016127,-0.7280657796811312
1761338313251445800,2.07444580078125,0.593890606534481,0.15371749348454178,-0.9534044480480253
1761338313261510700,2.0845107421875,0.4266793521612882,-0.3033843964040279,-1.177871667342633
1761338313271576600,2.09457666015625,0.08796762178838252,-0.7769309328760952,-1.4542574360534548
1761338313281641700,2.104641845703125,-0.17074585824012756,-1.0037469072539358,-1.9937243784829972
1761338313291707600,2.114707763671875,-0.2573825236856937,-1.1460233345959334,-2.7412036644905804
1761338313301773800,2.12477392578125,-0.2789379374116659,-0.7004722548346967,-2.725124636349082
1761338313311838700,2.134838623046875,-0.42619945968985556,0.22375870569907128,-1.3890977122701704
1761338313321904600,2.144904541015625,-0.32466216223239897,0.3601733283355832,-0.6555399841092526
1761338313331970800,2.154970703125,-0.19888415748775004,0.5252569230303168,-0.3176164815045893
1761338313342035700,2.16503564453125,-0.5415022476494312,1.3022975268259644,0.9711272248085587
1761338313352102000,2.175101806640625,-1.0356506234496832,1.2713438778966664,2.8358672767862676
1761338313362166500,2.18516650390625,-1.449982535213232,0.5361213583286851,4.210350918900966
1761338313372232700,2.195232666015625,-2.030713215923309,-0.17467947136200965,4.838681555175781
1761338313382298600,2.205298583984375,-2.937691866752505,-0.4181641834028065,4.638615494427085
1761338313392363800,2.21536376953125,-3.842846809285879,-0.09152940592318773,3.8498897135347128
1761338313402429700,2.2254296875,-4.598522553491592,1.0692029105700551,2.1813016906671225
1761338313412494600,2.23549462890625,-4.289598643139004,1.8757164232179522,-0.5130518867779523
1761338313422560800,2.245560791015625,-3.929550694748759,1.8063374743044376,-3.693376963308453
1761338313432626700,2.255626708984375,-4.142256456840038,0.6452830131847411,-4.737278697752952
1761338313442691800,2.26569189453125,-2.6763030300348993,0.6670397947017103,-4.211031302380562
1761338313452757500,2.275757568359375,-0.8745178122073411,2.1219220115900037,-3.197094205828011
1761338313462823700,2.28582373046875,0.4241331748098135,3.130402888563275,-2.1553122400164604
1761338313472888800,2.295888916015625,1.685288251647353,3.6494042583301662,-1.0442498902950434
1761338313482954800,2.305954833984375,2.8090947129338977,3.830884861074388,-0.17914938331767916
1761338313493020000,2.31602001953125,3.3181413826584816,3.9185821414887902,0.6654909578245133
1761338313503085600,2.32608544921875,3.2434722183823586,3.8592300810709594,1.4494082424566148
1761338313513151700,2.33615185546875,2.977053570804,3.7028304358303545,2.0708011884227395
1761338313523216600,2.346216552734375,2.6906951280027624,3.3839252296894786,2.396124444912374
1761338313533282800,2.35628271484375,2.520236854532361,3.0222879662811755,2.6396388945043086
1761338313543347700,2.36634765625,2.395371288457513,2.598860309392214,2.799869496209919
1761338313553413600,2.37641357421875,2.192774832448363,2.1293433937624098,2.8485744904071093
1761338313563479600,2.3864794921875,1.8617098174363373,1.867552844376117,2.76346371935457
1761338313573544700,2.396544677734375,1.301952951171994,1.831972850820422,2.4648037211239338
1761338313583611000,2.40661083984375,0.4483785582721233,1.860042322615534,2.046052385482937
1761338313593676800,2.4166767578125,-0.6452800175100565,1.9475906960785387,1.400035724261403
1761338313603741700,2.42674169921875,-1.6806453942775725,2.1788056360676884,0.6802005242437124
1761338313613807600,2.4368076171875,-2.3849217906355857,2.4697598822265863,0.05780632881317287
1761338313623872800,2.446872802734375,-2.718281638586521,2.526031512285769,-0.5015802063014358
1761338313633938700,2.456938720703125,-2.7138679137974977,2.470972472886741,-0.9185842598836869
1761338313644004900,2.4670048828125,-2.3167244527220725,2.3507661307945846,-1.243360476949811
1761338313654069800,2.47706982421875,-1.5941542747825383,2.1499963056907054,-1.3668985938131808
1761338313664135700,2.4871357421875,-0.6878028159409761,1.9000892324522136,-1.3108499588549136
1761338313674200800,2.497200927734375,0.22676117545068264,1.6590262676656244,-1.172369562795013
1761338313684266800,2.507266845703125,0.9951567004978656,1.4953443564623594,-0.9227567232627422
1761338313694332700,2.517332763671875,1.4334019872903823,1.4111033539816735,-0.5197474023612216
1761338313704397600,2.5273974609375,1.5856816299915313,1.4547192083463072,0.003753872640803456
1761338313714463700,2.537463623046875,1.6769027006179094,1.3989666337251663,0.43795262398887425
1761338313724529700,2.54752978515625,1.6968933492451905,1.2122658851798622,0.7567519220698624
1761338313734594800,2.5575947265625,1.5912410176843403,0.9201821965996175,0.977608549651876
1761338313744660700,2.56766064453125,1.3740379441738129,0.5959005581174045,1.21856440080218
1761338313754725600,2.5777255859375,1.0951923612207173,0.305576134294644,1.4501476626470684
1761338313764791800,2.587791748046875,0.8824158719807863,0.006587050240114331,1.5362619116537273
1761338313774857700,2.597857666015625,0.7420885328799486,-0.30246373789515346,1.591729531853646
1761338313784922600,2.607922607421875,0.6718465373963117,-0.5917251721289009,1.6160783756904302
1761338313794988500,2.617988525390625,0.634478637510538,-0.9477765251636504,1.6371221866324543
1761338313805053700,2.6280537109375,0.5345546204686165,-1.1912269696086644,1.654159538412094
1761338313815119600,2.63811962890625,0.45483635610938067,-1.327656716749072,1.638125080064684
1761338313825185800,2.648185791015625,0.3370481810748577,-1.446129366916418,1.59932641672343
1761338313835250700,2.658250732421875,0.1625093602925539,-1.6851744160093367,1.4438552845045924
1761338313845316600,2.668316650390625,-0.2271814466893673,-2.3852727960303426,0.5329060130113735
1761338313855382800,2.6783828125,-0.7576239556640386,-3.10139306717813,-1.2659127927586435
1761338313865447700,2.68844775390625,-1.1248661994725464,-3.5793355735868215,-3.431784420712292
1761338313875513900,2.698513916015625,-1.380753516164422,-2.851627155975997,-3.9261777111843226
1761338313885578800,2.708578857421875,-1.9071172313928604,-2.1204253432914615,-3.4848408881172537
1761338313895644700,2.718644775390625,-2.62331728977859,-1.298899993342161,-2.071240164361894
1761338313905710800,2.7287109375,-2.9263971502780914,-0.25134353578239677,-0.1389307610427495
1761338313915776000,2.73877587890625,-2.9715988125294444,0.17519268158115445,1.47887545222044
1761338313925842000,2.748842041015625,-2.92024505738914,0.2608075662309304,2.3653293475456536
1761338313935906800,2.75890673828125,-2.6765900302827355,0.30771541134566066,2.644421744866669
1761338313945973000,2.768972900390625,-2.303715333545208,0.4238889177251607,2.4624431294724345
1761338313956039000,2.779038818359375,-1.8223060278087853,0.4211764438960701,2.100622910712659
1761338313966104000,2.78910400390625,-1.402234695610404,0.24690359883988275,1.683699959542602
1761338313976170000,2.799169921875,-0.9260825797498226,0.34460838719606396,0.9304135216262192
1761338313986236000,2.80923583984375,-0.36940205219089983,0.9555998392004519,-0.008014959584805182
1761338313996301000,2.819301025390625,0.34240883132517336,1.693042080644518,-0.6259167070008814
1761338314006367000,2.829366943359375,1.1737427508443594,1.9510326532259583,-0.5547701638929545
1761338314016432000,2.83943212890625,1.7873498652398585,1.8023264850974081,-0.022952996431058272
1761338314026497800,2.849497802734375,1.7106179232150316,1.257372051167488,0.2795940997654572
1761338314036564000,2.85956396484375,1.1790180608987808,1.4009735896334052,0.3852085835339501
1761338314046628900,2.86962890625,0.8901993654638528,1.3798016222670673,0.7087248271342367
1761338314056695000,2.879695068359375,0.2650350842654705,0.8105300548128783,1.125185567620024
1761338314066760000,2.889760009765625,-0.3637707683056593,0.6212799140457064,1.2693472972519695
1761338314076825900,2.899825927734375,-0.800510911232233,1.06925661351867,1.4112800257228315
1761338314086891800,2.909891845703125,-1.2220908944278954,1.619831006222218,1.6572447910763322
1761338314096957000,2.91995703125,-1.639860379424691,1.9385992881104348,1.8193828338384628
1761338314107023000,2.930023193359375,-1.8744623315036295,1.8812422009021044,1.6401945798151194
1761338314117089000,2.940089111328125,-1.7612281665116547,1.734373477333784,1.1671047741346061
1761338314127154000,2.95015380859375,-1.3761065671414137,1.4864688299588857,0.5373033346548676
1761338314137219800,2.9602197265625,-1.0768085632681845,1.282790570062399,-0.20388934536390005
1761338314147285000,2.970284912109375,-0.6952578081220387,1.06651732474789,-1.1495749626629055
1761338314157351000,2.980350830078125,-0.07375789465010166,0.8202833139989525,-2.2419576732903717
1761338314167417000,2.9904169921875,0.5470540365576744,0.49863173175938424,-3.318653423833847
1761338314177482000,3.00048193359375,0.8056319075077771,1.1004524006407708,-3.415587319149077
1761338314187548000,3.0105478515625,1.0413479583084582,1.7740012849755584,-2.5402435775116086
1761338314197613000,3.020613037109375,1.5443874965727329,1.6409605957515536,-1.4576710438892244
1761338314207679000,3.030678955078125,1.8321610668689012,1.4127914531990884,-0.4053038250468671
1761338314217745200,3.0407451171875,1.8960025476604698,1.0265116237044334,0.2596585788588971
1761338314227809800,3.050809814453125,1.743232491093874,0.5341320111423731,0.7048453553523868
1761338314237876000,3.0608759765625,1.5504069029927252,-0.0244446140951477,0.9591028788853436
1761338314247941000,3.070941162109375,1.3705997864186763,-0.5757158482227475,0.964346990083903
1761338314258007000,3.081007080078125,1.10848497351408,-1.173798426554352,0.6377155005399138
1761338314268073000,3.091072998046875,0.65918637778759,-1.7003608792252838,-0.024757241974584756
1761338314278137900,3.101137939453125,0.03556874150931835,-2.1408986608691514,-0.987861136662215
1761338314288204000,3.1112041015625,-0.6467834078103304,-1.2545835894927382,-0.9487095682300627
1761338314298270000,3.12127001953125,-1.0839017363995314,-0.11630685043558478,0.0017615206466522068
1761338314308335000,3.131335205078125,-1.1898919216126203,0.2149557329751551,0.7271738723427057
1761338314318400800,3.14140087890625,-0.9620382747501134,0.37862536921873685,0.8869443091906607
1761338314328466000,3.1514658203125,-0.630816023349762,0.5296805116262286,0.7346127171065658
1761338314338532000,3.161531982421875,-0.4108563446074724,0.4885252021562308,0.49424350673779843
1761338314348598000,3.171597900390625,-0.12071546065807341,0.4214155133489519,0.17215230923825875
1761338314358663000,3.181662841796875,0.2357376781105995,0.2608338697159663,-0.24614220427963882
1761338314368728800,3.191728759765625,0.599642301928997,-0.015272022607550024,-0.5801634752813727
1761338314378794000,3.2017939453125,0.9303326384097337,-0.31688297959826883,-0.8102214272551238
1761338314388860000,3.21185986328125,1.2065344288557767,-0.44887500001955777,-1.1420752545572816
1761338314398926000,3.221926025390625,1.3703554562687874,-0.392679577001743,-1.632801693084836
1761338314408991000,3.231990966796875,1.3763187485873698,-0.34758221537508066,-1.976954007076472
1761338314419057000,3.242056884765625,1.3833897098869083,-0.2870466259947978,-2.1279598304495213
1761338314429122800,3.252122802734375,1.4113590823084115,-0.18526945536686107,-2.1078208593927323
1761338314439188000,3.26218798828125,1.482245220914483,-0.04264087185263633,-2.0436688513472676
1761338314449254100,3.272254150390625,1.4990747751623392,0.18953699488453565,-1.8531395574897527
1761338314459318800,3.28231884765625,1.2926350877285002,0.5262012546757235,-1.5375154188461602
1761338314469385000,3.292385009765625,1.0245394468486309,0.6350659358792007,-1.2452566659599542
1761338314479451000,3.302450927734375,0.6992904246389865,0.5996509601594879,-1.06735246039778
1761338314489516000,3.31251611328125,0.3110252665460109,0.6752036658044904,-1.0640987923640757
1761338314499582000,3.32258203125,-0.07250058806538581,0.4224030265489593,-1.183730476373434
1761338314509646800,3.332646728515625,-0.30538170770108697,0.12947311466922984,-1.3622688881859182
1761338314519713000,3.342713134765625,-0.4986906954050064,-0.17643289090059697,-1.6828167469672857
1761338314529779000,3.352779052734375,-0.8802379434198141,-0.5283436369992792,-2.164498001512885
1761338314539844000,3.362843994140625,-1.2272183204442262,-0.6905451003864407,-2.8762209144845605
1761338314549910000,3.372909912109375,-1.5465163252949714,-0.6548772824168205,-3.5595460004895925
1761338314559975000,3.382974853515625,-1.762975302439928,-0.7660394634403288,-3.953624813297391
1761338314570040800,3.393040771484375,-1.796715074956417,-0.8620608470205217,-3.9974300527542828
1761338314580107000,3.40310693359375,-1.8132786717444658,-0.7676543512910604,-3.8561543268874283
1761338314590172200,3.413172119140625,-1.791920241895318,-0.27587321607880294,-3.3840245984107256
1761338314600237800,3.42323779296875,-1.583537603700161,1.108752830670029,-2.0166148402050137
1761338314610304000,3.433303955078125,-1.440534323388338,1.5512312249876559,-0.5612675996208563
1761338314620369000,3.443368896484375,-1.378455760616064,1.530375630094111,0.38188378649279475
1761338314630435000,3.45343505859375,-1.064510222709179,2.5450842955410478,1.3988922533147037
1761338314640500000,3.4635,-0.6199719732522964,3.074961864109337,1.9758409312680363
1761338314650566000,3.47356591796875,-0.4006768958985805,2.520933896885812,1.8144275495186446
1761338314660631800,3.4836318359375,-0.001830138036608696,1.8979734093420206,1.3126241289205849
1761338314670697000,3.493697021484375,0.5208469976335763,1.4482394909381866,0.6857130771201103
1761338314680763000,3.503762939453125,0.8432090662300586,0.9229260154150426,0.27408297166116535
1761338314690829000,3.5138291015625,0.837234667995572,0.5637286194395273,0.09001180443447082
1761338314700894000,3.52389404296875,0.41466684280633925,0.5615146697171032,-0.1717496101888828
1761338314710959900,3.5339599609375,-0.27524668167829514,1.1351871024787425,-0.3941810676058754
1761338314721025000,3.54402490234375,-1.309758071964979,1.8639973438516257,-0.05071951235737651
1761338314731091000,3.554091064453125,-2.34589794023633,1.8239619783222674,0.6312206586278974
1761338314741157000,3.5641572265625,-2.901678888607025,1.8717615481123326,0.6908801775597035
1761338314751222000,3.574221923828125,-2.442148821723461,2.680686359685659,0.01620448115207255
1761338314761288000,3.584287841796875,-0.9512480006664991,2.930925149096548,-0.7258642510488629
1761338314771353000,3.59435302734375,0.7666384522467852,2.3976971010565755,-0.6093950131257996
1761338314781419000,3.6044189453125,2.130298794791102,1.699799153689295,-0.11612066194741055
1761338314791485200,3.614485107421875,2.949471736395359,1.2316351139731705,0.11671460925256832
1761338314801549800,3.6245498046875,3.2809570226460694,1.1888825984396039,0.31106106851175425
1761338314811616000,3.634615966796875,3.4238521664083,1.2099541741713882,0.664465706430003
1761338314821682000,3.644681884765625,3.527580251908302,1.2722335202127695,0.7957411395471543
1761338314831747000,3.6547470703125,3.5497780551910396,1.2500783870279788,0.8250522089011967
1761338314841812700,3.664812744140625,3.3780098681658504,1.0258679189734161,0.6803638981118798
1761338314851878000,3.6748779296875,2.9357290422469378,0.7025559292409569,0.24418518846035003
1761338314861944000,3.684944091796875,2.0594933202058074,0.5686283741798251,0.050427361010387535
1761338314872010000,3.695010009765625,0.8753098393678664,0.6028341933054849,0.44284240532442926
1761338314882075100,3.7050751953125,-0.2750719096332788,0.6298994930267333,1.2626895929284394
1761338314892140800,3.715140869140625,-1.4760504579275846,0.7600098278872668,1.8769874660670756
1761338314902206000,3.7252060546875,-2.5213714115202426,0.9833292653862387,1.984524880722165
1761338314912271600,3.735271728515625,-3.3925720620036124,1.1375832038350402,1.7766145362138748
1761338314922337500,3.745337646484375,-4.040011303374171,0.6588966010607779,1.3682923862591385
1761338314932402400,3.75540234375,-4.220902708053589,-0.10212941813170909,0.9569473082866519
1761338314942468400,3.76546826171875,-3.943187590435147,0.15856462298845872,0.9302810543529689
1761338314952533500,3.775533447265625,-3.2035867827177045,0.3585355710659176,0.8609532511048018
1761338314962599400,3.785599365234375,-2.2257494658112527,0.4332262895867228,0.7036539536107331
1761338314972665600,3.79566552734375,-1.3029793716102838,0.4909441363988444,0.40508214512020346
1761338314982730500,3.80573046875,-0.5192910003632307,0.21648772831540553,0.205834634212777
1761338314992796400,3.81579638671875,-0.07949731508493423,-0.07007990025710314,0.13136143090017138
1761338315002861600,3.825861572265625,0.0020785598397254942,-0.23681361851273103,0.16282251789495347
1761338315012927500,3.835927490234375,-0.05604337426126003,-0.4101658781252801,0.215566010360606
1761338315022993700,3.84599365234375,-0.03972469214498996,-0.5213356944659725,0.2085233983727172
1761338315033058300,3.856058349609375,-0.01177227085828781,-0.4696781340735033,0.3073539210895076
1761338315043124500,3.86612451171875,0.028560324051976203,-0.3005129326209426,0.34841439188290385
1761338315053190400,3.8761904296875,0.20656126798689364,0.03672726389467716,0.22805866791531443
1761338315063255600,3.886255615234375,0.36915596847534177,0.3555826760770753,-0.1455322873327881
1761338315073321200,3.8963212890625,0.5902145483702421,0.6127471730979159,-0.5251950733078643
1761338315083386400,3.906386474609375,1.00417528873384,0.8366944236390292,-0.8447367872539907
1761338315093452500,3.91645263671875,1.489904795756936,0.39568186409026385,-1.6012586999602616
1761338315103518500,3.9265185546875,2.080884483280778,-0.33152503373920916,-2.695325418151915
1761338315113583600,3.93658349609375,2.5682746169924733,-0.9919415378436446,-3.5594279270678757
1761338315123649300,3.946649169921875,2.6926234657168386,-1.291252839589864,-3.410249757513404
1761338315133714400,3.95671435546875,1.9265408937871455,-1.451220844836533,-2.2421599178642033
1761338315143780400,3.9667802734375,0.6357236691355704,-1.447046774022281,-1.011079003707692
1761338315153846500,3.976846435546875,-0.3858785552173853,-1.0855666008718312,-0.40509149747043843
1761338315163911400,3.986911376953125,-0.9394681310236453,-0.7515865751959383,-0.5053205984061584
1761338315173977300,3.996977294921875,-1.0641028109520674,-0.7477227393746375,-0.9008974312193692
1761338315184043500,4.00704345703125,-0.71146250846982,-0.8841054325029254,-1.3757315963491796
1761338315194108400,4.0171083984375,-0.7129968784302473,-0.8747741981212049,-1.3317238200575112
1761338315204173600,4.027173583984375,0.18195231190919875,-0.8433212944328784,-1.7078724238991736
1761338315214239200,4.0372392578125,0.9716495681822299,-0.9391542427688836,-2.0791380780048665
1761338315224304400,4.047304443359375,1.3915747699081897,-1.025382035152614,-2.225610934123397
1761338315234370600,4.05737060546875,1.7394225774168968,-1.0012024834681301,-2.0340064122498034
1761338315244436500,4.0674365234375,1.7577338946551084,-0.9001083997335284,-1.8421081681266427
1761338315254501400,4.07750146484375,1.7436597765952349,-0.6634537529084831,-1.4420090721160173
1761338315264567300,4.0875673828125,1.42969494946599,-0.48173437297232446,-1.1580397164084018
1761338315274632400,4.097632568359375,1.0723626897752285,-0.4157034558450803,-0.959524757559225
1761338315284698400,4.107698486328125,0.6990630456238984,-0.3988790161637589,-0.7251508420825005
1761338315294764500,4.1177646484375,0.29592881970107554,-0.31607224773727355,-0.3681434669645503
1761338315304829400,4.127829345703125,-0.3055634940087795,-0.20933529927749187,-0.13221149012455716
1761338315314895400,4.137895263671875,-1.1471376525133847,0.20794705978948622,-0.13147696530492975
1761338315324961500,4.14796142578125,-2.10779236395061,0.6528777791626751,-0.4941766155140474
1761338315335026400,4.1580263671875,-2.4160604407429696,1.0234843848377466,-0.43172520084138954
1761338315345092600,4.168092529296875,-2.194173593330383,1.0090301814191043,-0.24217012231089174
1761338315355157200,4.1781572265625,-2.0879846706748006,1.2711571231529115,-0.5481498689703643
1761338315365223400,4.188223388671875,-1.8944044648140668,0.9651925009973347,-0.41899603111706674
1761338315375289300,4.198289306640625,-1.8497271186977624,0.2991460099156014,0.29454516505664213
1761338315385354500,4.2083544921875,-2.089710763815045,-0.030561160746682435,1.1289536149166524
1761338315395420700,4.218420654296875,-2.2364356949985025,0.05643240097831003,1.6136521714568137
1761338315405485300,4.2284853515625,-2.3706027579039333,0.3457774309754371,1.8086407828107476
1761338315415551500,4.238551513671875,-2.5113831014692782,0.4950939860872924,1.6862594347670674
1761338315425617400,4.248617431640625,-2.488237203681469,0.6142434395376593,1.2030617112439126
1761338315435682600,4.2586826171875,-1.9636942741394041,0.9717166420690715,0.5177615623062476
1761338315445748500,4.26874853515625,-1.1252239268690347,1.293365593960136,0.03930011005736887
1761338315455814400,4.278814453125,-0.11786767001152038,1.619247653376311,-0.5026534250235185
1761338315465879600,4.288879638671875,0.8810054206609725,2.151068611097336,-0.6479992133408784
1761338315475945500,4.298945556640625,1.5701152275472878,2.2728072773233055,-0.6330690629735589
1761338315486010600,4.3090107421875,1.4923445901244878,1.9987625187806783,-1.2412971146792173
1761338315496076300,4.319076171875,1.2079238373875618,2.1578103404425084,-1.5369348424792288
1761338315506142500,4.329142578125,1.0853379066824913,2.319361230966449,-1.47150872284472
1761338315516207400,4.339207275390625,0.9660200378626584,2.4547455607071518,-1.1783460799213499
1761338315526273500,4.3492734375,0.6766945619493723,2.6645816125810144,-0.9386825336039065
1761338315536338700,4.359338623046875,0.39948271767795085,2.6371771805658937,-0.7385619661889969
1761338315546404400,4.369404296875,0.13880816670954227,2.0204211006201804,-0.32750673800855873
1761338315556470300,4.37947021484375,-0.1485796191394329,1.3953817609757184,0.1828679654493928
1761338315566535400,4.389535400390625,-0.6796084035694598,1.324055185125768,0.6914511823806911
1761338315576601600,4.3996015625,-1.1967916179984808,1.264170040744543,1.14246074674353
1761338315586666200,4.409666259765625,-1.45308225479424,0.9261218888469039,1.3105110822893677
1761338315596732400,4.419732421875,-1.498985343313217,0.5146208896603435,0.7901397393435239
1761338315606798300,4.42979833984375,-1.262446870213747,0.198171935831476,-0.26066919893985613
1761338315616864500,4.439864501953125,-0.18140344585478305,0.09326001084176823,-1.8055198743112384
1761338315626929400,4.449929443359375,0.39733401521146294,0.1871451130456291,-1.8913854092538356
1761338315636995600,4.45999560546875,0.711736649236083,0.5518051035422832,-1.3783423633694647
1761338315647061200,4.470061279296875,0.7516156551599502,0.9820483587302267,-0.7876738606866449
1761338315657126400,4.48012646484375,0.7206359950065613,1.2676966074354945,-0.5029177750481292
1761338315667192600,4.490192626953125,0.6406044269144535,1.3893053636714816,-0.5578521286215633
1761338315677257500,4.500257568359375,0.6186836870074272,1.399685741779953,-0.7160165185123681
1761338315687323600,4.51032373046875,0.7290531102180481,1.3376901811160147,-0.794179735449329
1761338315697389300,4.520389404296875,0.9262941766738891,1.3086096325822174,-0.807462776196748
1761338315707454500,4.530454345703125,1.1269283926993607,1.1653869373660535,-0.7634202939178795
1761338315717520400,4.540520263671875,1.244037353298068,0.749045731606707,-0.6720118109606206
1761338315727585500,4.55058544921875,1.2378946127593518,0.45223074018824844,-0.6022116774929687
1761338315737651500,4.5606513671875,1.2627449763774872,0.4516599180303514,-0.6464847171247005
1761338315747717400,4.57071728515625,1.3560586353689432,0.48040685069561,-0.8465947631455958
1761338315757782500,4.580782470703125,1.5569798516422508,0.3233362839234993,-1.0887672966092825
1761338315767848400,4.590848388671875,1.7893425003618,0.06737065043156035,-1.3519916781909762
1761338315777914600,4.60091455078125,1.9159791677623985,-0.12186822915608063,-1.5965613359242676
1761338315787979300,4.610979248046875,1.8674913234472275,-0.24730785052552817,-1.7005729145407675
1761338315798045400,4.62104541015625,1.7475526923805473,-0.5361259249059483,-1.675591179627925
1761338315808110600,4.631110595703125,1.5394576389551162,-0.8050335032232105,-1.6490885187581181
1761338315818176500,4.641176513671875,1.204098141619563,-0.8447727353502065,-1.5480067099831998
1761338315828242400,4.651242431640625,0.5871358715772629,-1.060408924870193,-1.4203515131898223
1761338315838307300,4.661307373046875,-0.4312848001301288,-1.3304133219808338,-1.2525133590899407
1761338315848373500,4.67137353515625,-1.618519485232234,-1.5557827508121729,-1.1646436447180808
1761338315858438400,4.6814384765625,-2.7265742506355046,-1.7074314021334052,-1.311302378797531
1761338315868504600,4.691504638671875,-3.5547172651588914,-1.6560637645982206,-1.6707425705529748
1761338315878570500,4.701570556640625,-3.8966941348075865,-1.5080425099939108,-2.0418913202807305
1761338315888635400,4.711635498046875,-3.8994127461165187,-1.3791412586621938,-2.0170986781992015
1761338315898701300,4.721701416015625,-3.6369004583269358,-1.2338773399420082,-1.0768627046082169
1761338315908768000,4.73176806640625,-3.0144191326022147,-0.6852788504213094,0.36520452743582427
1761338315918833000,4.7418330078125,-2.3197698117673395,-0.24067677848059682,1.74810258134827
1761338315928899000,4.751899169921875,-1.7213561748504638,0.2990409238396212,2.806116573905945
1761338315938964000,4.7619638671875,-1.0792764146864413,0.4519171076618135,3.150821114952862
1761338315949030000,4.77202978515625,-0.6147691439121962,0.12304224137151613,3.296269158068299
1761338315959096000,4.782095947265625,-0.24933015013337134,-0.847614826908335,3.2543431564867493
1761338315969161000,4.792160888671875,-0.07515607101023197,-1.972048991639167,2.976489799441397
1761338315979227100,4.80222705078125,-0.5869143377810716,-2.447751464036107,1.9468299408391117
1761338315989292000,4.8122919921875,-1.442833832502365,-1.8854881679087876,-0.021377938267216085
1761338315999358000,4.82235791015625,-2.321374908876419,-1.9144445055410264,-3.032397856885195
1761338316009424000,4.832423828125,-3.0222289295703173,-1.6440893952965736,-6.414232836297154
1761338316019489000,4.842489013671875,-2.6859587471306323,-0.6922681247867644,-8.044272078931332
1761338316029555000,4.852554931640625,-1.2954466380178928,0.051708139802236104,-6.4678668113291256
1761338316039620900,4.862620849609375,0.221930102032423,0.37179950525406746,-3.3073020087361336
1761338316049686000,4.87268603515625,0.9867010068416595,0.8080459098469466,-0.8756877327695488
1761338316059752000,4.882751953125,1.205330898284912,1.3635995522677897,0.7187080956839025
1761338316069817000,4.892817138671875,0.9985919356435536,1.6656512387633322,1.830728695978224
1761338316079882800,4.9028828125,1.0083943677335976,1.8758323046825824,2.378278114837408
1761338316089949000,4.912948974609375,1.383017369443178,2.110349354957044,2.470249127048254
1761338316100014000,4.92301416015625,1.9613497568398712,1.965719204095751,2.4525948124140498
1761338316110080000,4.933080078125,2.675897371843457,1.6324037798084319,2.5288357560515404
1761338316120145000,4.943144775390625,3.3722523275524376,1.2100472592823206,2.4008640406548976
1761338316130210800,4.9532109375,3.9827883639395236,0.8400427111536264,2.0835608628831803
1761338316140277000,4.963277099609375,4.249203504386544,0.6875341550674289,1.7770478130646048
1761338316150342000,4.973341796875,4.173091740086674,0.5960260841932148,1.2821606015957892
1761338316160408000,4.983407958984375,3.831869488197565,0.5261971264898777,0.8481864893164485
1761338316170473000,4.993472900390625,3.1076234860002994,0.5730770972169935,0.912810425722599
1761338316180539000,5.003538818359375,2.2828724520027635,0.3736099156768992,0.9535865266166627
1761338316190604800,5.013604736328125,1.396098969334364,0.2585522250521928,0.7539116571426391
1761338316200670000,5.023669921875,0.5455711045235395,0.03259681302644312,0.3119971072528511
1761338316210736000,5.033736083984375,-0.06270867736935615,-0.2619454842196777,-0.042584100164100525
1761338316220802000,5.043802001953125,-0.43850013833642004,-0.4794309914007783,-0.29740473747253415
1761338316230867000,5.053866943359375,-0.6932289326429366,-0.6615527415927499,-0.5279353484593331
1761338316240932900,5.063932861328125,-0.9122656513214111,-0.7703776387751102,-0.5736210679005831
1761338316250998000,5.073998046875,-1.084129699936509,-0.6545240850649774,-0.4750120789799839
1761338316261064000,5.08406396484375,-1.2164607795864344,-0.38002500688359137,-0.45218912953622636
1761338316271129900,5.0941298828125,-1.3152502396404742,-0.13769629647750406,-0.44856326718926426
1761338316281195000,5.104195068359375,-1.2539374005436896,-0.07379740467658266,-0.4568466730184853
1761338316291261000,5.114260986328125,-1.0420634131014346,-0.07793273264933377,-0.48648763191401956
1761338316301326000,5.124326171875,-1.1066320391237736,-0.08457640844751149,-0.6951997943244874
1761338316311392000,5.13439208984375,-1.0493722748100758,-0.14694270211998373,-0.9427551168050616
1761338316321458000,5.1444580078125,-0.9493722699224948,-0.18208656928073613,-1.281374858045578
1761338316331522800,5.154522705078125,-0.606488806822896,-0.3120482529181987,-1.5549555062077938
1761338316341589000,5.164589111328125,0.1260094754129648,-0.9303354148887097,-1.7888126312687993
1761338316351655000,5.174655029296875,0.9618763621866703,-1.0533023808006197,-1.714999791561067
1761338316361719800,5.1847197265625,1.5020266107052564,-1.0230882251270115,-1.6155591741219162
1761338316371786000,5.194785888671875,1.375264855620265,-0.8672994052611291,-1.270938950357586
1761338316381851000,5.204850830078125,0.3174900786459446,-0.4171685964941978,-0.4770528640925884
1761338316391917000,5.2149169921875,-0.7394529236793518,0.018142974933981895,0.280670825618878
1761338316401983000,5.22498291015625,-1.0616232690960168,0.37347558524012564,0.9192606247752905
1761338316412048000,5.2350478515625,-0.7277648239731789,0.5549804091101512,1.2230959798172116
1761338316422113800,5.24511376953125,-0.02420855858325958,0.5432559594489633,1.226610709939897
1761338316432179000,5.255178955078125,0.7746177605628967,0.030830680136755106,0.7442528713069856
1761338316442245000,5.2652451171875,1.3491513401985167,-1.0824894584488123,-0.4608760015998035
1761338316452311000,5.27531103515625,1.7299182514905929,-1.8696552234828472,-1.882385817979276
1761338316462376000,5.2853759765625,2.0193734912633894,-1.8059297702863812,-3.11506328061223
1761338316472441900,5.29544189453125,1.6198597939252852,-2.2551702060848475,-3.54398748909086
1761338316482507000,5.305507080078125,0.19053893846869469,-2.9045632118716833,-3.419694169946015
1761338316492573000,5.315572998046875,-0.9594657939136028,-1.5010709174156187,-3.783987208560109
1761338316502639000,5.32563916015625,-1.571918477576971,-0.1785124736536294,-4.400654879570007
1761338316512704000,5.3357041015625,-1.7976316052794454,-0.4193110153503716,-3.4314237707063553
1761338316522770000,5.34577001953125,-1.5994406907528638,-0.7837872285116464,-2.07150845990926
1761338316532835800,5.3558359375,-1.2056044545292854,-0.7929152684714644,-0.9037620268702506
1761338316542901000,5.36590087890625,-1.0746709667176007,-0.8548433899223804,-0.16535400913394988
1761338316552967200,5.37596728515625,-1.1225976700186728,-0.824112443833053,0.19137991933748125
1761338316563031800,5.38603173828125,-1.0760761573404074,-0.8021519564375281,0.3536957298193127
1761338316573098000,5.396097900390625,-1.1213047075986862,-0.5858166787374764,0.6256566678252071
1761338316583164000,5.406163818359375,-1.1981360183447598,-0.23369302054047583,1.1176165936704725
1761338316593229000,5.41622900390625,-1.0857850659281014,0.2124146701902151,1.531324893642962
1761338316603295000,5.426294921875,-0.8884060523062944,0.6363315719008446,1.7168547717779874
1761338316613359900,5.43635986328125,-0.775284700039029,0.375969995871745,1.757806521499902
1761338316623426000,5.446426025390625,-0.80806994830966,-0.15544263677671552,1.9545012061193585
1761338316633492000,5.456491943359375,-0.8235428272515535,-0.5123537484459578,1.99925863173455
1761338316643557000,5.46655712890625,-0.9733704006254672,-0.37565548656247555,1.8800617589458821
1761338316653622800,5.476622802734375,-1.6213146689087152,0.13073862282671034,1.8925085680648683
1761338316663689000,5.48668896484375,-2.5900989107877015,0.757316351019591,2.2179415685392914
1761338316673753900,5.49675390625,-3.74053092867136,0.9638757193103432,1.969616065403819
1761338316683820000,5.506820068359375,-4.468191707748175,1.2437737339258192,0.7879603494778274
1761338316693885000,5.516885009765625,-4.412168791753054,1.669182335498929,-0.3306909575352445
1761338316703950800,5.526950927734375,-3.782196818011999,1.8901810019001364,-0.6398663218982518
1761338316714017000,5.53701708984375,-2.8067192159742116,1.9151982465177773,-0.2835389101347886
1761338316724082000,5.54708203125,-1.6998574597477911,1.9713222847998142,0.3001087905331515
1761338316734148000,5.557148193359375,-0.5921218432962894,2.2095894813880324,0.5987094780582934
1761338316744213000,5.567212890625,0.3343950362175703,2.38484419535473,0.5410027371620759
1761338316754279000,5.57727880859375,1.2654782007336616,2.211341585752368,0.21322383114863186
1761338316764344800,5.5873447265625,2.304690316057205,1.9355837396815418,-0.3981025153659284
1761338316774410000,5.597409912109375,3.112254652932286,1.6971311035238206,-0.7008765978518873
1761338316784476200,5.60747607421875,3.5484324858009813,1.2552126811765134,-0.5263716062739491
1761338316794540800,5.617540771484375,3.749618490490317,0.9765238231550901,0.006712329720752313
1761338316804607000,5.62760693359375,3.7063621170878407,0.8714332171302288,0.5857466822411864
1761338316814673000,5.6376728515625,3.4275966136336327,0.8144920172464102,1.124081040444225
1761338316824738000,5.647738037109375,2.8343495656996964,0.7526083194591104,1.5302655938483773
1761338316834804000,5.657803955078125,1.924852210047841,0.7168851180404424,1.6558153427951037
1761338316844870000,5.667869873046875,0.8355044832020998,0.604935841759853,1.4382202012270688
1761338316854935000,5.67793505859375,-0.14595862298607826,0.65821877486445,1.066059059586376
1761338316865001000,5.6880009765625,-0.9085591980189085,0.7139083672519773,0.7150088027745485
1761338316875066000,5.698066162109375,-1.4570698631256818,0.714939317734912,0.3583706993604079
1761338316885132000,5.708132080078125,-1.7454641956686971,0.5731968511391431,-0.016663958739850205
1761338316895198000,5.718197998046875,-1.6426754368454217,0.40271015529185533,-0.42524438745472576
1761338316905262800,5.728262939453125,-1.3549182331621645,0.18768230692856014,-0.8108251653019338
1761338316915328000,5.738327880859375,-0.9892916078567504,-0.020023381853103636,-1.0704920005325227
1761338316925393200,5.74839306640625,-0.5224655387461186,0.04341214848607778,-1.1408432285442949
1761338316935458800,5.758458740234375,-0.02792085710465908,0.1458204566244036,-0.9667491558548063
1761338316945525000,5.76852490234375,0.5016711725205183,0.19380977683290837,-0.7669410153899341
1761338316955590000,5.77858984375,1.04772333855927,0.27399277262706306,-0.6894907690279185
1761338316965656000,5.788656005859375,1.6696552137076854,0.34934871359094977,-0.6008996085137128
1761338316975721000,5.798720947265625,2.268557510924339,0.44651678298823533,-0.44423842626009136
1761338316985787000,5.808786865234375,2.7174527865469456,0.4721314455097541,-0.33405922839194535
1761338316995853000,5.81885302734375,2.985342675721645,0.22058000259771943,-0.40770803664438426
1761338317005918000,5.82891796875,2.906712791121006,0.0036351416319608688,-0.4325941656956449
1761338317015984000,5.838984130859375,2.4971716207653283,-0.2851637165913358,-0.5173005937309936
1761338317026050000,5.849050048828125,1.8939596436560153,-0.39592674222942437,-0.5194342447588219
1761338317036115000,5.859114990234375,1.107923832499981,-0.5984197743967176,-0.7235067281372844
1761338317046180900,5.869180908203125,0.3968225585579872,-0.8619953075036406,-1.2703138041965663
1761338317056246000,5.87924609375,-0.043432899013161656,-1.121889375618845,-2.101642463018745
1761338317066312200,5.889312255859375,-0.34063539191186426,-1.4600855576850473,-3.4319118464842435
1761338317076378000,5.899378173828125,-0.5695826792299747,-1.3927221863776444,-4.591875955083966
1761338317086443000,5.909443115234375,-0.9983072734832763,-1.372784144720435,-5.037505506908893
1761338317096509000,5.919509033203125,-1.5424129816293715,-1.135127992702648,-4.713365614984929
1761338317106574000,5.929573974609375,-2.0029875891298055,-0.4968137956172228,-3.498650217761099
1761338317116640000,5.939639892578125,-2.4010738840132952,-0.28766455696374177,-2.127113296622783
1761338317126706000,5.949705810546875,-2.668257670745253,-0.11980170681402086,-1.0199049919810146
1761338317136771000,5.95977099609375,-2.9018495689988133,0.23306034866012632,-0.2196166009256616
1761338317146837000,5.9698369140625,-2.7924527902126313,0.6220667535744607,0.4601892249120399
1761338317156902100,5.979902099609375,-2.3931629647582766,0.7211122342161834,1.0707982169374823
1761338317166968000,5.989968017578125,-2.1102140381395817,0.37070728957057,1.3643917255587874
1761338317177034000,6.000033935546875,-1.7907845158636568,0.08152553297691047,1.3207596507117152
1761338317187099000,6.010098876953125,-1.3882511784434317,-0.12055924718305468,0.9130858816631138
1761338317197165000,6.0201650390625,-0.7398042213350534,0.44577166370935734,0.5267880050551146
1761338317207231000,6.03023095703125,-0.05465279668569564,0.295894332909584,0.5436871174078435
1761338317217296000,6.0402958984375,0.7054284890025854,0.32430293699856844,0.4561150342756882
1761338317227361800,6.05036181640625,1.4319716622263192,1.1938253155387937,0.4465862680278718
1761338317237427000,6.060427001953125,1.5761702898025511,1.165714342689514,1.0771797346681355
1761338317247493000,6.0704931640625,1.43189567438066,0.6813224409457296,1.5433384259112177
1761338317257559000,6.08055908203125,1.4107283831894397,0.5841738799665123,1.270447513578832
1761338317267624000,6.0906240234375,1.3261094873070716,0.753129055397585,0.7288553956888616
1761338317277689900,6.10068994140625,1.0388690009742974,0.6824494722142815,0.287173193250224
1761338317287755000,6.110755126953125,0.49927989346981044,0.3936742871275171,0.2076531914094463
1761338317297821000,6.120821044921875,-0.29029052155315876,0.7434162743523717,0.20136234763693064
1761338317307887000,6.13088720703125,-2.118807094439864,1.4940534398689864,0.1513414120029658
1761338317317952000,6.140951904296875,-4.8063259304940695,0.8062333805322647,-0.6473777935069054
1761338317328018000,6.151017822265625,-6.44706484631896,-0.13851495591662824,-2.6657041868701574
1761338317338084000,6.161083984375,-6.235369722574949,0.3422165966887027,-4.3131092825859785
1761338317348149000,6.17114892578125,-4.871064652386307,0.6908763051021843,-3.7966815626993773
1761338317358215200,6.181215087890625,-2.8632179327875376,0.9707160867244005,-1.4196796052776277
1761338317368279800,6.19127978515625,-0.8915513645946979,1.8961711822256444,0.6165444830216467
1761338317378346000,6.201345947265625,0.6865642140567302,2.500659755142033,1.4961695552401244
1761338317388412000,6.211411865234375,1.9007956271559,2.585334180603921,1.8316738678738473
1761338317398477000,6.22147705078125,2.9580928497463463,2.453299161291122,2.048494810198992
1761338317408543200,6.231543212890625,3.812024385520816,2.1430318735055622,2.2470064811125394
1761338317418607900,6.24160791015625,4.449707956552505,1.7976012101411818,2.3604376299813388
1761338317428674000,6.251674072265625,4.921441671448946,1.5306521089479326,2.1595761810712517
1761338317438740000,6.261739990234375,5.200798126533627,1.451530349177122,1.663176957604289
1761338317448805000,6.27180517578125,5.175801047921181,1.4228680260553954,1.190682998925075
1761338317458870800,6.281870849609375,4.872582655733823,1.2863067614898085,1.0184962211616337
1761338317468936000,6.29193603515625,4.2955461533665655,1.096821423727274,1.2335232658073305
1761338317479002000,6.302002197265625,3.3361066629379987,0.9353406027648598,1.6578592697128653
1761338317489068000,6.312068115234375,2.1179928554475307,0.8368377045672386,2.0326048748888073
1761338317499133200,6.32213330078125,0.9730758015930652,0.8553662447527051,2.2070688768692315
1761338317509198800,6.33219873046875,-0.09323825566768645,1.1240537140458822,1.749490236314386
1761338317519265000,6.34226513671875,-1.3051941250503063,1.6966326524823903,0.8513163848400116
1761338317529330000,6.352329833984375,-2.859265395769477,1.8365473191291093,0.13956626420100218
1761338317539396000,6.36239599609375,-4.265421064215898,1.134597392957285,-0.35507074449956416
1761338317549461000,6.3724609375,-4.869758245962858,0.9091292529918253,-1.1104735169827937
1761338317559527000,6.38252685546875,-4.601083343890309,1.0338704620346426,-2.168361252812296
1761338317569592800,6.3925927734375,-3.748257139009237,1.0164135696686805,-2.8535908572643995
1761338317579658000,6.402657958984375,-2.768759779936075,0.8439115154109895,-2.8679861701026557
1761338317589724200,6.41272412109375,-1.5995008965075015,0.7599478685669601,-2.437241760459542
1761338317599788800,6.422788818359375,-0.5245049356192351,0.7380125156126915,-1.9384775614269076
1761338317609855000,6.43285498046875,0.3657821081280708,0.5998116306139156,-1.4634091491498051
1761338317619921000,6.4429208984375,1.0790040274858475,0.44428091369494793,-0.8456862699985503
1761338317629986000,6.452986083984375,1.5889590442270038,0.31950635037180036,-0.3203380884882063
1761338317640052000,6.463052001953125,1.874028616261482,0.2593152087813243,-0.008315627598389982
1761338317650118100,6.4731181640625,2.006235192748904,0.21360738710612057,0.08375329202897847
1761338317660183000,6.48318310546875,2.0266665708810088,0.09326574646281077,0.15467013630056753
1761338317670249000,6.4932490234375,1.96422443549335,-0.07011071095389779,0.41367936613894996
1761338317680314000,6.503314208984375,1.4877894110381602,-0.1513672314308118,0.8365140255708247
1761338317690380000,6.513380126953125,0.8314607607692479,-0.24347649220172315,1.0478309636522083
1761338317700446000,6.523446044921875,0.3471095563620329,-0.38519031722489744,1.0124068913105875
1761338317710510800,6.5335107421875,0.02202127767205238,-0.5644310686204582,0.5255405988099053
1761338317720577000,6.543576904296875,-0.10074527029693126,-0.8993304010983556,-0.25318635063748807
1761338317730642200,6.55364208984375,-0.09422200600802898,-1.3225056175962089,-1.1858490028973667
1761338317740708000,6.5637080078125,-0.05340367340743542,-1.5750791335649788,-2.133675577747822
1761338317750774000,6.57377392578125,-0.044645197412371634,-1.6610200718313455,-2.8157886576145885
1761338317760839000,6.5838388671875,-0.051554830670356745,-1.7875015486702321,-2.9821342350691555
1761338317770905000,6.593905029296875,-0.015478724160790443,-1.7437420480512082,-2.7321470823317764
1761338317780970000,6.603969970703125,-0.10525485667586326,-1.4218426285304129,-2.365109421184659
1761338317791036000,6.614035888671875,-0.3366688263684511,-0.9985787839010357,-1.7335718055620788
1761338317801101800,6.624101806640625,-0.5347480972141028,-0.6104884343856946,-0.8143535586237907
1761338317811167000,6.6341669921875,-0.564554037413001,-0.3688036479063332,0.1964759273022413
1761338317821233200,6.644233154296875,-0.5927794304221868,-0.1798275017749518,1.056599741845578
1761338317831298000,6.654298095703125,-0.6179430977731942,-0.05217303563393652,1.6293036218360066
1761338317841364000,6.664364013671875,-0.6581815846592187,0.1863170464573428,1.9504513462066648
1761338317851430000,6.674429931640625,-0.7650771942794322,0.3231218374552205,2.0518024734422564
1761338317861495000,6.6844951171875,-0.9250655116617679,0.2145494171965867,1.9271008657574653
1761338317871561000,6.69456103515625,-1.0883218909293413,0.11567973151318728,1.5031471391677855
1761338317881627100,6.704627197265625,-1.0818541562199593,0.44512777631524947,1.0015759198904037
1761338317891692000,6.714692138671875,-0.9098463152199983,1.173821661299467,0.697179935291037
1761338317901758000,6.724758056640625,-0.6137713650465011,1.7340562280781566,0.45747477832157163
1761338317911824000,6.734823974609375,-0.05027297416627407,1.325982792187482,0.24358718603458254
1761338317921889800,6.744889892578125,0.6412286962926388,1.0530396382112055,0.3675110508125275
1761338317931955700,6.754955810546875,0.9087456605017185,0.9385962435599416,0.46939036664068695
1761338317942020900,6.765020751953125,0.49260582253336904,0.8932741697993128,0.2775478347601369
1761338317952087000,6.775087158203125,-0.27792613002061844,0.888936871247366,0.20179836443401872
1761338317962151700,6.785151611328125,-1.1350643528819084,0.9168899501211941,0.7062638438481837
1761338317972217900,6.7952177734375,-2.0070587840914724,1.1084979060608893,1.5785022398814559
1761338317982283800,6.80528369140625,-3.004492197349667,1.8552642945587634,2.4737895761340853
1761338317992349000,6.815348876953125,-3.868719501689076,2.6525492294818163,3.1606767385348675
1761338318002414800,6.825414794921875,-4.200266162738203,3.456238770750165,3.570942131511867
1761338318012480800,6.835480712890625,-3.766244046598673,4.00267555219233,3.235755652655661
1761338318022546000,6.8455458984375,-2.839963898450136,4.085035270971059,2.3099143343158066
1761338318032611800,6.85561181640625,-1.6755962941944598,3.906157544201612,1.4882640428125857
1761338318042677000,6.865677001953125,-0.3905132292807102,3.6868493151053783,0.7149135257065296
1761338318052742700,6.87574267578125,0.9852934781312942,3.271056098617613,-0.49674697745870794
1761338318062808800,6.885808837890625,2.3127374289125204,2.6951491848021742,-1.984343971197307
1761338318072873700,6.895873779296875,3.2753631481617687,2.321692304262519,-3.0756863789916036
1761338318082940000,6.90593994140625,3.5941514499247074,1.9350474408477543,-3.5619893019884823
1761338318093005000,6.916005126953125,3.6218899361997843,1.9117342236690222,-3.4449078139185905
1761338318103070700,6.92607080078125,3.5045296311885115,2.0750959630072114,-3.40482042594105
1761338318113137000,6.936136962890625,3.1757156099736688,2.212603276251256,-3.073140493901074
1761338318123201800,6.946201904296875,2.6653853301793333,2.2124238280311226,-2.3139856754079458
1761338318133268000,6.95626806640625,2.1254174524903298,1.9878432114899158,-1.407961841085553
1761338318143334000,6.966333984375,1.4325328032404183,1.7454165571346878,-0.5527225106481463
1761338318153398800,6.976398681640625,0.5203723658591508,1.4232238537557422,0.23476390117499976
1761338318163464700,6.986464599609375,-0.5405260960936547,1.1340846211295574,0.7725510372914374
1761338318173529900,6.99652978515625,-1.5952824020296335,0.9535276360362768,1.028907651995495
1761338318183595800,7.006595703125,-2.3252543806582686,0.9328981049835682,1.1867363801911472
1761338318193662000,7.016661865234375,-2.65933143696785,1.0322982442818582,1.2308943786084652
1761338318203726800,7.026726806640625,-2.604121006399393,1.1811784538030623,1.2709155694819987
1761338318213792800,7.036792724609375,-2.177964801329374,1.3915407215081155,1.2972653778776526
1761338318223858000,7.04685791015625,-1.405802032703161,1.667485176192224,1.3346174956724046
1761338318233923800,7.056923828125,-0.47833179798722264,1.8786874018527566,1.30671622005105
1761338318243990000,7.066989990234375,0.4087912287712097,1.8824058378539978,1.1464696901239455
1761338318254055000,7.077054931640625,1.1637205385237932,1.5904751478783785,0.7040878880485892
1761338318264120800,7.087120849609375,1.7123732424497604,1.2281339739844201,0.05401862696800381
1761338318274186000,7.09718603515625,2.0546458801746366,0.7962262196503579,-0.7418133692003787
1761338318284252000,7.107251953125,2.104681538453698,0.39300084484536196,-1.566327233441174
1761338318294317800,7.11731787109375,1.892824502146244,0.0752090067738667,-2.4150281750857827
1761338318304382700,7.1273828125,1.542227688190341,-0.03791105771861039,-3.080881609547138
1761338318314449000,7.137448974609375,1.135019929218292,0.011394523587077855,-3.3532384150028225
1761338318324514800,7.147514892578125,0.6252203952997922,0.3469572153445333,-3.142924516484141
1761338318334580000,7.157580078125,0.02472936758697033,0.8770604824274778,-2.585698045480251
1761338318344645600,7.167645751953125,-0.5404962854772806,1.382804165083915,-2.099736921658367
1761338318354710800,7.177710693359375,-0.9138438604235648,1.6807511927396057,-1.8696387107394634
1761338318364777000,7.18777685546875,-1.0693687686562539,1.6329539610370993,-1.8826766176193952
1761338318374843000,7.1978427734375,-0.9509984098196029,1.3053785417065025,-2.0637787424400447
1761338318384907800,7.20790771484375,-0.6434340973824262,0.9152624950498341,-2.1939286786586045
1761338318394973700,7.2179736328125,-0.30676585553586483,0.5502814011063426,-2.2943718972690403
1761338318405038800,7.228038818359375,0.03626198447048664,0.28278354345653206,-2.3569420429505406
1761338318415104800,7.238104736328125,0.23231004174947736,0.10807002369444817,-2.481580083879828
1761338318425171000,7.2481708984375,0.2064893717944622,-0.012530541879683733,-2.7486896363317963
1761338318435235800,7.25823583984375,-0.030925299617648123,-0.12843012668862938,-3.1708319295853373
1761338318445301800,7.2683017578125,-0.30648879216015334,-0.3714232192875817,-3.9569808457270264
1761338318455367000,7.278366943359375,-0.5622486830800771,-0.6977718367695808,-4.886319796924293
1761338318465432800,7.288432861328125,-1.0240145461916923,-0.20856299973074346,-5.166297891038656
1761338318475499000,7.2984990234375,-1.4529671039819716,1.7949743687689304,-2.879841443069279
1761338318485563600,7.308563720703125,-1.617532812282443,2.83777427945137,1.1520863609619438
1761338318495629800,7.3186298828125,-1.3995382961332796,3.0022149000674485,4.263395695868134
1761338318505695700,7.32869580078125,-0.9560539396435022,3.08166136174798,5.193062563845515
1761338318515761000,7.338760986328125,-0.5360901594728231,3.2097379988238215,5.071602422299981
1761338318525826800,7.348826904296875,-0.35839608952999114,3.1821564566761253,4.4355555125594135
1761338318535891700,7.3588916015625,-0.6467962672919034,2.8363524299547076,3.865404385791719
1761338318545958000,7.3689580078125,-1.3398217863172293,2.0826494471266863,3.309376769183576
1761338318556023800,7.37902392578125,-1.9538222839444874,1.6932935711875556,2.756178530782461
1761338318566089000,7.3890888671875,-2.277798217478394,1.1545150494135916,2.0452374158382414
1761338318576155000,7.39915478515625,-2.1770038473427293,0.33244982043392957,1.0925585055857896
1761338318586219800,7.4092197265625,-1.6392074684739113,-0.15476386073231696,0.12546567825931124
1761338318596285700,7.41928564453125,-0.8079442761033773,-0.18145329461218787,-0.857217937033996
1761338318606352000,7.429351806640625,0.20542963360846042,-0.030230595351755617,-1.8514194556988774
1761338318616417000,7.4394169921875,1.2796674696058035,0.26672647141851485,-2.4674299779742954
1761338318626482700,7.449482666015625,2.3292571865588427,0.7055585451230406,-2.195702264202386
1761338318636548900,7.459548828125,3.146401837205887,1.0941535196922718,-1.14214393587932
1761338318646613800,7.46961376953125,3.426981696605682,1.3006117656961083,0.10467769610872492
1761338318656680000,7.479679931640625,3.328295112404227,1.2090317986294628,0.964771206845343
1761338318666744800,7.489744873046875,3.0338936484009027,0.9483771944705396,1.2613523529753088
1761338318676810800,7.499810791015625,2.676971138554811,0.6302797975812107,1.0501024887807666
1761338318686876700,7.509876708984375,2.4327298359930514,0.12675298725664616,0.5948106439888476
1761338318696941800,7.51994189453125,2.0853402936458587,-0.13238114760303868,0.08343080947580747
1761338318707008000,7.530008056640625,1.5836217748522758,-0.3523883370151743,-0.3199284117087722
1761338318717072600,7.54007275390625,0.9680062432438135,-0.5146414209917187,-0.31923085789866745
1761338318727138800,7.550138916015625,0.25892040077745915,-0.4806930106932297,0.019449527487903833
1761338318737204700,7.560204833984375,-0.3057598933637142,-0.27246696956558153,0.4949489150607958
1761338318747270000,7.570269775390625,-0.7035533427804708,-0.049426075013354415,0.7831190469264984
1761338318757335800,7.580335693359375,-0.9518325225561857,0.06121767162661999,0.9434647263791411
1761338318767400700,7.590400634765625,-1.0599082818716763,0.206659120604489,1.0622665354356169
1761338318777467000,7.600466796875,-1.161107725676894,0.39367483511678875,1.208681889213249
1761338318787532800,7.61053271484375,-1.351954122659564,0.5184341643381863,1.2300576355233788
1761338318797598000,7.620597900390625,-1.3930465960264204,0.4983544491879642,1.180684459741041
1761338318807663900,7.630663818359375,-1.2950368881732224,0.3730448656726628,0.9244850814253092
1761338318817730000,7.64072998046875,-0.9490016830444336,0.13354641025643796,0.47364323831219224
1761338318827794700,7.650794677734375,-0.37889059602618214,-0.2221728795460425,-0.021729911776352674
1761338318837860900,7.66086083984375,0.27423955046236514,-0.5853237806539983,-0.48272356667276467
1761338318847926000,7.670926025390625,0.8639215993911027,-0.8334308917984365,-0.8705440132055431
1761338318857992000,7.680991943359375,1.261421034297347,-0.9048131433583796,-1.1561569714017212
1761338318868057600,7.6910576171875,1.6042460452079772,-0.833634816872701,-1.2764261495970188
1761338318878122800,7.701122802734375,1.804631839430332,-0.6550416061330586,-1.3318839790552854
1761338318888189000,7.71118896484375,1.7426216657191513,-0.5556018654767424,-1.4578558989368378
1761338318898253800,7.72125390625,1.598134868851304,-0.5421019671082496,-1.6100157146506011
1761338318908320000,7.731320068359375,1.2882125951111316,-0.41680407403074204,-1.7139448756806552
1761338318918385700,7.7413857421875,0.8866922341257333,-0.1565832399128936,-1.5658613694950938
1761338318928450800,7.751450927734375,0.5208218631923198,-0.09224771026037633,-1.2528379148691893
1761338318938516700,7.761516845703125,0.2767641005039215,-0.11108042102418839,-1.0666473078031091
1761338318948583000,7.7715830078125,0.07591127329170703,-0.1292357074504718,-0.9973686774589121
1761338318958647800,7.781647705078125,-0.2659802561610937,-0.15209102479387074,-1.0109214750584214
1761338318968713700,7.791713623046875,-0.7236287470817565,-0.07962448512855917,-1.0383058141335844
1761338318978779000,7.80177880859375,-1.193628185531497,-0.04598820951916277,-0.889545431599766
1761338318988844800,7.8118447265625,-1.6822972531378269,-0.0000024842180311679837,-0.6063155691478401
1761338318998911000,7.821910888671875,-2.185789211344719,0.16621917459592223,-0.565668282265216
1761338319008976000,7.831975830078125,-2.369395135679841,0.2699843772359192,-0.6145641959246247
1761338319019041800,7.842041748046875,-2.2928823893636463,0.283837107630074,-0.7234544134281575
1761338319029107000,7.85210693359375,-1.9115555061012506,0.28722850363403557,-0.8142063321728259
1761338319039172900,7.8621728515625,-1.4724778601378201,0.4467298412170261,-0.7699711038008332
1761338319049239000,7.872239013671875,-1.2048562665104865,0.5373740618035197,-0.6501650861378758
1761338319059303700,7.8823037109375,-0.7814052287459373,0.47933286478854714,-0.4760835806690156
1761338319069369900,7.892369873046875,-0.03234276520013809,0.25944508223868906,-0.4547510889787227
1761338319079434800,7.902434814453125,0.650659372460842,-0.03989281525351107,-0.6648103551492095
1761338319089501000,7.9125009765625,0.9930623585671186,-0.38634675725102424,-1.0241694444924592
1761338319099566800,7.92256689453125,1.1205699635833501,-0.3860577842418104,-1.2059126436956227
1761338319109631700,7.9326318359375,0.9648848963528871,-0.36954069347660984,-1.2081246206566691
1761338319119698000,7.942697998046875,0.6472416729718447,-0.6946695599053054,-1.1546014125227928
1761338319129763800,7.952763916015625,0.41175592379570003,-0.772808080792427,-1.0832866732411086
1761338319139829000,7.9628291015625,0.18042320264577866,-0.8555590639110654,-1.1924137682404368
1761338319149894700,7.972894775390625,-0.041565351575613016,-1.0202646190736442,-1.4286574231117963
1761338319159959800,7.982959716796875,-0.09143792824745178,-0.6983148576050996,-1.8749547911956905
1761338319170025700,7.993025634765625,-0.004893617260456085,-0.10289996411278843,-2.1137115248665213
1761338319180092000,8.003091796875,-0.15271861864030362,0.3988583752345293,-1.8374968749389051
1761338319190157000,8.013156982421876,-0.16474223391115664,0.28387773190140725,-1.834880554960668
1761338319200221700,8.0232216796875,-0.6384025329560041,0.8346239009752869,-1.1143988006677479
1761338319210287900,8.033287841796875,-1.3837737407684325,1.0080499382100998,-0.14016155407987535
1761338319220353800,8.043353759765624,-2.4456109448760746,0.9669380294904112,0.8161880075093358
1761338319230419000,8.0534189453125,-3.71941858253777,0.9226328776873648,1.6453867416307328
1761338319240484600,8.063484619140626,-4.765597614264488,1.0474826616711914,2.318963756081462
1761338319250549800,8.0735498046875,-5.519173171320557,1.34189040928483,2.775757383738458
1761338319260616000,8.083615966796875,-5.805724506345391,1.654498122716695,3.0864722691610456
1761338319270681900,8.093681884765624,-5.4622506761372085,2.0683022112138567,3.3498692308306692
1761338319280747000,8.1037470703125,-4.750164482811093,2.4487913284778595,3.5555408565014597
1761338319290812700,8.113812744140626,-3.773780287322402,2.7415052777856586,3.555068855075538
1761338319300878800,8.12387890625,-2.6456436878770586,2.8288778562903403,3.2608442089438436
1761338319310943700,8.13394384765625,-1.4301175587922335,2.8072502541109916,2.776617215438187
1761338319321010000,8.144010009765625,-0.2047714619606733,2.7264026934608814,1.899053459663689
1761338319331074800,8.15407470703125,1.0763409457564352,2.5430466522336004,0.7994608907226473
1761338319341140700,8.164140625,2.3092273749649523,2.1861184432990846,-0.22165179654769598
1761338319351206700,8.17420654296875,3.337125484591722,1.613617246273905,-1.1285519753132014
1761338319361271800,8.184271728515625,4.086245815804601,1.0342062698602676,-1.883248426157981
1761338319371338000,8.194337890625,4.576587785059213,0.6074567385395988,-2.4049600777968765
1761338319381402600,8.204402587890625,4.886039518678188,0.16414229525662957,-2.450831894394755
1761338319391468800,8.21446875,4.9561698704808945,0.09150277364458888,-2.3819985966652633
1761338319401534700,8.22453466796875,4.633499174326658,0.6615429508510977,-2.4680156689077615
1761338319411600000,8.234599853515626,3.937516559061408,1.1226064378470182,-2.138921077185869
1761338319421665800,8.244665771484375,3.122702397188544,1.1789112395234405,-1.444396844035387
1761338319431732000,8.25473193359375,2.1810639363884925,1.2580407442092896,-0.5910952036622912
1761338319441796900,8.264796875,1.1609779618173837,1.4461412034846841,0.16877119716629385
1761338319451862800,8.27486279296875,0.20273148056566714,1.557806073333323,0.6863483793489634
1761338319461928000,8.284927978515626,-0.7605828054696321,1.5690180799603461,0.9043664225041865
1761338319471993900,8.294993896484375,-1.620492246609926,1.7072028540745376,0.9717280402459204
1761338319482059800,8.305059814453125,-2.0817992600381374,1.9715806434750556,1.249947161863744
1761338319492124700,8.315124755859374,-2.2091531357973815,2.0937140081070362,1.7363092677019536
1761338319502190800,8.32519091796875,-2.048996476110816,1.9014470768019556,2.212509314357489
1761338319512256000,8.335256103515626,-1.711933681988716,1.7043834127396345,2.4109926359593867
1761338319522322000,8.345322021484375,-1.2219944483160972,1.4748118560433388,2.203581619275361
1761338319532387800,8.355387939453125,-0.47112055143415926,1.1056814604006706,1.8795602391645312
1761338319542452700,8.36545263671875,0.2246756013482809,0.576789395738393,1.572229735483229
1761338319552519000,8.375518798828125,0.8417290568053721,-0.02315561546422541,1.2262206877090036
1761338319562583800,8.385583740234376,1.4209277056425809,-0.5975924567271024,0.8320616492718458
1761338319572649700,8.395649658203125,1.8412334311187266,-1.095738816122338,0.3499827737107873
1761338319582715600,8.405715576171875,2.1825538826853035,-1.7767963225215673,-0.6571424508698285
1761338319592781800,8.41578173828125,2.042190303227305,-2.060168296857923,-1.0437133722655474
1761338319602847000,8.425846923828125,1.7673714915722607,-2.121797946818918,-1.275867200540006
1761338319612913000,8.435912841796876,1.1658335851550101,-2.044071002407372,-1.358247231454402
1761338319622977800,8.445977783203125,0.4862438862860203,-2.0799229447722434,-1.4120466261811553
1761338319633043700,8.456043701171875,-0.02765373060107231,-2.12760794827193,-1.4656155731528997
1761338319643110000,8.46610986328125,-0.36657238172292705,-2.29415284769088,-1.6795353872090577
1761338319653174800,8.4761748046875,-0.5818851114422082,-2.39383721075803,-1.8394652524024246
1761338319663241000,8.486240966796874,-0.6226812322109937,-2.4318641590744257,-1.8084712714627384
1761338319673305900,8.496305908203125,-0.5442500850528478,-2.495021749255061,-1.5651646194025872
1761338319683371800,8.506371826171875,-0.42918928915560245,-2.4689234314024446,-1.2162640879705549
1761338319693437700,8.516437744140624,-0.3099000619083643,-2.4096482356131075,-0.9227814923778176
1761338319703502800,8.5265029296875,-0.24534371084570883,-2.2891078392609954,-0.767278211455047
1761338319713569000,8.536569091796874,-0.27640520406365393,-2.0204669855885204,-0.6721050422020256
1761338319723633700,8.546633544921875,-0.489827005469799,-1.6563777989834545,-0.46560865614488717
1761338319733699800,8.556699951171876,-1.0236597414046524,-1.2866624430596827,-0.11309738686978817
1761338319743765800,8.566765869140625,-1.5926374404788017,-0.9693094347968697,0.23104396733641622
1761338319753831000,8.576830810546875,-1.88992235096395,-0.678201386315748,0.47359892424643035
1761338319763896800,8.586896728515624,-1.9758809710174798,-0.5058900323245674,0.5252541465513408
1761338319773962800,8.596962646484375,-1.909098176077008,-0.578949240653403,0.3963897200986743
1761338319784028000,8.60702783203125,-1.767840862649679,-0.59549281756673,0.2095813464604318
1761338319794093800,8.61709375,-1.6735656651496886,-0.34249672880433496,-0.07448138661906123
1761338319804159000,8.627158935546875,-1.4538964937865733,0.517242214607261,0.010709317801892757
1761338319814224600,8.637224609375,-0.9367185400545597,0.8383861030530184,0.32156339249946175
1761338319824290800,8.647290771484375,0.04295417558550835,1.5641605569265782,0.3973228362303227
1761338319834355700,8.657355712890626,0.9590969606012105,2.0629878843232987,0.3570645486652851
1761338319844422000,8.667421875,1.4147832115381955,1.8657491559550166,0.4419245598271489
1761338319854487000,8.677487060546875,1.3492653219670057,1.5962414563201366,0.39147549844160673
1761338319864552700,8.687552734375,0.8897650656998157,1.4337892330422997,0.21721074536032972
1761338319874619000,8.697618896484375,-0.025778584378957747,1.3085438738696276,0.09156476949751377
1761338319884683800,8.707683837890626,-1.1036205823481082,1.1725355670116842,0.08400624387674033
1761338319894750000,8.71775,-2.2324580235391855,1.0913991794828324,0.2999630071206018
1761338319904815900,8.72781591796875,-3.160461342218518,1.238478403996676,0.5873365452485159
1761338319914880300,8.73788037109375,-3.7573259961277246,1.5775772339910268,0.8637287071675062
1761338319924946400,8.747946533203125,-3.848257143896818,1.7816712350815533,0.9686977326393127
1761338319935011300,8.75801123046875,-3.459651209542155,1.4847694786950945,0.8282609418146312
1761338319945077500,8.768077392578125,-2.4938977136611937,1.1270842408481985,0.4204283654751256
1761338319955143200,8.77814306640625,-1.2875596841603516,1.0291518360149114,-0.022985446529090403
1761338319965208300,8.788208251953124,-0.3703606680899858,0.4869645287107676,-0.6631341655652969
1761338319975274200,8.798274169921875,0.593077536585927,-0.08649932106779888,-1.7022852714166044
1761338319985339400,8.80833935546875,1.5826093829393386,-0.2477906656064093,-2.605755037342012
1761338319995405300,8.8184052734375,2.4743214910537,-0.3301042071558535,-3.084316844692826
1761338320005471200,8.82847119140625,3.2064012556165453,-0.3020626828135922,-3.1087574584662914
1761338320015536400,8.838536376953124,3.6853251742780206,-0.07893895054981112,-2.6942139497786757
1761338320025602300,8.848602294921875,3.7846132315039633,0.07459573371373117,-2.038471282704174
