time,seconds_elapsed,z,y,x
1761338311248386800,0.07138671875,0.22533847391605377,-0.7244102358818054,-0.4035506546497345
1761338311258453000,0.081452880859375,0.22543194890022278,-0.6971826553344727,-0.40091970562934875
1761338311268519000,0.091518798828125,0.21558067202568054,-0.6246197819709778,-0.3677420914173126
1761338311278583800,0.101583740234375,0.20676986873149872,-0.5387629270553589,-0.3075413405895233
1761338311288649700,0.111649658203125,0.17474395036697388,-0.46569710969924927,-0.24452951550483704
1761338311298716000,0.1217158203125,0.09857915341854095,-0.3874739408493042,-0.17866714298725128
1761338311308780800,0.13178076171875,-0.00045872852206230164,-0.30610090494155884,-0.1498035490512848
1761338311318847000,0.141846923828125,-0.09371277689933777,-0.22861063480377197,-0.17910657823085785
1761338311328912000,0.151911865234375,-0.15119163691997528,-0.15931907296180725,-0.2593057155609131
1761338311338977800,0.161977783203125,-0.15470194816589355,-0.07217352092266083,-0.3483295738697052
1761338311349044000,0.1720439453125,-0.12701617181301117,-0.01728128455579281,-0.4121861159801483
1761338311359108900,0.18210888671875,-0.0769926905632019,-0.02698291465640068,-0.40910643339157104
1761338311369174800,0.1921748046875,-0.03185335174202919,-0.051789477467536926,-0.3276628255844116
1761338311379240700,0.20224072265625,0.007865563035011292,-0.10037592053413391,-0.19007566571235657
1761338311389305900,0.212305908203125,0.040262095630168915,-0.18046198785305023,-0.0076578883454203606
1761338311399371800,0.222371826171875,0.06916964054107666,-0.2564190924167633,0.19254924356937408
1761338311409437000,0.23243701171875,0.0769859179854393,-0.29844969511032104,0.3496449589729309
1761338311419502800,0.2425029296875,0.03694715350866318,-0.38586848974227905,0.38274192810058594
1761338311429568800,0.25256884765625,-0.048520177602767944,-0.5251891613006592,0.2940680682659149
1761338311439634000,0.262634033203125,-0.1459343433380127,-0.675393283367157,0.10383954644203186
1761338311449699800,0.272699951171875,-0.26556849479675293,-0.7422741651535034,-0.12806597352027893
1761338311459766000,0.28276611328125,-0.38117310404777527,-0.668772280216217,-0.3656787872314453
1761338311469830700,0.29283056640625,-0.4539066255092621,-0.47877204418182373,-0.5314111113548279
1761338311479896800,0.302896728515625,-0.4518740773200989,-0.194390669465065,-0.5693926215171814
1761338311489962000,0.3129619140625,-0.3689225912094116,0.08111122250556946,-0.4585099220275879
1761338311500028000,0.32302783203125,-0.22003190219402313,0.26843637228012085,-0.242064967751503
1761338311510093800,0.33309375,-0.04007716104388237,0.3632698953151703,0.037734560668468475
1761338311520158700,0.34315869140625,0.12662287056446075,0.38027018308639526,0.33031341433525085
1761338311530225000,0.353224853515625,0.27405422925949097,0.321399450302124,0.5770980715751648
1761338311540290800,0.363290771484375,0.37671563029289246,0.243073508143425,0.7761017084121704
1761338311550356000,0.37335595703125,0.44433411955833435,0.17080755531787872,0.8995336294174194
1761338311560422000,0.383421875,0.47873443365097046,0.12918686866760254,0.9635128974914551
1761338311570486800,0.39348681640625,0.4943600296974182,0.11458276212215424,0.9769843816757202
1761338311580552700,0.403552734375,0.48754367232322693,0.12768392264842987,0.9612485766410828
1761338311590619000,0.413618896484375,0.4569704234600067,0.14006024599075317,0.8995801210403442
1761338311600684000,0.42368408203125,0.3943060040473938,0.12477129697799683,0.7921401858329773
1761338311610749700,0.433749755859375,0.3048277795314789,0.08620796352624893,0.657310426235199
1761338311620816000,0.44381591796875,0.1994028389453888,0.035712830722332,0.5112850069999695
1761338311630880800,0.453880859375,0.09110374748706818,-0.03845972940325737,0.3494892716407776
1761338311640947000,0.463947021484375,-0.018894389271736145,-0.13393591344356537,0.187619149684906
1761338311651011800,0.47401171875,-0.11587528139352798,-0.20173852145671844,0.050231918692588806
1761338311661077800,0.484077880859375,-0.21125799417495728,-0.23679956793785095,-0.07561762630939484
1761338311671143700,0.494143798828125,-0.3035852611064911,-0.23716066777706146,-0.17421415448188782
1761338311681208800,0.504208740234375,-0.3849477767944336,-0.15205402672290802,-0.22858817875385284
1761338311691275000,0.51427490234375,-0.4162227511405945,0.0006876559928059578,-0.2402803748846054
1761338311701339600,0.524339599609375,-0.3872033655643463,0.17293398082256317,-0.21279415488243103
1761338311711405800,0.53440576171875,-0.30858999490737915,0.33177509903907776,-0.1524408608675003
1761338311721471700,0.5444716796875,-0.19521790742874146,0.451715886592865,-0.07171937823295593
1761338311731537000,0.554536865234375,-0.06984356790781021,0.49907994270324707,0.015519251115620136
1761338311741602800,0.564602783203125,0.040251780301332474,0.45868587493896484,0.09365373104810715
1761338311751669000,0.5746689453125,0.14407087862491608,0.3870272636413574,0.16628824174404144
1761338311761734000,0.58473388671875,0.25885313749313354,0.31833207607269287,0.22768902778625488
1761338311771799800,0.5947998046875,0.36591264605522156,0.22485940158367157,0.2554168701171875
1761338311781865000,0.604864990234375,0.44840407371520996,0.11231183260679245,0.24591895937919617
1761338311791931000,0.614930908203125,0.4943515956401825,-0.00545421801507473,0.21655362844467163
1761338311801997000,0.6249970703125,0.5026385188102722,-0.10334669053554535,0.1534002274274826
1761338311812061700,0.635061767578125,0.4931451678276062,-0.1699489802122116,0.09130089730024338
1761338311822127900,0.6451279296875,0.4815042018890381,-0.20211543142795563,0.062279365956783295
1761338311832193800,0.65519384765625,0.47375625371932983,-0.2659522294998169,0.07095705717802048
1761338311842259000,0.665259033203125,0.46950262784957886,-0.3796479105949402,0.14280754327774048
1761338311852324600,0.67532470703125,0.4918006658554077,-0.49077677726745605,0.25960773229599
1761338311862389800,0.6853896484375,0.5097021460533142,-0.6049712896347046,0.36688944697380066
1761338311872456000,0.6954560546875,0.5250557661056519,-0.6509736180305481,0.4378555715084076
1761338311882521900,0.70552197265625,0.5472308397293091,-0.6589614748954773,0.448812335729599
1761338311892587000,0.7155869140625,0.5549976825714111,-0.6033284068107605,0.40585824847221375
1761338311902652400,0.72565234375,0.5272454023361206,-0.5419241786003113,0.3211952745914459
1761338311912717600,0.735717529296875,0.4288595914840698,-0.42341142892837524,0.2166104018688202
1761338311922783500,0.745783447265625,0.2999921441078186,-0.21941784024238586,0.09757615625858307
1761338311932849400,0.755849365234375,0.22849707305431366,-0.027951836585998535,-0.018601980060338974
1761338311942914600,0.76591455078125,0.19873438775539398,0.1760697364807129,-0.05488941818475723
1761338311952980500,0.77598046875,0.17034102976322174,0.3800585865974426,0.0241231769323349
1761338311963046700,0.786046630859375,0.10495056211948395,0.49753811955451965,0.1656041443347931
1761338311973111300,0.796111328125,0.02376672998070717,0.5457814335823059,0.3042669892311096
1761338311983177500,0.806177490234375,0.00772704416885972,0.4863409698009491,0.4223499596118927
1761338311993242600,0.81624267578125,0.06663867831230164,0.3816322386264801,0.520222544670105
1761338312003308500,0.82630859375,0.13550029695034027,0.294817715883255,0.6082123517990112
1761338312013374500,0.83637451171875,0.18922419846057892,0.2396344691514969,0.6832078099250793
1761338312023439400,0.846439453125,0.20914305746555328,0.23376832902431488,0.7383390069007874
1761338312033505500,0.856505615234375,0.23317429423332214,0.2827354967594147,0.7844242453575134
1761338312043571500,0.866571533203125,0.2949521839618683,0.38578811287879944,0.7749242186546326
1761338312053636600,0.87663671875,0.338733047246933,0.4811258018016815,0.6844258904457092
1761338312063702500,0.88670263671875,0.3911285996437073,0.5378708243370056,0.5593137741088867
1761338312073767400,0.896767333984375,0.4561023414134979,0.4733681380748749,0.43668583035469055
1761338312083833300,0.906833251953125,0.4935322701931,0.21386119723320007,0.32435715198516846
1761338312093899500,0.9168994140625,0.4932834804058075,-0.17970621585845947,0.22018876671791077
1761338312103964700,0.926964599609375,0.4755319058895111,-0.5090755820274353,0.11263593286275864
1761338312114030600,0.937030517578125,0.4319750666618347,-0.6625090837478638,-0.014095082879066467
1761338312124096500,0.947096435546875,0.3946215808391571,-0.6071198582649231,-0.1630946844816208
1761338312134161400,0.957161376953125,0.3972072899341583,-0.3565715253353119,-0.2997305989265442
1761338312144227600,0.9672275390625,0.432801753282547,-0.0057759592309594154,-0.37242716550827026
1761338312154292500,0.97729248046875,0.46886780858039856,0.31591981649398804,-0.31161779165267944
1761338312164358700,0.987358642578125,0.4448804259300232,0.5773566961288452,-0.17117732763290405
1761338312174424300,0.99742431640625,0.34888380765914917,0.7697404026985168,0.013165665790438652
1761338312184489500,1.007489501953125,0.28944629430770874,0.9096537828445435,0.1985080987215042
1761338312194555600,1.0175556640625,0.3053542375564575,0.9875004887580872,0.3951321244239807
1761338312204620500,1.02762060546875,0.3584129214286804,1.0692296028137207,0.5527611970901489
1761338312214686500,1.0376865234375,0.450302392244339,1.1467499732971191,0.6687231659889221
1761338312224752400,1.04775244140625,0.5596944093704224,1.1099038124084473,0.7259875535964966
1761338312234817500,1.057817626953125,0.6327652931213379,1.007563829421997,0.7023390531539917
1761338312244883500,1.067883544921875,0.7398105263710022,0.9082987308502197,0.5879546999931335
1761338312254949600,1.07794970703125,0.8833874464035034,0.8313719034194946,0.42839208245277405
1761338312265014500,1.0880146484375,1.0253525972366333,0.7283456325531006,0.25442031025886536
1761338312275080400,1.09808056640625,1.1387922763824463,0.598493754863739,0.08964291214942932
1761338312285145600,1.1081455078125,1.2041289806365967,0.46710214018821716,-0.05094349384307861
1761338312295211500,1.11821142578125,1.175923466682434,0.35941874980926514,-0.1348869651556015
1761338312305277700,1.128277587890625,1.122861385345459,0.17336684465408325,-0.15224811434745789
1761338312315342300,1.13834228515625,1.0726542472839355,-0.12730377912521362,-0.14908467233181
1761338312325408500,1.148408447265625,1.0391007661819458,-0.3781927227973938,-0.14440016448497772
1761338312335474400,1.158474365234375,1.0066583156585693,-0.4174015522003174,-0.15651929378509521
1761338312345539600,1.16853955078125,0.9690813422203064,-0.30055534839630127,-0.15915101766586304
1761338312355605500,1.17860546875,0.9040018916130066,-0.12924055755138397,-0.16579687595367432
1761338312365670400,1.18867041015625,0.817818820476532,0.07343025505542755,-0.17801065742969513
1761338312375736600,1.198736572265625,0.7403815984725952,0.3025864362716675,-0.20331022143363953
1761338312385802500,1.208802490234375,0.6810487508773804,0.5297298431396484,-0.22492924332618713
1761338312395867600,1.21886767578125,0.6504288911819458,0.7281429171562195,-0.24461299180984497
1761338312405933300,1.228933349609375,0.6420175433158875,0.8256511092185974,-0.24793235957622528
1761338312415998500,1.23899853515625,0.6566851139068604,0.8251596689224243,-0.24287070333957672
1761338312426064400,1.249064453125,0.7003100514411926,0.803673505783081,-0.24523106217384338
1761338312436130600,1.259130615234375,0.7709980010986328,0.8239135146141052,-0.267482191324234
1761338312446195700,1.26919580078125,0.8508608341217041,0.8519052267074585,-0.3253186047077179
1761338312456261400,1.279261474609375,0.9377021193504333,0.8153325319290161,-0.4120117723941803
1761338312466327600,1.28932763671875,1.044875144958496,0.6715330481529236,-0.4987919330596924
1761338312476392400,1.299392333984375,1.1745707988739014,0.4924633800983429,-0.5305470824241638
1761338312486458600,1.309458740234375,1.3186688423156738,0.33771827816963196,-0.5056691765785217
1761338312496523300,1.319523193359375,1.4753040075302124,0.2583561837673187,-0.42728084325790405
1761338312506589400,1.32958935546875,1.60752272605896,0.2281719148159027,-0.34448185563087463
1761338312516655400,1.3396552734375,1.7200210094451904,0.21114450693130493,-0.30428600311279297
1761338312526720500,1.349720458984375,1.970727562904358,0.15901926159858704,-0.2993144094944
1761338312536786400,1.359786376953125,2.5594382286071777,0.033487334847450256,-0.43125951290130615
1761338312546851300,1.369851318359375,2.294820547103882,-0.30555251240730286,-0.6245192885398865
1761338312556917500,1.37991748046875,1.4286184310913086,-0.5629732608795166,-0.4650432765483856
1761338312566983400,1.3899833984375,0.6895524859428406,-0.459349125623703,-0.22442081570625305
1761338312577048600,1.400048583984375,0.22561538219451904,-0.3947736918926239,0.048725809901952744
1761338312587114500,1.410114501953125,-0.00002519739791750908,-0.4699121415615082,0.19308166205883026
1761338312597180700,1.4201806640625,-0.07447502762079239,-0.6312517523765564,0.28812623023986816
1761338312607245600,1.43024560546875,-0.10005122423171997,-0.6885896325111389,0.3424648344516754
1761338312617311500,1.4403115234375,-0.09681989252567291,-0.6328508853912354,0.36943483352661133
1761338312627376600,1.450376708984375,0.03569260984659195,-0.49013152718544006,0.3735470473766327
1761338312637442600,1.460442626953125,0.2358863651752472,-0.37708234786987305,0.39643239974975586
1761338312647508500,1.470508544921875,0.3572961390018463,-0.29927223920822144,0.39271676540374756
1761338312657573400,1.480573486328125,0.3865017592906952,-0.2690245509147644,0.4205121397972107
1761338312667639600,1.4906396484375,0.24622640013694763,-0.16540467739105225,0.41918614506721497
1761338312677705500,1.50070556640625,0.01832725666463375,0.004236043430864811,0.3249357342720032
1761338312687770600,1.5107705078125,-0.12369512021541595,0.15811322629451752,0.12194561958312988
1761338312697836300,1.520836181640625,-0.1326574832201004,0.2882234454154968,-0.15554136037826538
1761338312707901400,1.5309013671875,-0.06308267265558243,0.33257654309272766,-0.44991493225097656
1761338312717967600,1.540967529296875,0.06104535609483719,0.3624885082244873,-0.7543472647666931
1761338312728033500,1.551033447265625,0.2541985809803009,0.24402019381523132,-0.9655023813247681
1761338312738098400,1.561098388671875,0.3767836391925812,0.011290843598544598,-0.9447180032730103
1761338312748164400,1.571164306640625,0.42757731676101685,-0.051706764847040176,-0.726709246635437
1761338312758229500,1.5812294921875,0.6100857853889465,-0.2975154519081116,-0.31936267018318176
1761338312768295400,1.59129541015625,0.6927663087844849,-0.5612227320671082,0.08335252851247787
1761338312778361600,1.601361572265625,0.6768495440483093,-0.7707256078720093,0.44674891233444214
1761338312788426500,1.611426513671875,0.6458601951599121,-1.0496360063552856,0.7616029977798462
1761338312798492400,1.621492431640625,0.5958297252655029,-1.3924992084503174,1.002245545387268
1761338312808558600,1.63155859375,0.5051887631416321,-1.627129077911377,1.1921265125274658
1761338312818623500,1.64162353515625,0.4149138033390045,-1.6316145658493042,1.2785534858703613
1761338312828689700,1.651689697265625,0.3035297393798828,-1.4785312414169312,1.238139033317566
1761338312838754300,1.66175439453125,0.20851865410804749,-1.111756682395935,1.0776437520980835
1761338312848820500,1.671820556640625,0.1267196536064148,-0.6431900262832642,0.8432493209838867
1761338312858886400,1.681886474609375,0.04524843394756317,-0.21236373484134674,0.5730234384536743
1761338312868951600,1.69195166015625,-0.04851587116718292,0.12915284931659698,0.2828039228916168
1761338312879017500,1.702017578125,-0.15629135072231293,0.3638598918914795,0.024440277367830276
1761338312889082400,1.712082275390625,-0.25487756729125977,0.4519290328025818,-0.1757623255252838
1761338312899148500,1.7221484375,-0.3085828423500061,0.4275112450122833,-0.31475406885147095
1761338312909214700,1.732214599609375,-0.32538658380508423,0.342549204826355,-0.41688790917396545
1761338312919279900,1.74227978515625,-0.33026692271232605,0.19700996577739716,-0.483187735080719
1761338312929345500,1.752345458984375,-0.3003188967704773,0.06829912960529327,-0.5318077206611633
1761338312939411700,1.76241162109375,-0.24051715433597565,-0.007712981663644314,-0.565247654914856
1761338312949476600,1.7724765625,-0.16658993065357208,-0.048719536513090134,-0.5579106211662292
1761338312959542800,1.782542724609375,-0.09676294028759003,-0.022488828748464584,-0.4821947515010834
1761338312969607700,1.792607666015625,-0.05756227299571037,0.043343979865312576,-0.34154924750328064
1761338312979673600,1.802673583984375,-0.052281443029642105,0.0853690505027771,-0.17861364781856537
1761338312989739800,1.81273974609375,-0.0918664038181305,0.06773519515991211,-0.016932062804698944
1761338312999804700,1.8228046875,-0.21221506595611572,-0.06274762004613876,0.12154285609722137
1761338313009870800,1.832870849609375,-0.36507198214530945,-0.1615663319826126,0.21848991513252258
1761338313019935500,1.842935546875,-0.5166646838188171,-0.13802631199359894,0.2214984893798828
1761338313030001700,1.853001708984375,-0.6487880945205688,-0.07593071460723877,0.15866093337535858
1761338313040067600,1.863067626953125,-0.7454566955566406,-0.0650247186422348,0.051176153123378754
1761338313050132700,1.8731328125,-0.804595947265625,-0.10378116369247437,-0.07902978360652924
1761338313060198700,1.88319873046875,-0.7972360253334045,-0.1680164337158203,-0.21697090566158295
1761338313070264800,1.893264892578125,-0.71682208776474,-0.21085843443870544,-0.3386682868003845
1761338313080329700,1.903329833984375,-0.5957722663879395,-0.27732348442077637,-0.4049300253391266
1761338313090395600,1.913395751953125,-0.49324217438697815,-0.393647164106369,-0.374977707862854
1761338313100460800,1.923460693359375,-0.4456419050693512,-0.5263263583183289,-0.257973849773407
1761338313110526700,1.933526611328125,-0.45647963881492615,-0.6032192707061768,-0.09232603013515472
1761338313120592600,1.943592529296875,-0.5138660073280334,-0.6266435980796814,0.0633201152086258
1761338313130657800,1.95365771484375,-0.5903213620185852,-0.6344496011734009,0.17711538076400757
1761338313140723700,1.9637236328125,-0.6513793468475342,-0.6355134844779968,0.24040210247039795
1761338313150788900,1.973788818359375,-0.690994918346405,-0.6063196063041687,0.2648552358150482
1761338313160854800,1.983854736328125,-0.72710782289505,-0.5596096515655518,0.2860166132450104
1761338313170920700,1.993920654296875,-0.7675982117652893,-0.5121876001358032,0.3383338749408722
1761338313180985600,2.003985595703125,-0.7890059947967529,-0.5001570582389832,0.408409059047699
1761338313191051800,2.0140517578125,-0.764418363571167,-0.5273686647415161,0.47149375081062317
1761338313201117700,2.02411767578125,-0.7038662433624268,-0.5803616046905518,0.5155907869338989
1761338313211182600,2.0341826171875,-0.6288396716117859,-0.6195308566093445,0.5311351418495178
1761338313221248500,2.04424853515625,-0.5560886859893799,-0.614332914352417,0.5030471682548523
1761338313231313700,2.054313720703125,-0.48713093996047974,-0.5133154988288879,0.4385609030723572
1761338313241379800,2.0643798828125,-0.4227692186832428,-0.35139840841293335,0.3455720841884613
1761338313251445800,2.07444580078125,-0.38584715127944946,-0.2588200271129608,0.24521219730377197
1761338313261510700,2.0845107421875,-0.4101960361003876,-0.3028687536716461,0.1982778161764145
1761338313271576600,2.09457666015625,-0.46921220421791077,-0.41379261016845703,0.2314051389694214
1761338313281641700,2.104641845703125,-0.5641472339630127,-0.524565577507019,0.3039669990539551
1761338313291707600,2.114707763671875,-0.766758382320404,-0.5664672255516052,0.3784441649913788
1761338313301773800,2.12477392578125,-0.9528142213821411,-0.26436150074005127,0.3449055850505829
1761338313311838700,2.134838623046875,-0.9605299234390259,0.16874176263809204,0.2372100055217743
1761338313321904600,2.144904541015625,-0.9345606565475464,0.5833398103713989,0.08822609484195709
1761338313331970800,2.154970703125,-0.9580939412117004,1.083950400352478,-0.0958515927195549
1761338313342035700,2.16503564453125,-0.9149832725524902,1.4788459539413452,-0.3539523482322693
1761338313352102000,2.175101806640625,-0.7676798105239868,1.3965989351272583,-0.5961683988571167
1761338313362166500,2.18516650390625,-0.5366310477256775,0.8148738741874695,-0.717826247215271
1761338313372232700,2.195232666015625,-0.2918969392776489,0.10895746946334839,-0.6730984449386597
1761338313382298600,2.205298583984375,-0.12272688001394272,-0.41165992617607117,-0.47424790263175964
1761338313392363800,2.21536376953125,0.3101337254047394,-0.2442150115966797,-0.4132641851902008
1761338313402429700,2.2254296875,1.7034612894058228,0.9368003010749817,-1.072732925415039
1761338313412494600,2.23549462890625,1.2625932693481445,0.44348564743995667,-0.8497112989425659
1761338313422560800,2.245560791015625,0.554767370223999,0.3416731059551239,-0.14140170812606812
1761338313432626700,2.255626708984375,-0.16359584033489227,-0.008677177131175995,0.5976439118385315
1761338313442691800,2.26569189453125,-0.6364477276802063,-0.699988603591919,1.2117146253585815
1761338313452757500,2.275757568359375,-0.9790282249450684,-1.1707971096038818,1.6454613208770752
1761338313462823700,2.28582373046875,-1.2170236110687256,-1.200595736503601,1.856989860534668
1761338313472888800,2.295888916015625,-1.3912701606750488,-0.9000271558761597,1.8080284595489502
1761338313482954800,2.305954833984375,-1.4667037725448608,-0.39606595039367676,1.5393140316009521
1761338313493020000,2.31602001953125,-1.4506994485855103,0.08568736910820007,1.1544318199157715
1761338313503085600,2.32608544921875,-1.3662291765213013,0.4831527769565582,0.7650489211082458
1761338313513151700,2.33615185546875,-1.2413593530654907,0.759427011013031,0.41307729482650757
1761338313523216600,2.346216552734375,-1.1229130029678345,0.846587061882019,0.09791366010904312
1761338313533282800,2.35628271484375,-1.0179448127746582,0.761336624622345,-0.1856141835451126
1761338313543347700,2.36634765625,-0.9363058805465698,0.5860852599143982,-0.44798317551612854
1761338313553413600,2.37641357421875,-0.8710941076278687,0.41800656914711,-0.7130857110023499
1761338313563479600,2.3864794921875,-0.8119684457778931,0.27015766501426697,-1.0187313556671143
1761338313573544700,2.396544677734375,-0.7606123089790344,0.10507204383611679,-1.3354880809783936
1761338313583611000,2.40661083984375,-0.7490929961204529,-0.09638184309005737,-1.5609359741210938
1761338313593676800,2.4166767578125,-0.8242133259773254,-0.22549082338809967,-1.609562635421753
1761338313603741700,2.42674169921875,-0.9525966048240662,-0.2855469584465027,-1.4548553228378296
1761338313613807600,2.4368076171875,-1.0930427312850952,-0.31958189606666565,-1.1631853580474854
1761338313623872800,2.446872802734375,-1.248240351676941,-0.3660738468170166,-0.8097142577171326
1761338313633938700,2.456938720703125,-1.3988841772079468,-0.3758668303489685,-0.45987609028816223
1761338313644004900,2.4670048828125,-1.5585861206054688,-0.3080671429634094,-0.20240607857704163
1761338313654069800,2.47706982421875,-1.7210314273834229,-0.19025717675685883,-0.055481359362602234
1761338313664135700,2.4871357421875,-1.8712211847305298,-0.07844524085521698,-0.007860854268074036
1761338313674200800,2.497200927734375,-2.0277793407440186,0.004347111098468304,-0.04018097743391991
1761338313684266800,2.507266845703125,-2.1798787117004395,0.04160930588841438,-0.14514754712581635
1761338313694332700,2.517332763671875,-2.287971019744873,0.09249672293663025,-0.29181474447250366
1761338313704397600,2.5273974609375,-2.334256410598755,0.18171854317188263,-0.46448782086372375
1761338313714463700,2.537463623046875,-2.3348910808563232,0.2552202045917511,-0.6107784509658813
1761338313724529700,2.54752978515625,-2.3210976123809814,0.26394549012184143,-0.7113139033317566
1761338313734594800,2.5575947265625,-2.304410934448242,0.1969674974679947,-0.7500250935554504
1761338313744660700,2.56766064453125,-2.277372360229492,0.07588561624288559,-0.7168383598327637
1761338313754725600,2.5777255859375,-2.2369112968444824,-0.07044496387243271,-0.6295159459114075
1761338313764791800,2.587791748046875,-2.1896231174468994,-0.2233814150094986,-0.5254055261611938
1761338313774857700,2.597857666015625,-2.1385676860809326,-0.3659534752368927,-0.4238014221191406
1761338313784922600,2.607922607421875,-2.08551025390625,-0.4835016429424286,-0.3543523848056793
1761338313794988500,2.617988525390625,-2.043121337890625,-0.5546085834503174,-0.3254901170730591
1761338313805053700,2.6280537109375,-2.014897584915161,-0.5709877014160156,-0.36788293719291687
1761338313815119600,2.63811962890625,-2.003894805908203,-0.4985448718070984,-0.4713746905326843
1761338313825185800,2.648185791015625,-1.9900693893432617,-0.3321225047111511,-0.6015888452529907
1761338313835250700,2.658250732421875,-1.9198397397994995,-0.0008401619270443916,-0.8023778796195984
1761338313845316600,2.668316650390625,-1.7472889423370361,0.7205736637115479,-1.1738370656967163
1761338313855382800,2.6783828125,-1.4890153408050537,1.1500052213668823,-1.5095301866531372
1761338313865447700,2.68844775390625,-1.6815192699432373,1.2057298421859741,-1.6096850633621216
1761338313875513900,2.698513916015625,-2.1969757080078125,1.048843264579773,-1.3576322793960571
1761338313885578800,2.708578857421875,-2.525243043899536,0.9036295413970947,-0.955129861831665
1761338313895644700,2.718644775390625,-2.5856635570526123,0.7174450159072876,-0.6003819108009338
1761338313905710800,2.7287109375,-2.491874933242798,0.41885998845100403,-0.2661762833595276
1761338313915776000,2.73877587890625,-2.295905113220215,0.09181606769561768,0.05702121555805206
1761338313925842000,2.748842041015625,-2.0339736938476562,-0.19230152666568756,0.33743011951446533
1761338313935906800,2.75890673828125,-1.7614346742630005,-0.27801457047462463,0.5377198457717896
1761338313945973000,2.768972900390625,-1.5319265127182007,-0.24296201765537262,0.6588820219039917
1761338313956039000,2.779038818359375,-1.3248279094696045,-0.1784948855638504,0.7450478076934814
1761338313966104000,2.78910400390625,-1.0810333490371704,-0.15350736677646637,0.8488487005233765
1761338313976170000,2.799169921875,-0.8201441764831543,-0.12813009321689606,0.9441997408866882
1761338313986236000,2.80923583984375,-0.7684545516967773,-0.029434027150273323,1.025763988494873
1761338313996301000,2.819301025390625,-0.8247913122177124,0.019155878573656082,1.0202627182006836
1761338314006367000,2.829366943359375,-0.8676125407218933,-0.046419572085142136,0.8387041091918945
1761338314016432000,2.83943212890625,-0.9232414960861206,-0.19636832177639008,0.564757764339447
1761338314026497800,2.849497802734375,-0.948261022567749,-0.16793815791606903,0.24760138988494873
1761338314036564000,2.85956396484375,-0.9783816337585449,-0.37287744879722595,-0.02875990979373455
1761338314046628900,2.86962890625,-1.0308822393417358,-0.4464671015739441,-0.26133719086647034
1761338314056695000,2.879695068359375,-1.0779181718826294,-0.457717627286911,-0.4210270047187805
1761338314066760000,2.889760009765625,-1.1662153005599976,-0.5521810054779053,-0.5288267135620117
1761338314076825900,2.899825927734375,-1.2272436618804932,-0.65799480676651,-0.5729160904884338
1761338314086891800,2.909891845703125,-1.2458610534667969,-0.7473947405815125,-0.5378363728523254
1761338314096957000,2.91995703125,-1.255773901939392,-0.8227635025978088,-0.4250430166721344
1761338314107023000,2.930023193359375,-1.2780715227127075,-0.9025869965553284,-0.26718229055404663
1761338314117089000,2.940089111328125,-1.3189594745635986,-0.9726784229278564,-0.10148227959871292
1761338314127154000,2.95015380859375,-1.3592119216918945,-1.0464200973510742,0.06493955850601196
1761338314137219800,2.9602197265625,-1.394241213798523,-1.0975756645202637,0.24658364057540894
1761338314147285000,2.970284912109375,-1.4569804668426514,-1.1473108530044556,0.4421597123146057
1761338314157351000,2.980350830078125,-1.589254379272461,-1.0877360105514526,0.5532271265983582
1761338314167417000,2.9904169921875,-1.831612467765808,-0.9195065498352051,0.5657602548599243
1761338314177482000,3.00048193359375,-1.9950357675552368,-0.2185039222240448,0.3770934045314789
1761338314187548000,3.0105478515625,-2.135651111602783,0.28739821910858154,0.15362516045570374
1761338314197613000,3.020613037109375,-2.159511089324951,0.7052191495895386,-0.06606511026620865
1761338314207679000,3.030678955078125,-2.1037702560424805,1.0159943103790283,-0.2776027023792267
1761338314217745200,3.0407451171875,-2.0126912593841553,1.1751959323883057,-0.4509742259979248
1761338314227809800,3.050809814453125,-1.903294324874878,1.2339816093444824,-0.5604119896888733
1761338314237876000,3.0608759765625,-1.7712851762771606,1.2257490158081055,-0.6246996521949768
1761338314247941000,3.070941162109375,-1.6467150449752808,1.1543744802474976,-0.699552595615387
1761338314258007000,3.081007080078125,-1.5495549440383911,1.1170591115951538,-0.8118631839752197
1761338314268073000,3.091072998046875,-1.5456537008285522,1.097171664237976,-0.9352569580078125
1761338314278137900,3.101137939453125,-1.6151816844940186,1.0402277708053589,-0.9544860124588013
1761338314288204000,3.1112041015625,-1.6219381093978882,0.9727338552474976,-0.8754807114601135
1761338314298270000,3.12127001953125,-1.5453197956085205,0.8668228387832642,-0.6461684107780457
1761338314308335000,3.131335205078125,-1.399898648262024,0.7387754917144775,-0.3443664312362671
1761338314318400800,3.14140087890625,-1.2382287979125977,0.5339256525039673,-0.08655193448066711
1761338314328466000,3.1514658203125,-1.0972877740859985,0.294848769903183,0.1024438813328743
1761338314338532000,3.161531982421875,-0.9634655117988586,0.12244769930839539,0.24953638017177582
1761338314348598000,3.171597900390625,-0.866927981376648,0.029837386682629585,0.34040096402168274
1761338314358663000,3.181662841796875,-0.8107616305351257,-0.03005657158792019,0.37875261902809143
1761338314368728800,3.191728759765625,-0.7828560471534729,-0.058478664606809616,0.3679058849811554
1761338314378794000,3.2017939453125,-0.7638575434684753,-0.0670122355222702,0.32092106342315674
1761338314388860000,3.21185986328125,-0.7903246283531189,-0.06641373038291931,0.25241684913635254
1761338314398926000,3.221926025390625,-0.8548309206962585,-0.035876333713531494,0.1845187544822693
1761338314408991000,3.231990966796875,-0.9407714009284973,0.005473549477756023,0.13103562593460083
1761338314419057000,3.242056884765625,-1.021427869796753,0.026827041059732437,0.08478131145238876
1761338314429122800,3.252122802734375,-1.0884921550750732,0.03806119039654732,0.049203816801309586
1761338314439188000,3.26218798828125,-1.1450259685516357,0.03781857714056969,0.007393251173198223
1761338314449254100,3.272254150390625,-1.1642861366271973,0.03728680685162544,-0.07232484221458435
1761338314459318800,3.28231884765625,-1.1701029539108276,0.0023341504856944084,-0.13420766592025757
1761338314469385000,3.292385009765625,-1.1658705472946167,-0.02804308757185936,-0.1709127128124237
1761338314479451000,3.302450927734375,-1.1040924787521362,-0.10462387651205063,-0.216377392411232
1761338314489516000,3.31251611328125,-1.1133769750595093,-0.11333540827035904,-0.2847829759120941
1761338314499582000,3.32258203125,-1.1205040216445923,-0.058977898210287094,-0.2926214635372162
1761338314509646800,3.332646728515625,-1.148672342300415,-0.029207848012447357,-0.3354402780532837
1761338314519713000,3.342713134765625,-1.1859962940216064,-0.036357637494802475,-0.3963584899902344
1761338314529779000,3.352779052734375,-1.2693246603012085,0.027474377304315567,-0.4268839955329895
1761338314539844000,3.362843994140625,-1.4136637449264526,0.15030576288700104,-0.402309387922287
1761338314549910000,3.372909912109375,-1.6026495695114136,0.2618354558944702,-0.3222673833370209
1761338314559975000,3.382974853515625,-1.808395266532898,0.31718286871910095,-0.15196649730205536
1761338314570040800,3.393040771484375,-2.0236623287200928,0.2463998645544052,0.06042715534567833
1761338314580107000,3.40310693359375,-2.2261438369750977,0.09823966771364212,0.2891245186328888
1761338314590172200,3.413172119140625,-2.391622543334961,0.018450628966093063,0.49338579177856445
1761338314600237800,3.42323779296875,-2.502718448638916,0.02491838112473488,0.6445047855377197
1761338314610304000,3.433303955078125,-2.5151121616363525,0.07464876770973206,0.7964503169059753
1761338314620369000,3.443368896484375,-2.363450527191162,0.3808209300041199,0.7968796491622925
1761338314630435000,3.45343505859375,-2.0725653171539307,0.5482242107391357,0.7671331167221069
1761338314640500000,3.4635,-1.801561951637268,0.5747010707855225,0.7921005487442017
1761338314650566000,3.47356591796875,-1.553330898284912,0.48425835371017456,0.8384694457054138
1761338314660631800,3.4836318359375,-1.4055942296981812,0.23280267417430878,0.8301135301589966
1761338314670697000,3.493697021484375,-1.366471767425537,-0.15814757347106934,0.7122921347618103
1761338314680763000,3.503762939453125,-1.3608604669570923,-0.48670175671577454,0.45100119709968567
1761338314690829000,3.5138291015625,-1.3360786437988281,-0.511028528213501,0.00492030568420887
1761338314700894000,3.52389404296875,-1.308616280555725,-0.15229938924312592,-0.5440599918365479
1761338314710959900,3.5339599609375,-1.3175126314163208,0.2979434132575989,-0.997467041015625
1761338314721025000,3.54402490234375,-1.3588428497314453,0.27126601338386536,-0.9726386666297913
1761338314731091000,3.554091064453125,-1.373051404953003,-0.038249921053647995,-0.3953278064727783
1761338314741157000,3.5641572265625,-1.2750838994979858,-0.1940014362335205,0.3815021514892578
1761338314751222000,3.574221923828125,-1.2616430521011353,-0.2442694455385208,1.0456033945083618
1761338314761288000,3.584287841796875,-1.3685288429260254,-0.17539983987808228,1.4109946489334106
1761338314771353000,3.59435302734375,-1.4657621383666992,-0.01528819277882576,1.4810235500335693
1761338314781419000,3.6044189453125,-1.5349113941192627,0.06991139054298401,1.3657305240631104
1761338314791485200,3.614485107421875,-1.5538196563720703,0.046018943190574646,1.1886475086212158
1761338314801549800,3.6245498046875,-1.5040669441223145,-0.016742974519729614,1.0224609375
1761338314811616000,3.634615966796875,-1.3953042030334473,0.007360146380960941,0.8471764326095581
1761338314821682000,3.644681884765625,-1.2774710655212402,0.0797448605298996,0.6362766623497009
1761338314831747000,3.6547470703125,-1.1619234085083008,0.27860602736473083,0.2902994751930237
1761338314841812700,3.664812744140625,-1.0554566383361816,0.6780538558959961,-0.25974154472351074
1761338314851878000,3.6748779296875,-1.0235801935195923,1.239253282546997,-0.9508408904075623
1761338314861944000,3.684944091796875,-1.0434907674789429,1.5348502397537231,-1.557187557220459
1761338314872010000,3.695010009765625,-1.0686904191970825,1.3983575105667114,-1.8852988481521606
1761338314882075100,3.7050751953125,-1.0255615711212158,1.017338514328003,-1.8724169731140137
1761338314892140800,3.715140869140625,-0.9281792640686035,0.5815993547439575,-1.6167603731155396
1761338314902206000,3.7252060546875,-0.7836008071899414,0.22139139473438263,-1.2420512437820435
1761338314912271600,3.735271728515625,-0.648412823677063,-0.02952563390135765,-0.854642927646637
1761338314922337500,3.745337646484375,-0.7498944401741028,-0.28683412075042725,-0.3684495687484741
1761338314932402400,3.75540234375,-0.7957028150558472,-0.6150614023208618,0.22183360159397125
1761338314942468400,3.76546826171875,-0.7330580949783325,-0.6369701623916626,0.5866200923919678
1761338314952533500,3.775533447265625,-0.6480671167373657,-0.659544825553894,0.7986240386962891
1761338314962599400,3.785599365234375,-0.5563939213752747,-0.6370933055877686,0.8519929647445679
1761338314972665600,3.79566552734375,-0.5674603581428528,-0.4969646632671356,0.7639328837394714
1761338314982730500,3.80573046875,-0.6689044237136841,-0.4312266707420349,0.667215883731842
1761338314992796400,3.81579638671875,-0.7566416263580322,-0.4160221815109253,0.5657140016555786
1761338315002861600,3.825861572265625,-0.766830325126648,-0.37796878814697266,0.47250092029571533
1761338315012927500,3.835927490234375,-0.7363535165786743,-0.3042146861553192,0.4152473509311676
1761338315022993700,3.84599365234375,-0.7136104106903076,-0.21526136994361877,0.40204206109046936
1761338315033058300,3.856058349609375,-0.6424350738525391,-0.14965836703777313,0.4135624170303345
1761338315043124500,3.86612451171875,-0.511908233165741,-0.07235745340585709,0.43227618932724
1761338315053190400,3.8761904296875,-0.3795088827610016,-0.09130731225013733,0.44388219714164734
1761338315063255600,3.886255615234375,-0.28196394443511963,-0.19750244915485382,0.44785699248313904
1761338315073321200,3.8963212890625,-0.19055627286434174,-0.37783700227737427,0.429488867521286
1761338315083386400,3.906386474609375,-0.14657177031040192,-0.49784567952156067,0.3523474931716919
1761338315093452500,3.91645263671875,-0.23266282677650452,-0.5935862064361572,0.2053413838148117
1761338315103518500,3.9265185546875,-0.41960155963897705,-0.6981147527694702,-0.0320940725505352
1761338315113583600,3.93658349609375,-0.6811444163322449,-0.7707403898239136,-0.3069213926792145
1761338315123649300,3.946649169921875,-0.9272559285163879,-0.8662938475608826,-0.5759845972061157
1761338315133714400,3.95671435546875,-1.0620774030685425,-1.0153923034667969,-0.767022430896759
1761338315143780400,3.9667802734375,-1.0589038133621216,-1.0546350479125977,-0.8050893545150757
1761338315153846500,3.976846435546875,-1.0095586776733398,-0.9638100862503052,-0.6845775246620178
1761338315163911400,3.986911376953125,-0.9539859294891357,-0.8063128590583801,-0.4594503939151764
1761338315173977300,3.996977294921875,-0.906112015247345,-0.6271140575408936,-0.20519405603408813
1761338315184043500,4.00704345703125,-0.8420917391777039,-0.49362412095069885,0.0036837831139564514
1761338315194108400,4.0171083984375,-0.8427595496177673,-0.4410606622695923,0.1237693801522255
1761338315204173600,4.027173583984375,-0.8908892869949341,-0.4235580861568451,0.182057186961174
1761338315214239200,4.0372392578125,-0.956639289855957,-0.34561288356781006,0.15619203448295593
1761338315224304400,4.047304443359375,-1.0429102182388306,-0.14854216575622559,0.05337352305650711
1761338315234370600,4.05737060546875,-1.1191736459732056,-0.06613072752952576,-0.10163550078868866
1761338315244436500,4.0674365234375,-1.1424851417541504,0.03619298338890076,-0.25394248962402344
1761338315254501400,4.07750146484375,-1.1346516609191895,0.19432076811790466,-0.3705728352069855
1761338315264567300,4.0875673828125,-1.1099170446395874,0.2923751473426819,-0.4722544550895691
1761338315274632400,4.097632568359375,-1.0749430656433105,0.3568885326385498,-0.559422492980957
1761338315284698400,4.107698486328125,-1.0248316526412964,0.3978961408138275,-0.6439299583435059
1761338315294764500,4.1177646484375,-0.9388464093208313,0.41116777062416077,-0.7009503841400146
1761338315304829400,4.127829345703125,-0.8619601130485535,0.385107159614563,-0.6358733773231506
1761338315314895400,4.137895263671875,-0.7496035695075989,0.45953476428985596,-0.4324679374694824
1761338315324961500,4.14796142578125,-0.6942601799964905,0.587150514125824,-0.23543661832809448
1761338315335026400,4.1580263671875,-0.7431044578552246,0.8209437727928162,-0.0794624537229538
1761338315345092600,4.168092529296875,-0.8806122541427612,0.8989914059638977,-0.0030976412817835808
1761338315355157200,4.1781572265625,-1.0455082654953003,0.7687516808509827,0.039928656071424484
1761338315365223400,4.188223388671875,-1.1475003957748413,0.47353360056877136,0.05987919121980667
1761338315375289300,4.198289306640625,-1.1668320894241333,0.10746987164020538,0.0706014335155487
1761338315385354500,4.2083544921875,-1.1079413890838623,-0.21143700182437897,0.03764507919549942
1761338315395420700,4.218420654296875,-1.0125709772109985,-0.4628157615661621,-0.02178487554192543
1761338315405485300,4.2284853515625,-0.9525390863418579,-0.6436100602149963,-0.05954530090093613
1761338315415551500,4.238551513671875,-0.9481183290481567,-0.8106765151023865,-0.05498800426721573
1761338315425617400,4.248617431640625,-1.0002989768981934,-1.0265592336654663,-0.034919753670692444
1761338315435682600,4.2586826171875,-1.0720252990722656,-1.2673465013504028,0.021703526377677917
1761338315445748500,4.26874853515625,-1.1984572410583496,-1.4713762998580933,0.11395382881164551
1761338315455814400,4.278814453125,-1.3693934679031372,-1.6520549058914185,0.20793239772319794
1761338315465879600,4.288879638671875,-1.6198517084121704,-1.5616846084594727,0.28756728768348694
1761338315475945500,4.298945556640625,-1.8848531246185303,-1.1496634483337402,0.2837902903556824
1761338315486010600,4.3090107421875,-2.079143524169922,-0.6223706603050232,0.19888365268707275
1761338315496076300,4.319076171875,-2.2062947750091553,-0.09431677311658859,0.08032702654600143
1761338315506142500,4.329142578125,-2.236867904663086,0.41763681173324585,-0.018230706453323364
1761338315516207400,4.339207275390625,-2.1943607330322266,0.8700702786445618,-0.1353473961353302
1761338315526273500,4.3492734375,-2.146240234375,1.1175884008407593,-0.28580933809280396
1761338315536338700,4.359338623046875,-2.106886386871338,1.250353217124939,-0.43963342905044556
1761338315546404400,4.369404296875,-2.023674726486206,1.3471099138259888,-0.5881624221801758
1761338315556470300,4.37947021484375,-1.8849300146102905,1.3593403100967407,-0.6900951862335205
1761338315566535400,4.389535400390625,-1.710649847984314,1.2270044088363647,-0.6905838847160339
1761338315576601600,4.3996015625,-1.5416133403778076,1.0373283624649048,-0.5636959075927734
1761338315586666200,4.409666259765625,-1.4557005167007446,0.8368125557899475,-0.3770560324192047
1761338315596732400,4.419732421875,-1.4953436851501465,0.6437663435935974,-0.1963641494512558
1761338315606798300,4.42979833984375,-1.6122535467147827,0.4439004063606262,-0.04045737907290459
1761338315616864500,4.439864501953125,-1.7811795473098755,0.18644045293331146,0.09368181228637695
1761338315626929400,4.449929443359375,-1.9703079462051392,-0.10709929466247559,0.22471094131469727
1761338315636995600,4.45999560546875,-2.081733226776123,-0.387077659368515,0.30311140418052673
1761338315647061200,4.470061279296875,-2.0847251415252686,-0.5834292769432068,0.3277845084667206
1761338315657126400,4.48012646484375,-2.0493180751800537,-0.6827980875968933,0.3418290317058563
1761338315667192600,4.490192626953125,-2.0341053009033203,-0.6969160437583923,0.3727360665798187
1761338315677257500,4.500257568359375,-2.0329577922821045,-0.6132166981697083,0.39492323994636536
1761338315687323600,4.51032373046875,-2.031829357147217,-0.42762476205825806,0.3707377314567566
1761338315697389300,4.520389404296875,-2.012091636657715,-0.12398268282413483,0.2642687261104584
1761338315707454500,4.530454345703125,-1.9879223108291626,0.08536627888679504,0.13158127665519714
1761338315717520400,4.540520263671875,-1.952246904373169,0.21821220219135284,0.02954254299402237
1761338315727585500,4.55058544921875,-1.9042197465896606,0.27183735370635986,-0.00655580498278141
1761338315737651500,4.5606513671875,-1.8479455709457397,0.30052900314331055,0.002684278879314661
1761338315747717400,4.57071728515625,-1.7970906496047974,0.2918894290924072,0.02511395327746868
1761338315757782500,4.580782470703125,-1.7534033060073853,0.24657809734344482,0.02108895406126976
1761338315767848400,4.590848388671875,-1.7107129096984863,0.18418528139591217,-0.021676618605852127
1761338315777914600,4.60091455078125,-1.6838786602020264,0.12876026332378387,-0.11122216284275055
1761338315787979300,4.610979248046875,-1.6612967252731323,0.07521233707666397,-0.2375478744506836
1761338315798045400,4.62104541015625,-1.6325122117996216,0.043362364172935486,-0.3989037573337555
1761338315808110600,4.631110595703125,-1.56144118309021,0.171203151345253,-0.6504329442977905
1761338315818176500,4.641176513671875,-1.4930328130722046,0.30842721462249756,-0.9182686805725098
1761338315828242400,4.651242431640625,-1.4295622110366821,0.4002327620983124,-1.1195257902145386
1761338315838307300,4.661307373046875,-1.3612207174301147,0.4599669873714447,-1.1738661527633667
1761338315848373500,4.67137353515625,-1.286044716835022,0.4407448470592499,-1.0548367500305176
1761338315858438400,4.6814384765625,-1.2221195697784424,0.364395409822464,-0.7900859117507935
1761338315868504600,4.691504638671875,-1.2113393545150757,0.3071102797985077,-0.41875627636909485
1761338315878570500,4.701570556640625,-1.2795230150222778,0.16404981911182404,0.03567750006914139
1761338315888635400,4.711635498046875,-1.3735429048538208,-0.11971291154623032,0.5324726104736328
1761338315898701300,4.721701416015625,-1.4167245626449585,-0.2750774025917053,0.9322009682655334
1761338315908768000,4.73176806640625,-1.40069580078125,-0.1490432769060135,1.1410274505615234
1761338315918833000,4.7418330078125,-1.2118682861328125,0.42845141887664795,1.065988540649414
1761338315928899000,4.751899169921875,-0.899656355381012,1.0927886962890625,0.8231762051582336
1761338315938964000,4.7619638671875,-0.600810170173645,1.2819478511810303,0.6251026391983032
1761338315949030000,4.77202978515625,-0.24385523796081543,1.2508562803268433,0.39770275354385376
1761338315959096000,4.782095947265625,0.08707384765148163,0.829871416091919,0.08581264317035675
1761338315969161000,4.792160888671875,0.4179500341415405,0.5886912941932678,-0.384792685508728
1761338315979227100,4.80222705078125,0.7659037113189697,0.8816409707069397,-1.0339761972427368
1761338315989292000,4.8122919921875,0.838874340057373,0.31860587000846863,-1.1270041465759277
1761338315999358000,4.82235791015625,0.6177588701248169,0.020632006227970123,-0.7211040258407593
1761338316009424000,4.832423828125,-0.02955780178308487,-0.16044242680072784,-0.039614420384168625
1761338316019489000,4.842489013671875,-0.8278887271881104,-0.5845453143119812,0.6173258423805237
1761338316029555000,4.852554931640625,-1.4011975526809692,-1.0347603559494019,0.9745385646820068
1761338316039620900,4.862620849609375,-1.7008013725280762,-1.2776240110397339,1.0842753648757935
1761338316049686000,4.87268603515625,-1.8264073133468628,-1.3017221689224243,1.0800329446792603
1761338316059752000,4.882751953125,-1.7892999649047852,-1.134934663772583,1.0903161764144897
1761338316069817000,4.892817138671875,-1.6253490447998047,-0.8195790648460388,1.1357150077819824
1761338316079882800,4.9028828125,-1.3895400762557983,-0.4930310547351837,1.1753731966018677
1761338316089949000,4.912948974609375,-1.1439402103424072,-0.1303897500038147,1.144495964050293
1761338316100014000,4.92301416015625,-0.8613386750221252,0.12697173655033112,1.090438961982727
1761338316110080000,4.933080078125,-0.5725217461585999,0.39308464527130127,0.9546128511428833
1761338316120145000,4.943144775390625,-0.3060782253742218,0.5972044467926025,0.7373901009559631
1761338316130210800,4.9532109375,-0.11201418936252594,0.7214795351028442,0.44983237981796265
1761338316140277000,4.963277099609375,0.0410693883895874,0.8656346201896667,0.1401783525943756
1761338316150342000,4.973341796875,0.10287603735923767,1.077152967453003,-0.2087937444448471
1761338316160408000,4.983407958984375,0.13846120238304138,1.0856012105941772,-0.5458136200904846
1761338316170473000,4.993472900390625,0.17951703071594238,1.0349677801132202,-0.8160014152526855
1761338316180539000,5.003538818359375,0.23130586743354797,1.046994686126709,-0.9889776706695557
1761338316190604800,5.013604736328125,0.24260646104812622,1.0109434127807617,-1.0696892738342285
1761338316200670000,5.023669921875,0.20105764269828796,0.8870008587837219,-1.0385518074035645
1761338316210736000,5.033736083984375,0.14093518257141113,0.6913703680038452,-0.9396180510520935
1761338316220802000,5.043802001953125,0.06905406713485718,0.4383443593978882,-0.8266710042953491
1761338316230867000,5.053866943359375,-0.024695856496691704,0.12838967144489288,-0.7303846478462219
1761338316240932900,5.063932861328125,-0.11204764991998672,-0.17806121706962585,-0.6709111332893372
1761338316250998000,5.073998046875,-0.15750780701637268,-0.3523414134979248,-0.6564539074897766
1761338316261064000,5.08406396484375,-0.18342088162899017,-0.4142853915691376,-0.6650425791740417
1761338316271129900,5.0941298828125,-0.19641338288784027,-0.40148091316223145,-0.6878083348274231
1761338316281195000,5.104195068359375,-0.20061396062374115,-0.3706451952457428,-0.7026035785675049
1761338316291261000,5.114260986328125,-0.1992032825946808,-0.3998206555843353,-0.666047990322113
1761338316301326000,5.124326171875,-0.19964419305324554,-0.4290884733200073,-0.5355212092399597
1761338316311392000,5.13439208984375,-0.23436835408210754,-0.35335615277290344,-0.33845847845077515
1761338316321458000,5.1444580078125,-0.2886098623275757,-0.23168431222438812,-0.13441923260688782
1761338316331522800,5.154522705078125,-0.40692397952079773,-0.13736580312252045,0.04751940444111824
1761338316341589000,5.164589111328125,-0.5265002250671387,-0.06749159097671509,0.14096952974796295
1761338316351655000,5.174655029296875,-0.6416001915931702,-0.056834690272808075,0.11355628073215485
1761338316361719800,5.1847197265625,-0.7513490915298462,-0.09460097551345825,0.026713795959949493
1761338316371786000,5.194785888671875,-0.8343092203140259,-0.10388075560331345,-0.059316158294677734
1761338316381851000,5.204850830078125,-0.8354548811912537,-0.022428246214985847,-0.05861468240618706
1761338316391917000,5.2149169921875,-0.7366265654563904,0.17810112237930298,0.06665322184562683
1761338316401983000,5.22498291015625,-0.5821067094802856,0.3639468550682068,0.24881389737129211
1761338316412048000,5.2350478515625,-0.38305380940437317,0.49147364497184753,0.3847549557685852
1761338316422113800,5.24511376953125,-0.14053721725940704,0.5960496664047241,0.39013415575027466
1761338316432179000,5.255178955078125,0.034144043922424316,0.6012495160102844,0.27791309356689453
1761338316442245000,5.2652451171875,0.15192094445228577,0.49079596996307373,0.09920040518045425
1761338316452311000,5.27531103515625,0.26520970463752747,0.2818339765071869,-0.11679953336715698
1761338316462376000,5.2853759765625,0.10596027225255966,-0.028885092586278915,-0.3978545069694519
1761338316472441900,5.29544189453125,-0.17008356750011444,-0.030613483861088753,-0.7733343839645386
1761338316482507000,5.305507080078125,-0.2530197501182556,-0.22446295619010925,-0.7501001954078674
1761338316492573000,5.315572998046875,-0.5218549370765686,-0.25541794300079346,-0.4648185968399048
1761338316502639000,5.32563916015625,-0.8291622996330261,-0.07195267826318741,-0.2897108197212219
1761338316512704000,5.3357041015625,-1.0234441757202148,-0.09490113705396652,-0.14428627490997314
1761338316522770000,5.34577001953125,-1.100779414176941,-0.2127123326063156,-0.016786154359579086
1761338316532835800,5.3558359375,-1.080470085144043,-0.3517570197582245,0.0367250069975853
1761338316542901000,5.36590087890625,-0.9947620034217834,-0.460511177778244,0.08751024305820465
1761338316552967200,5.37596728515625,-0.8600795269012451,-0.5072888135910034,0.1664484739303589
1761338316563031800,5.38603173828125,-0.7356835603713989,-0.5059107542037964,0.2354949712753296
1761338316573098000,5.396097900390625,-0.7479487657546997,-0.4753762483596802,0.31893712282180786
1761338316583164000,5.406163818359375,-0.7198325991630554,-0.17257118225097656,0.27974146604537964
1761338316593229000,5.41622900390625,-0.6075388193130493,0.21963414549827576,0.11800714582204819
1761338316603295000,5.426294921875,-0.5080479383468628,0.3272392153739929,-0.0035933377221226692
1761338316613359900,5.43635986328125,-0.4239008128643036,0.24039112031459808,-0.08411454409360886
1761338316623426000,5.446426025390625,-0.3101637065410614,0.0981723740696907,-0.22548913955688477
1761338316633492000,5.456491943359375,-0.2585497796535492,-0.12230966240167618,-0.48133236169815063
1761338316643557000,5.46655712890625,-0.2929258644580841,-0.2662469446659088,-0.7903608083724976
1761338316653622800,5.476622802734375,-0.3048349916934967,-0.3120141625404358,-1.0060118436813354
1761338316663689000,5.48668896484375,-0.2595205307006836,-0.5847181677818298,-0.8846600651741028
1761338316673753900,5.49675390625,-0.2082727998495102,-0.8404415249824524,-0.4867294728755951
1761338316683820000,5.506820068359375,-0.28425833582878113,-0.9366616010665894,0.05264605954289436
1761338316693885000,5.516885009765625,-0.4330795109272003,-0.8952262997627258,0.5901702046394348
1761338316703950800,5.526950927734375,-0.5699527859687805,-0.8520390391349792,1.0161850452423096
1761338316714017000,5.53701708984375,-0.6412687301635742,-0.811550498008728,1.329003930091858
1761338316724082000,5.54708203125,-0.6494227647781372,-0.7604415416717529,1.5205070972442627
1761338316734148000,5.557148193359375,-0.6085994243621826,-0.729882001876831,1.6153888702392578
1761338316744213000,5.567212890625,-0.5776039361953735,-0.6260378956794739,1.6596143245697021
1761338316754279000,5.57727880859375,-0.5944743156433105,-0.2837761640548706,1.528938889503479
1761338316764344800,5.5873447265625,-0.6369782090187073,0.05159083008766174,1.2181267738342285
1761338316774410000,5.597409912109375,-0.6663414239883423,0.2134694755077362,0.8145949840545654
1761338316784476200,5.60747607421875,-0.6972973942756653,0.34146082401275635,0.3716369569301605
1761338316794540800,5.617540771484375,-0.7006162405014038,0.4388164281845093,-0.0751248151063919
1761338316804607000,5.62760693359375,-0.7028470635414124,0.4292227327823639,-0.4994184076786041
1761338316814673000,5.6376728515625,-0.6640251278877258,0.3255506753921509,-0.85601806640625
1761338316824738000,5.647738037109375,-0.576154351234436,0.19266663491725922,-1.1417802572250366
1761338316834804000,5.657803955078125,-0.4601026475429535,0.07090239226818085,-1.3250558376312256
1761338316844870000,5.667869873046875,-0.3278886377811432,0.01955372467637062,-1.4109127521514893
1761338316854935000,5.67793505859375,-0.21239054203033447,0.03867309167981148,-1.3530036211013794
1761338316865001000,5.6880009765625,-0.12180767953395844,0.11150778084993362,-1.1866912841796875
1761338316875066000,5.698066162109375,-0.04917476326227188,0.14851106703281403,-0.9241869449615479
1761338316885132000,5.708132080078125,-0.01748182624578476,0.15922150015830994,-0.6019974946975708
1761338316895198000,5.718197998046875,-0.030285771936178207,0.14281615614891052,-0.291016161441803
1761338316905262800,5.728262939453125,-0.06548841297626495,0.09613143652677536,0.0023826113902032375
1761338316915328000,5.738327880859375,-0.1192653626203537,0.062409959733486176,0.2426074594259262
1761338316925393200,5.74839306640625,-0.16220124065876007,0.05696450173854828,0.4424160420894623
1761338316935458800,5.758458740234375,-0.18122899532318115,0.04938194900751114,0.5876861214637756
1761338316945525000,5.76852490234375,-0.18305769562721252,0.036676786839962006,0.6687974333763123
1761338316955590000,5.77858984375,-0.16291220486164093,0.08353723585605621,0.673747181892395
1761338316965656000,5.788656005859375,-0.10122764855623245,0.15049755573272705,0.588017463684082
1761338316975721000,5.798720947265625,0.004052171483635902,0.1828371286392212,0.41770139336586
1761338316985787000,5.808786865234375,0.07770153880119324,0.16511809825897217,0.20391249656677246
1761338316995853000,5.81885302734375,0.13029710948467255,0.10469388961791992,-0.029872845858335495
1761338317005918000,5.82891796875,0.18147647380828857,0.0020657358691096306,-0.2489546537399292
1761338317015984000,5.838984130859375,0.22386440634727478,-0.10263936966657639,-0.4379751980304718
1761338317026050000,5.849050048828125,0.2563522160053253,-0.22413647174835205,-0.5612775683403015
1761338317036115000,5.859114990234375,0.28403154015541077,-0.3714739978313446,-0.5870124697685242
1761338317046180900,5.869180908203125,0.37315833568573,-0.4447758197784424,-0.5741727352142334
1761338317056246000,5.87924609375,0.4560716152191162,-0.43209198117256165,-0.5797209143638611
1761338317066312200,5.889312255859375,0.3584417998790741,-0.4483259916305542,-0.5966014266014099
1761338317076378000,5.899378173828125,0.12484823167324066,-0.476879358291626,-0.5820578932762146
1761338317086443000,5.909443115234375,-0.13995800912380219,-0.4754347503185272,-0.5016177892684937
1761338317096509000,5.919509033203125,-0.4347984194755554,-0.5119549632072449,-0.3692379593849182
1761338317106574000,5.929573974609375,-0.5677145719528198,-0.474123477935791,-0.24147899448871613
1761338317116640000,5.939639892578125,-0.5974681973457336,-0.3733800947666168,-0.12246497720479965
1761338317126706000,5.949705810546875,-0.5673869848251343,-0.2130662202835083,0.00275709992274642
1761338317136771000,5.95977099609375,-0.4919961094856262,-0.03433641418814659,0.17630943655967712
1761338317146837000,5.9698369140625,-0.3235839009284973,0.28750157356262207,0.2818840444087982
1761338317156902100,5.979902099609375,-0.1087656021118164,0.37648841738700867,0.4049026370048523
1761338317166968000,5.989968017578125,0.08148825913667679,0.3082953691482544,0.5754205584526062
1761338317177034000,6.000033935546875,0.24434083700180054,0.11098363250494003,0.8328904509544373
1761338317187099000,6.010098876953125,0.25129249691963196,-0.19654372334480286,1.1593633890151978
1761338317197165000,6.0201650390625,0.1356963813304901,-0.3222486674785614,1.394182562828064
1761338317207231000,6.03023095703125,0.1531684845685959,-0.14466728270053864,1.45480477809906
1761338317217296000,6.0402958984375,0.05960310623049736,0.1627882570028305,1.2766085863113403
1761338317227361800,6.05036181640625,-0.10157334059476852,0.5626968145370483,0.932299792766571
1761338317237427000,6.060427001953125,-0.1080368310213089,0.9077828526496887,0.5701926946640015
1761338317247493000,6.0704931640625,0.03668807074427605,0.9690039753913879,0.2564856708049774
1761338317257559000,6.08055908203125,0.19512590765953064,0.7466545104980469,-0.07461795210838318
1761338317267624000,6.0906240234375,0.25594156980514526,0.36423107981681824,-0.47135674953460693
1761338317277689900,6.10068994140625,0.31751757860183716,0.1328468769788742,-0.9822933077812195
1761338317287755000,6.110755126953125,0.47483181953430176,0.23543712496757507,-1.7126814126968384
1761338317297821000,6.120821044921875,0.6140413880348206,0.3726482689380646,-2.4416260719299316
1761338317307887000,6.13088720703125,0.5728887915611267,-0.018069138750433922,-2.3813886642456055
1761338317317952000,6.140951904296875,0.4069458842277527,-0.23755913972854614,-1.556290626525879
1761338317328018000,6.151017822265625,0.014393793419003487,-0.2962398827075958,-0.38810139894485474
1761338317338084000,6.161083984375,-0.5804538726806641,-0.3541654944419861,0.7681001424789429
1761338317348149000,6.17114892578125,-1.016205906867981,-0.49152427911758423,1.6639958620071411
1761338317358215200,6.181215087890625,-1.2197904586791992,-0.39352020621299744,2.2225213050842285
1761338317368279800,6.19127978515625,-1.2763903141021729,0.04800764098763466,2.452376365661621
1761338317378346000,6.201345947265625,-1.2642406225204468,0.5274253487586975,2.4527125358581543
1761338317388412000,6.211411865234375,-1.161962866783142,0.8308737874031067,2.3194854259490967
1761338317398477000,6.22147705078125,-0.9782803654670715,0.9988598227500916,2.0627381801605225
1761338317408543200,6.231543212890625,-0.6886498928070068,1.018581748008728,1.744866132736206
1761338317418607900,6.24160791015625,-0.3735821843147278,0.8908989429473877,1.3775978088378906
1761338317428674000,6.251674072265625,-0.1449192464351654,0.6988276839256287,1.006869912147522
1761338317438740000,6.261739990234375,-0.06773524731397629,0.49306440353393555,0.649640679359436
1761338317448805000,6.27180517578125,-0.10992512106895447,0.26598280668258667,0.3137245178222656
1761338317458870800,6.281870849609375,-0.19432975351810455,-0.0037573426961898804,-0.019755447283387184
1761338317468936000,6.29193603515625,-0.24712111055850983,-0.32859864830970764,-0.36524513363838196
1761338317479002000,6.302002197265625,-0.24077212810516357,-0.7403625249862671,-0.689690887928009
1761338317489068000,6.312068115234375,-0.1900758445262909,-1.099858045578003,-0.9767916798591614
1761338317499133200,6.32213330078125,-0.002179977484047413,-1.1246206760406494,-1.3601751327514648
1761338317509198800,6.33219873046875,0.18656793236732483,-0.915600061416626,-1.8112560510635376
1761338317519265000,6.34226513671875,0.21570292115211487,-0.7334758043289185,-2.087414503097534
1761338317529330000,6.352329833984375,0.11893622577190399,-0.7971832156181335,-1.840714693069458
1761338317539396000,6.36239599609375,0.026035314425826073,-0.6939290165901184,-1.2946351766586304
1761338317549461000,6.3724609375,-0.06857448816299438,-0.49050167202949524,-0.6819389462471008
1761338317559527000,6.38252685546875,-0.2898586690425873,-0.3007602393627167,-0.13304604589939117
1761338317569592800,6.3925927734375,-0.5848211050033569,-0.15751853585243225,0.31390833854675293
1761338317579658000,6.402657958984375,-0.861346960067749,-0.03251161426305771,0.6222546696662903
1761338317589724200,6.41272412109375,-1.1076319217681885,0.14235620200634003,0.7710343599319458
1761338317599788800,6.422788818359375,-1.3251702785491943,0.3944563865661621,0.7362183332443237
1761338317609855000,6.43285498046875,-1.470308780670166,0.6148616671562195,0.5833799839019775
1761338317619921000,6.4429208984375,-1.5563712120056152,0.7296748161315918,0.39000120759010315
1761338317629986000,6.452986083984375,-1.575513482093811,0.754772961139679,0.19407670199871063
1761338317640052000,6.463052001953125,-1.5638041496276855,0.751176118850708,0.015916287899017334
1761338317650118100,6.4731181640625,-1.5282915830612183,0.7411013245582581,-0.13549818098545074
1761338317660183000,6.48318310546875,-1.4890685081481934,0.7504660487174988,-0.28901156783103943
1761338317670249000,6.4932490234375,-1.4208598136901855,0.6549990177154541,-0.4197927713394165
1761338317680314000,6.503314208984375,-1.3133571147918701,0.4122910499572754,-0.46964529156684875
1761338317690380000,6.513380126953125,-1.1642374992370605,0.1988089680671692,-0.41696006059646606
1761338317700446000,6.523446044921875,-0.9960108399391174,0.13628247380256653,-0.3501133620738983
1761338317710510800,6.5335107421875,-0.848257839679718,0.1216220110654831,-0.3197556734085083
1761338317720577000,6.543576904296875,-0.7376850247383118,0.14676758646965027,-0.3387264609336853
1761338317730642200,6.55364208984375,-0.7372198104858398,0.22389933466911316,-0.37741491198539734
1761338317740708000,6.5637080078125,-0.8713142275810242,0.33013227581977844,-0.38683584332466125
1761338317750774000,6.57377392578125,-1.0884445905685425,0.37633994221687317,-0.35327351093292236
1761338317760839000,6.5838388671875,-1.3034985065460205,0.334172785282135,-0.2917238473892212
1761338317770905000,6.593905029296875,-1.4875608682632446,0.25722450017929077,-0.2401529997587204
1761338317780970000,6.603969970703125,-1.6562225818634033,0.20525024831295013,-0.19135163724422455
1761338317791036000,6.614035888671875,-1.778293490409851,0.18737474083900452,-0.1237705871462822
1761338317801101800,6.624101806640625,-1.8437254428863525,0.16277192533016205,-0.031151704490184784
1761338317811167000,6.6341669921875,-1.8443862199783325,0.09294748306274414,0.04996952414512634
1761338317821233200,6.644233154296875,-1.7678173780441284,0.013091002590954304,0.11898907274007797
1761338317831298000,6.654298095703125,-1.6348073482513428,-0.06827469170093536,0.1809866726398468
1761338317841364000,6.664364013671875,-1.4587234258651733,-0.16976429522037506,0.22614136338233948
1761338317851430000,6.674429931640625,-1.2731534242630005,-0.24571512639522552,0.2672329246997833
1761338317861495000,6.6844951171875,-1.0549280643463135,-0.27431508898735046,0.29702863097190857
1761338317871561000,6.69456103515625,-0.8155040740966797,-0.2501049339771271,0.3417491912841797
1761338317881627100,6.704627197265625,-0.6415647864341736,-0.21486492455005646,0.4237569570541382
1761338317891692000,6.714692138671875,-0.6034575700759888,-0.08419293910264969,0.5072156190872192
1761338317901758000,6.724758056640625,-0.7091326117515564,0.15604975819587708,0.5363783240318298
1761338317911824000,6.734823974609375,-0.8387308120727539,0.18640044331550598,0.45076408982276917
1761338317921889800,6.744889892578125,-0.8754991888999939,-0.016163848340511322,0.2031300663948059
1761338317931955700,6.754955810546875,-0.935835063457489,-0.29202982783317566,-0.10476507991552353
1761338317942020900,6.765020751953125,-1.1250361204147339,-0.4968183934688568,-0.3843165636062622
1761338317952087000,6.775087158203125,-1.3783764839172363,-0.7051413059234619,-0.5872132182121277
1761338317962151700,6.785151611328125,-1.5414764881134033,-0.8937024474143982,-0.7236770391464233
1761338317972217900,6.7952177734375,-1.552186131477356,-0.9662671685218811,-0.7670363187789917
1761338317982283800,6.80528369140625,-1.3508201837539673,-0.852558970451355,-0.6586843132972717
1761338317992349000,6.815348876953125,-0.9678717851638794,-0.5535777807235718,-0.3856671452522278
1761338318002414800,6.825414794921875,-0.5592483282089233,-0.2931280732154846,0.042417608201503754
1761338318012480800,6.835480712890625,-0.3275981843471527,-0.2188422977924347,0.571203887462616
1761338318022546000,6.8455458984375,-0.2546054720878601,-0.29214394092559814,1.093263030052185
1761338318032611800,6.85561181640625,-0.1913757473230362,-0.6085049510002136,1.5916681289672852
1761338318042677000,6.865677001953125,-0.14558002352714539,-1.0488723516464233,2.012453556060791
1761338318052742700,6.87574267578125,-0.23023059964179993,-1.3708826303482056,2.2170825004577637
1761338318062808800,6.885808837890625,-0.45707517862319946,-1.50730562210083,2.1176936626434326
1761338318072873700,6.895873779296875,-0.7676084637641907,-1.4619706869125366,1.7764942646026611
1761338318082940000,6.90593994140625,-1.0649317502975464,-1.1494591236114502,1.2910093069076538
1761338318093005000,6.916005126953125,-1.3049226999282837,-0.6017519235610962,0.6745522022247314
1761338318103070700,6.92607080078125,-1.560289978981018,-0.07101721316576004,0.004778875038027763
1761338318113137000,6.936136962890625,-1.7798243761062622,0.35844430327415466,-0.593696653842926
1761338318123201800,6.946201904296875,-1.9479122161865234,0.6238464117050171,-1.0724602937698364
1761338318133268000,6.95626806640625,-2.06064510345459,0.7175405621528625,-1.440807580947876
1761338318143334000,6.966333984375,-2.1269052028656006,0.6846364140510559,-1.6927770376205444
1761338318153398800,6.976398681640625,-2.168602705001831,0.600193440914154,-1.7932177782058716
1761338318163464700,6.986464599609375,-2.1983156204223633,0.4897870123386383,-1.703076720237732
1761338318173529900,6.99652978515625,-2.2324531078338623,0.4105082154273987,-1.4302504062652588
1761338318183595800,7.006595703125,-2.270397901535034,0.4170481264591217,-1.0145347118377686
1761338318193662000,7.016661865234375,-2.313225507736206,0.4643175005912781,-0.5385729670524597
1761338318203726800,7.026726806640625,-2.345722198486328,0.5295507907867432,-0.10466892272233963
1761338318213792800,7.036792724609375,-2.3376412391662598,0.6367515325546265,0.224661722779274
1761338318223858000,7.04685791015625,-2.2597920894622803,0.7867748737335205,0.39708757400512695
1761338318233923800,7.056923828125,-2.098616123199463,0.9961034059524536,0.4259146749973297
1761338318243990000,7.066989990234375,-1.904050588607788,1.143196940422058,0.3621801435947418
1761338318254055000,7.077054931640625,-1.766435146331787,1.1078308820724487,0.2678210437297821
1761338318264120800,7.087120849609375,-1.7011911869049072,0.9429303407669067,0.17457018792629242
1761338318274186000,7.09718603515625,-1.6980953216552734,0.7448934316635132,0.06575911492109299
1761338318284252000,7.107251953125,-1.7497425079345703,0.5862957835197449,-0.07256679981946945
1761338318294317800,7.11731787109375,-1.839471459388733,0.5343053340911865,-0.2467704862356186
1761338318304382700,7.1273828125,-1.9621539115905762,0.513724684715271,-0.40554869174957275
1761338318314449000,7.137448974609375,-2.1149094104766846,0.43713024258613586,-0.5164989829063416
1761338318324514800,7.147514892578125,-2.2498703002929688,0.2809648811817169,-0.5570037961006165
1761338318334580000,7.157580078125,-2.304023504257202,0.14138667285442352,-0.5112000107765198
1761338318344645600,7.167645751953125,-2.264333724975586,0.06475821137428284,-0.4018841087818146
1761338318354710800,7.177710693359375,-2.1866822242736816,0.047958359122276306,-0.2485044151544571
1761338318364777000,7.18777685546875,-2.1266069412231445,0.06121530756354332,-0.07844052463769913
1761338318374843000,7.1978427734375,-2.099973201751709,0.08772704750299454,0.06671056151390076
1761338318384907800,7.20790771484375,-2.0849945545196533,0.12132042646408081,0.166422501206398
1761338318394973700,7.2179736328125,-2.07460880279541,0.15416240692138672,0.19933097064495087
1761338318405038800,7.228038818359375,-2.0572903156280518,0.13562601804733276,0.1699080914258957
1761338318415104800,7.238104736328125,-2.049685001373291,0.09997142851352692,0.10085316002368927
1761338318425171000,7.2481708984375,-2.0385830402374268,0.10277387499809265,-0.00408870168030262
1761338318435235800,7.25823583984375,-2.051138401031494,0.09790574759244919,-0.09084377437829971
1761338318445301800,7.2683017578125,-2.151486396789551,0.037886083126068115,-0.14721010625362396
1761338318455367000,7.278366943359375,-2.425971746444702,-0.09647129476070404,-0.06614574790000916
1761338318465432800,7.288432861328125,-2.9585347175598145,-0.3797570765018463,0.2125796377658844
1761338318475499000,7.2984990234375,-3.2472689151763916,-0.5102291703224182,0.489869624376297
1761338318485563600,7.308563720703125,-3.1610288619995117,-0.4204143285751343,0.6315649747848511
1761338318495629800,7.3186298828125,-2.7279348373413086,-0.09283389896154404,0.585507333278656
1761338318505695700,7.32869580078125,-2.157060384750366,0.12216123938560486,0.41574254631996155
1761338318515761000,7.338760986328125,-1.5768425464630127,0.0847465842962265,0.17248336970806122
1761338318525826800,7.348826904296875,-1.1096622943878174,-0.15731185674667358,-0.10231064260005951
1761338318535891700,7.3588916015625,-0.8015995025634766,-0.38181713223457336,-0.3277584910392761
1761338318545958000,7.3689580078125,-0.6155332326889038,-0.4166233241558075,-0.4079665243625641
1761338318556023800,7.37902392578125,-0.48962536454200745,-0.3300511837005615,-0.3126559555530548
1761338318566089000,7.3890888671875,-0.47021251916885376,-0.3685104250907898,0.013777538202702999
1761338318576155000,7.39915478515625,-0.5192822217941284,-0.46833834052085876,0.46460264921188354
1761338318586219800,7.4092197265625,-0.5664507746696472,-0.4959726333618164,0.898074746131897
1761338318596285700,7.41928564453125,-0.669484555721283,-0.48528313636779785,1.2218163013458252
1761338318606352000,7.429351806640625,-0.8711125254631042,-0.4542863368988037,1.4144110679626465
1761338318616417000,7.4394169921875,-1.112024188041687,-0.37049826979637146,1.4485505819320679
1761338318626482700,7.449482666015625,-1.2744922637939453,-0.19434483349323273,1.2402604818344116
1761338318636548900,7.459548828125,-1.3073451519012451,-0.01855999231338501,0.8415654301643372
1761338318646613800,7.46961376953125,-1.226718783378601,0.1272672414779663,0.38327643275260925
1761338318656680000,7.479679931640625,-1.0854061841964722,0.2524787485599518,-0.039874229580163956
1761338318666744800,7.489744873046875,-0.9682521224021912,0.3510042428970337,-0.3685801923274994
1761338318676810800,7.499810791015625,-0.9065130352973938,0.3997127115726471,-0.6136776804924011
1761338318686876700,7.509876708984375,-0.9345766305923462,0.40906813740730286,-0.7739773392677307
1761338318696941800,7.51994189453125,-1.0414091348648071,0.3546231985092163,-0.8354904651641846
1761338318707008000,7.530008056640625,-1.1804205179214478,0.23555323481559753,-0.8246889114379883
1761338318717072600,7.54007275390625,-1.3104264736175537,0.04429249465465546,-0.7383846044540405
1761338318727138800,7.550138916015625,-1.402084231376648,-0.17849531769752502,-0.5926865339279175
1761338318737204700,7.560204833984375,-1.4619163274765015,-0.36499544978141785,-0.4221208095550537
1761338318747270000,7.570269775390625,-1.5048718452453613,-0.5029664039611816,-0.2664790153503418
1761338318757335800,7.580335693359375,-1.5258523225784302,-0.5220142006874084,-0.15881040692329407
1761338318767400700,7.590400634765625,-1.5192631483078003,-0.39424529671669006,-0.1237030178308487
1761338318777467000,7.600466796875,-1.4940577745437622,-0.19300901889801025,-0.12617377936840057
1761338318787532800,7.61053271484375,-1.4350917339324951,0.06540549546480179,-0.13101807236671448
1761338318797598000,7.620597900390625,-1.366183876991272,0.3328779935836792,-0.09366174787282944
1761338318807663900,7.630663818359375,-1.317159652709961,0.5558626055717468,-0.02580386772751808
1761338318817730000,7.64072998046875,-1.321475625038147,0.6963087916374207,0.07488933205604553
1761338318827794700,7.650794677734375,-1.3823323249816895,0.7578267455101013,0.1772681623697281
1761338318837860900,7.66086083984375,-1.4876453876495361,0.7278938889503479,0.24658367037773132
1761338318847926000,7.670926025390625,-1.6186769008636475,0.6434599757194519,0.2628164291381836
1761338318857992000,7.680991943359375,-1.7537169456481934,0.563281774520874,0.24655702710151672
1761338318868057600,7.6910576171875,-1.879917025566101,0.5151720643043518,0.19993333518505096
1761338318878122800,7.701122802734375,-2.0021932125091553,0.4243338704109192,0.11260595172643661
1761338318888189000,7.71118896484375,-2.1271448135375977,0.32945477962493896,0.01930929347872734
1761338318898253800,7.72125390625,-2.2545764446258545,0.2528058886528015,-0.07050512731075287
1761338318908320000,7.731320068359375,-2.386298656463623,0.2028617560863495,-0.17058220505714417
1761338318918385700,7.7413857421875,-2.4838061332702637,0.19849231839179993,-0.2673436403274536
1761338318928450800,7.751450927734375,-2.5481350421905518,0.21560285985469818,-0.3537440598011017
1761338318938516700,7.761516845703125,-2.5989606380462646,0.1744178980588913,-0.4436904788017273
1761338318948583000,7.7715830078125,-2.6763534545898438,0.014848481863737106,-0.532101035118103
1761338318958647800,7.781647705078125,-2.7801051139831543,-0.20676524937152863,-0.5999286770820618
1761338318968713700,7.791713623046875,-2.8792359828948975,-0.3823978006839752,-0.6127288937568665
1761338318978779000,7.80177880859375,-2.9316508769989014,-0.5024216771125793,-0.5891764163970947
1761338318988844800,7.8118447265625,-2.927091360092163,-0.628200352191925,-0.5222072005271912
1761338318998911000,7.821910888671875,-2.8896126747131348,-0.6848976612091064,-0.4064069092273712
1761338319008976000,7.831975830078125,-2.8229846954345703,-0.6488629579544067,-0.257623553276062
1761338319019041800,7.842041748046875,-2.7281723022460938,-0.559933066368103,-0.09712060540914536
1761338319029107000,7.85210693359375,-2.5773823261260986,-0.4443681538105011,0.050416119396686554
1761338319039172900,7.8621728515625,-2.3646676540374756,-0.3227384090423584,0.16419675946235657
1761338319049239000,7.872239013671875,-2.117274522781372,-0.17711780965328217,0.27599653601646423
1761338319059303700,7.8823037109375,-1.8655707836151123,-0.10183484107255936,0.3704686760902405
1761338319069369900,7.892369873046875,-1.6750266551971436,-0.2209244817495346,0.40271633863449097
1761338319079434800,7.902434814453125,-1.579923391342163,-0.47922375798225403,0.3428153395652771
1761338319089501000,7.9125009765625,-1.5446696281433105,-0.6917869448661804,0.21675431728363037
1761338319099566800,7.92256689453125,-1.5194714069366455,-0.776131808757782,0.07644468545913696
1761338319109631700,7.9326318359375,-1.4991562366485596,-0.7582641243934631,-0.08617405593395233
1761338319119698000,7.942697998046875,-1.4545440673828125,-0.6175737977027893,-0.24677921831607819
1761338319129763800,7.952763916015625,-1.3913480043411255,-0.44329437613487244,-0.3902234733104706
1761338319139829000,7.9628291015625,-1.3225947618484497,-0.3188285827636719,-0.5080620050430298
1761338319149894700,7.972894775390625,-1.2809624671936035,-0.2586885690689087,-0.6050825119018555
1761338319159959800,7.982959716796875,-1.3637803792953491,-0.1937796175479889,-0.737712025642395
1761338319170025700,7.993025634765625,-1.5003055334091187,-0.06258484721183777,-0.9210195541381836
1761338319180092000,8.003091796875,-1.5874532461166382,0.0943610891699791,-1.1624614000320435
1761338319190157000,8.013156982421876,-1.6250032186508179,0.17021751403808594,-1.4269306659698486
1761338319200221700,8.0232216796875,-1.6111817359924316,0.17094406485557556,-1.6451654434204102
1761338319210287900,8.033287841796875,-1.5658520460128784,0.1440165638923645,-1.760365605354309
1761338319220353800,8.043353759765624,-1.5188848972320557,0.18215610086917877,-1.701691746711731
1761338319230419000,8.0534189453125,-1.4951285123825073,0.2963753640651703,-1.4578742980957031
1761338319240484600,8.063484619140626,-1.4754122495651245,0.4155028462409973,-1.0284732580184937
1761338319250549800,8.0735498046875,-1.4078686237335205,0.5131726861000061,-0.4596673250198364
1761338319260616000,8.083615966796875,-1.2686396837234497,0.5055029988288879,0.14698408544063568
1761338319270681900,8.093681884765624,-1.0833622217178345,0.44008857011795044,0.7191255688667297
1761338319280747000,8.1037470703125,-0.8486771583557129,0.3742819130420685,1.2267272472381592
1761338319290812700,8.113812744140626,-0.6050964593887329,0.26563242077827454,1.6567566394805908
1761338319300878800,8.12387890625,-0.3751540780067444,0.12358289211988449,1.9927409887313843
1761338319310943700,8.13394384765625,-0.18345841765403748,-0.03125995025038719,2.2301197052001953
1761338319321010000,8.144010009765625,-0.07606685161590576,-0.181183323264122,2.329033851623535
1761338319331074800,8.15407470703125,-0.05571470782160759,-0.29672881960868835,2.2792012691497803
1761338319341140700,8.164140625,-0.11206211149692535,-0.38582611083984375,2.0922417640686035
1761338319351206700,8.17420654296875,-0.25728854537010193,-0.4577791392803192,1.803560495376587
1761338319361271800,8.184271728515625,-0.4921265244483948,-0.4964858889579773,1.4440230131149292
1761338319371338000,8.194337890625,-0.7399986386299133,-0.5574227571487427,0.9655960202217102
1761338319381402600,8.204402587890625,-1.0138888359069824,-0.6781246066093445,0.39994436502456665
1761338319391468800,8.21446875,-1.2837868928909302,-0.7597329020500183,-0.19376131892204285
1761338319401534700,8.22453466796875,-1.5083082914352417,-0.6712860465049744,-0.7425864338874817
1761338319411600000,8.234599853515626,-1.6504249572753906,-0.48954474925994873,-1.19199538230896
1761338319421665800,8.244665771484375,-1.6964664459228516,-0.33696550130844116,-1.4978853464126587
1761338319431732000,8.25473193359375,-1.6807169914245605,-0.3422311246395111,-1.658998966217041
1761338319441796900,8.264796875,-1.6644994020462036,-0.4516546428203583,-1.6781868934631348
1761338319451862800,8.27486279296875,-1.6754093170166016,-0.5038613677024841,-1.5411291122436523
1761338319461928000,8.284927978515626,-1.6783839464187622,-0.41934308409690857,-1.2701215744018555
1761338319471993900,8.294993896484375,-1.6477006673812866,-0.27482932806015015,-0.936633288860321
1761338319482059800,8.305059814453125,-1.576249122619629,-0.08004359155893326,-0.6154491901397705
1761338319492124700,8.315124755859374,-1.4392504692077637,0.14214631915092468,-0.3434956967830658
1761338319502190800,8.32519091796875,-1.2575145959854126,0.34794881939888,-0.1284538060426712
1761338319512256000,8.335256103515626,-1.0841854810714722,0.46192678809165955,0.03531862050294876
1761338319522322000,8.345322021484375,-0.9467381238937378,0.4598957300186157,0.15324467420578003
1761338319532387800,8.355387939453125,-0.8381591439247131,0.38792726397514343,0.22409594058990479
1761338319542452700,8.36545263671875,-0.7451286911964417,0.31424951553344727,0.24725010991096497
1761338319552519000,8.375518798828125,-0.6721429228782654,0.23934492468833923,0.2206571102142334
1761338319562583800,8.385583740234376,-0.6358261108398438,0.15346597135066986,0.1425068974494934
1761338319572649700,8.395649658203125,-0.6413100957870483,0.04437170550227165,0.02625112608075142
1761338319582715600,8.405715576171875,-0.6771695017814636,-0.04622640088200569,-0.1055152416229248
1761338319592781800,8.41578173828125,-0.7477185130119324,-0.09776735305786133,-0.2587585747241974
1761338319602847000,8.425846923828125,-0.8088523149490356,-0.12953698635101318,-0.4063950777053833
1761338319612913000,8.435912841796876,-0.8277402520179749,-0.10752462595701218,-0.5010712742805481
1761338319622977800,8.445977783203125,-0.8249092102050781,-0.00038146693259477615,-0.5204085111618042
1761338319633043700,8.456043701171875,-0.811845064163208,0.10286422818899155,-0.4736569821834564
1761338319643110000,8.46610986328125,-0.8406075239181519,0.13469278812408447,-0.38278454542160034
1761338319653174800,8.4761748046875,-0.8862892985343933,0.11558566987514496,-0.27719953656196594
1761338319663241000,8.486240966796874,-0.927446722984314,0.09846241027116776,-0.16278091073036194
1761338319673305900,8.496305908203125,-0.9443655610084534,0.0953289344906807,-0.05209275335073471
1761338319683371800,8.506371826171875,-0.9387155771255493,0.0844440907239914,0.02468855306506157
1761338319693437700,8.516437744140624,-0.9117140769958496,0.08007384836673737,0.053727127611637115
1761338319703502800,8.5265029296875,-0.88359135389328,0.09025678783655167,0.06601600348949432
1761338319713569000,8.536569091796874,-0.8533629179000854,0.09691575914621353,0.06402130424976349
1761338319723633700,8.546633544921875,-0.8088171482086182,0.039881493896245956,0.07960255444049835
1761338319733699800,8.556699951171876,-0.7170193195343018,-0.03349285572767258,0.1756662279367447
1761338319743765800,8.566765869140625,-0.5825932025909424,-0.05530538409948349,0.33895623683929443
1761338319753831000,8.576830810546875,-0.43090754747390747,-0.020989488810300827,0.4941628873348236
1761338319763896800,8.586896728515624,-0.322014182806015,0.018690019845962524,0.6480337977409363
1761338319773962800,8.596962646484375,-0.26194044947624207,0.05994531512260437,0.7932125329971313
1761338319784028000,8.60702783203125,-0.22793380916118622,0.09750127047300339,0.9668980836868286
1761338319794093800,8.61709375,-0.2823030352592468,0.16838103532791138,1.1034960746765137
1761338319804159000,8.627158935546875,-0.2642548084259033,0.33411547541618347,1.1948028802871704
1761338319814224600,8.637224609375,-0.17190274596214294,0.5853503942489624,1.167919635772705
1761338319824290800,8.647290771484375,-0.08288578689098358,0.7876385450363159,0.9674882292747498
1761338319834355700,8.657355712890626,0.011392781510949135,0.9208272099494934,0.6331989169120789
1761338319844422000,8.667421875,0.10756455361843109,1.0263862609863281,0.21929284930229187
1761338319854487000,8.677487060546875,0.17866216599941254,1.0715646743774414,-0.21223857998847961
1761338319864552700,8.687552734375,0.19840393960475922,0.9668025970458984,-0.5663237571716309
1761338319874619000,8.697618896484375,0.14773090183734894,0.7162622809410095,-0.7492357492446899
1761338319884683800,8.707683837890626,0.044251441955566406,0.4014967978000641,-0.7581573724746704
1761338319894750000,8.71775,-0.07383738458156586,0.1816970705986023,-0.6240240931510925
1761338319904815900,8.72781591796875,-0.13531047105789185,0.1706719994544983,-0.4348207414150238
1761338319914880300,8.73788037109375,-0.08926867693662643,0.4638514220714569,-0.2029920220375061
1761338319924946400,8.747946533203125,-0.0718178004026413,0.8257986307144165,0.280005544424057
1761338319935011300,8.75801123046875,-0.0565728060901165,0.7060847282409668,0.6506441235542297
1761338319945077500,8.768077392578125,-0.006030709948390722,0.535915732383728,0.9299786686897278
1761338319955143200,8.77814306640625,0.044013284146785736,0.2564569115638733,1.1294227838516235
1761338319965208300,8.788208251953124,0.0660213828086853,0.1127486601471901,1.2635166645050049
1761338319975274200,8.798274169921875,0.009103771299123764,0.05321875959634781,1.3257139921188354
1761338319985339400,8.80833935546875,-0.12187014520168304,-0.005775896366685629,1.2879830598831177
1761338319995405300,8.8184052734375,-0.28279486298561096,0.006098872981965542,1.1390117406845093
1761338320005471200,8.82847119140625,-0.459619402885437,0.10913082212209702,0.9001370668411255
1761338320015536400,8.838536376953124,-0.6368421316146851,0.26627570390701294,0.6338238716125488
1761338320025602300,8.848602294921875,-0.788711428642273,0.3382926285266876,0.40188613533973694
