time,seconds_elapsed,z,y,x
1761336325123776500,0.077776611328125,1.1589876647830009,0.4475859465897083,-0.45482324089948084
1761336325133842400,0.087842529296875,1.2644921123057604,0.48169718276709317,-0.42426863775774837
1761336325143909400,0.097909423828125,1.4271703994244336,0.5215823261708021,-0.43602549185119566
1761336325153975600,0.1079755859375,1.678233072438836,0.516785739544034,-0.44332653557956214
1761336325164042500,0.11804248046875,1.892140027013421,0.42135406548529863,-0.3950936889387667
1761336325174108400,0.1281083984375,1.9890870740711688,0.28642303247004747,-0.28353841694444415
1761336325184175600,0.138175537109375,1.799831745672226,0.14544921215921638,-0.057421695143450045
1761336325194241500,0.148241455078125,1.321951783105731,0.11706190658658742,0.1118182063799817
1761336325204307200,0.15830712890625,0.8288222289592028,0.3022203210607171,0.12623442500894888
1761336325214374400,0.16837451171875,0.5559580585032701,0.5914999120056629,0.07579288934273645
1761336325224440300,0.1784404296875,0.4853273559629917,0.822725081127882,-0.014081662045512347
1761336325234507300,0.18850732421875,0.5243085362643003,0.897640329119563,-0.05432816784121096
1761336325244573400,0.198573486328125,0.5153688584834337,0.8251479243606329,0.06209186064526438
1761336325254640400,0.208640380859375,0.3944435544669628,0.745813983143866,0.31662732433676716
1761336325264706300,0.218706298828125,0.13209376376271248,0.6939212988212704,0.5858500695504247
1761336325274772500,0.2287724609375,-0.20089666635394096,0.6024979836210608,0.7899683282993734
1761336325284839400,0.23883935546875,-0.5705711057454347,0.5311904047325253,0.9103496616322546
1761336325294905300,0.2489052734375,-0.9688011930137872,0.5136798824831843,0.9643561963036655
1761336325304972300,0.25897216796875,-1.2453344073712824,0.6312197818450629,1.0538828841023147
1761336325315038500,0.26903857421875,-1.4683663331657648,0.759643917184323,1.0976967452570796
1761336325325104400,0.2791044921875,-1.5905997971713541,0.7308458388537168,1.0930669665645807
1761336325335171600,0.289171630859375,-1.5780080266237257,0.5749971054941415,1.0808606151379645
1761336325345237500,0.299237548828125,-1.4395803836643695,0.323485227407515,1.067203188120201
1761336325355304400,0.309304443359375,-1.2415665792703627,0.09028408203721046,1.0511688028380275
1761336325365370600,0.31937060546875,-1.0028758965730666,-0.06580196720957755,0.9409584426466375
1761336325375437600,0.3294375,-0.7817991964995861,-0.1705902292869985,0.7880489776093512
1761336325385503500,0.33950341796875,-0.6668705025494098,-0.25658684326335784,0.5860166582889854
1761336325395569400,0.3495693359375,-0.6253501591593027,-0.37812823335155843,0.3736322371065616
1761336325405636400,0.35963623046875,-0.6774369047492742,-0.5400003186538815,0.19938158561587332
1761336325415702300,0.369702392578125,-0.7636936309665441,-0.7182856324881315,0.11231127799339592
1761336325425769200,0.379769287109375,-0.898908741620183,-0.8200316042602062,0.09613909167572855
1761336325435835400,0.38983544921875,-1.0456237359315157,-0.802055948717147,0.18367972022369503
1761336325445903400,0.3999033203125,-1.1837924356937408,-0.8195607718780636,0.21652495505325495
1761336325455969300,0.40996923828125,-1.4349679214328526,-0.8680889482036233,0.16137158843427896
1761336325466035500,0.420035400390625,-1.802815729919076,-0.9528112313952296,0.04457242443710565
1761336325476102400,0.430102294921875,-2.180287106797099,-0.8801200161285698,-0.00866875188499689
1761336325486168300,0.440168212890625,-2.355408111381531,-0.5862140805572271,-0.008050985312834382
1761336325496235300,0.4502353515625,-2.26187934833467,-0.3543610618602484,0.07932137399613856
1761336325506301400,0.460301513671875,-2.02466867506206,-0.2503469990257174,0.12324519833140074
1761336325516367000,0.4703671875,-1.7794062127590178,-0.2745902635961771,0.09597747137323022
1761336325526434300,0.480434326171875,-1.5122703568220137,-0.3877386500008404,0.0900791340496391
1761336325536500200,0.490500244140625,-1.2611363721370696,-0.5462492960460483,0.12190708159543573
1761336325546567200,0.500567138671875,-0.9825023861080407,-0.7035755546122789,0.12063976507335901
1761336325556633300,0.51063330078125,-0.6159370186477899,-0.6937976724416017,-0.005216565604507923
1761336325566700300,0.5207001953125,-0.2853168247938156,-0.6173667591899633,-0.1875397566527128
1761336325576766200,0.53076611328125,-0.12537234655320645,-0.6485125696904956,-0.31067641657572237
1761336325586832400,0.540832275390625,-0.09101941057443619,-0.7767780073367059,-0.43353005830626934
1761336325596899300,0.5508994140625,-0.15754150875210762,-0.8283393408130854,-0.6500856642261147
1761336325606965200,0.56096533203125,-0.3455746018797159,-0.8327335571840405,-0.9084286304417997
1761336325617032200,0.5710322265625,-0.49951136413812636,-0.8121306218773127,-1.1669551365308464
1761336325627098400,0.581098388671875,-0.5023574012190103,-0.7509411168992519,-1.4050249108508228
1761336325637165300,0.591165283203125,-0.4234259033232927,-0.6832244021095335,-1.5748644679009913
1761336325647231200,0.601231201171875,-0.3138648738861084,-0.7405013367537409,-1.6350008105643092
1761336325657297400,0.61129736328125,-0.221568282982707,-0.7453071296002716,-1.4822386450432241
1761336325667364400,0.6213642578125,-0.14230886830687522,-0.7145968609727918,-1.2577588585279882
1761336325677430300,0.63143017578125,0.026797406032681464,-0.6457582294810563,-1.041820251995325
1761336325687497500,0.64149755859375,0.29879589956998825,-0.4787799070809036,-0.9158017895583063
1761336325697563400,0.6515634765625,0.6278086582273245,-0.23081673445180056,-0.8272579753171652
1761336325707630300,0.66163037109375,0.8798170876592397,-0.028913959795236584,-0.70577182254754
1761336325717696300,0.6716962890625,0.9329775999605655,0.06907032135576009,-0.5371699905987829
1761336325727762200,0.68176220703125,0.8650789527326822,0.09299377938732505,-0.4296951928511262
1761336325737829000,0.6918291015625,0.8516074767410755,0.2029161894828081,-0.24138591313064098
1761336325747895300,0.701895263671875,0.8454156363636255,0.35112785209268327,0.015522417172044514
1761336325757962200,0.711962158203125,0.7805214316487312,0.4497954393327236,0.3441609356895089
1761336325768028200,0.722028076171875,0.6375403631687164,0.5271897907890379,0.6466453875791282
1761336325778094300,0.73209423828125,0.4846861354500055,0.5828188851609826,0.8494274292882531
1761336325788161300,0.742161376953125,0.3120125240176916,0.7334210961692035,0.9055836893394589
1761336325798227200,0.752227294921875,0.0902303060233593,0.8384687398351729,0.8671617503561079
1761336325808294400,0.76229443359375,-0.09614800563454627,0.6824760679602623,0.7519934024311602
1761336325818360300,0.7723603515625,-0.21012100629508493,0.3743259184591472,0.4594364703159779
1761336325828427300,0.78242724609375,-0.2389788519889116,0.1382568164370954,0.04211648265235126
1761336325838493400,0.792493408203125,-0.19210487261116505,-0.03755100136771798,-0.3107122550740838
1761336325848559400,0.802559326171875,-0.1607791754990816,-0.12484934559240936,-0.45899135689698156
1761336325858626300,0.812626220703125,-0.16786065819263457,-0.14816278196685015,-0.4340126176588237
1761336325868692500,0.8226923828125,-0.12090484575033188,-0.1981892340261489,-0.30946174355633554
1761336325878759400,0.832759521484375,-0.036466567131876945,-0.22890125621929763,-0.22449293825775385
1761336325888825000,0.8428251953125,0.030606150665879246,-0.19051051609180866,-0.2481653441376984
1761336325898892300,0.852892333984375,0.05134966348707676,-0.2082614229682833,-0.32373452599346636
1761336325908958200,0.862958251953125,0.058203767165541646,-0.21568740825057028,-0.37594387504979965
1761336325919024000,0.873024169921875,0.04207330109775066,-0.22256978817544876,-0.4556634545832872
1761336325929091300,0.88309130859375,-0.005865092641115188,-0.24725049431510268,-0.49140159784276033
1761336325939157200,0.8931572265625,-0.031096564531326292,-0.21884097691066562,-0.47706152232307936
1761336325949224200,0.90322412109375,0.0017938976794481276,-0.12461107985712587,-0.4145720041297376
1761336325959290400,0.913290283203125,0.017189619731903076,-0.04582381273768842,-0.3307003829507157
1761336325969357300,0.923357421875,-0.0017588263660669326,-0.04728504439666867,-0.19221578563973307
1761336325979423200,0.93342333984375,-0.038944355422258374,-0.061965311656147236,-0.08524594173952936
1761336325989489400,0.943489501953125,-0.16533727719485758,-0.009605813539400695,-0.11791311658844351
1761336325999556400,0.953556396484375,-0.38169980822801586,0.03598309446386993,-0.13483305253349243
1761336326009622300,0.963622314453125,-0.6043786828011274,0.0590338613141328,-0.08328194819018245
1761336326019689200,0.973689208984375,-0.823193283161521,0.09881057590730488,-0.07689531589299439
1761336326029755400,0.98375537109375,-0.8905798892140387,0.07465016731470824,-0.07257306877970696
1761336326039821300,0.9938212890625,-0.81802903226614,0.07196271832901983,-0.12630334379300476
1761336326049888300,1.00388818359375,-0.6715677204549312,0.012721972798556089,-0.1524639862921089
1761336326059954400,1.013954345703125,-0.5181587814629077,-0.09848247646410017,-0.17164609501548111
1761336326070021400,1.024021484375,-0.36980128064155576,-0.24053371674809604,-0.22667700429856777
1761336326080087300,1.03408740234375,-0.21871640068292617,-0.36932215535510327,-0.26933533874265847
1761336326090154500,1.044154541015625,-0.056846507337689395,-0.3946817836696282,-0.26420762046538293
1761336326100220200,1.05422021484375,0.08932897326946258,-0.41905112230516967,-0.2349288459457457
1761336326110286300,1.064286376953125,0.2218079369574785,-0.4763035070300102,-0.15798611071445046
1761336326120353300,1.074353271484375,0.3070458415210247,-0.5029111991768702,-0.08159808675646782
1761336326130419200,1.084419189453125,0.3352338251292705,-0.4973421303402632,-0.011573314220085739
1761336326140486100,1.094486083984375,0.2914525510698557,-0.4506443112470209,0.07681815900355576
1761336326150552300,1.10455224609375,0.20893910303413868,-0.36476650134474037,0.20305241961572318
1761336326160619300,1.114619384765625,0.09185878400802612,-0.23082051557777447,0.3512642283560708
1761336326170685200,1.124685302734375,-0.18309212959408758,-0.07853013228690252,0.5070565188206732
1761336326180751400,1.13475146484375,-0.44882045682072635,-0.0029048180634155866,0.6150672500759363
1761336326190818300,1.144818359375,-0.5813415060847997,0.1450122546472121,0.692794413683191
1761336326200884200,1.15488427734375,-0.6008417408466339,0.3383369422437623,0.7214508185207843
1761336326210951400,1.164951416015625,-0.5291700048208237,0.3522142225572839,0.7140570550076663
1761336326221017300,1.175017333984375,-0.4097808243304491,0.24452764522247014,0.6502996723029763
1761336326231083500,1.18508349609375,-0.3342103273004293,0.09158907282170839,0.5128288186118006
1761336326241150500,1.195150390625,-0.2617974175184965,-0.03294879566873424,0.30643275112397966
1761336326251216400,1.20521630859375,-0.18978081357777118,-0.03657263958854601,0.1636204633396119
1761336326261283300,1.215283447265625,-0.1545709685087204,0.04869554138225503,0.13003924238570033
1761336326271349200,1.225349365234375,-0.09817220493853092,0.05313290277519263,0.1670143435616046
1761336326281416200,1.235416259765625,-0.0359065951615572,0.0034826179513707755,0.12391736197192221
1761336326291482000,1.245482177734375,0.010852817925810812,-0.024658256845828144,-0.017946940905228255
1761336326301548300,1.25554833984375,0.03150105367898941,-0.05342269776831381,-0.181951362061128
1761336326311615200,1.265615234375,0.01686228747367859,-0.10718757830411195,-0.3296828764712438
1761336326321681200,1.27568115234375,-0.058191492205858224,-0.013993545370642095,-0.37134153235349804
1761336326331748400,1.285748291015625,-0.1812012012809515,0.08942399460915476,-0.32445458389632403
1761336326341814300,1.295814208984375,-0.26307868950068947,0.13487236163057387,-0.21249197321012614
1761336326351881200,1.305881103515625,-0.27437048336565495,0.19152073431396857,-0.13228654638845472
1761336326361947400,1.315947509765625,-0.22882278415560722,0.21589809185918418,-0.12472031238526105
1761336326372013300,1.326013427734375,-0.13838263477385043,0.16413922651670873,-0.20133494817335157
1761336326382080300,1.336080322265625,-0.06902560543119907,0.0901506649158895,-0.2804756683729589
1761336326392146400,1.346146484375,-0.029341829818487167,-0.02467639072414022,-0.3925681890491396
1761336326402213400,1.35621337890625,0.021996143230795857,-0.08707505686283111,-0.4638765716552734
1761336326412279300,1.366279296875,0.09351590356528758,-0.12454272732865064,-0.5554852168271318
1761336326422345500,1.376345458984375,0.15257190364599227,-0.1115426773742307,-0.5732177112640813
1761336326432412400,1.386412353515625,0.13665186545848845,-0.14825646986598148,-0.5595693078029901
1761336326442477800,1.396477783203125,0.11254150655269622,-0.12712583915703,-0.5435308308675885
1761336326452545000,1.406544921875,0.09140811763107776,-0.03447366714845411,-0.4628594305019825
1761336326462611000,1.41661083984375,0.05272562801539898,-0.010866118082089815,-0.30334676780737935
1761336326472678000,1.426677978515625,-0.002954173630475998,-0.0014405122417039818,-0.08733308674450964
1761336326482744000,1.436744140625,-0.09509119005799294,-0.13682508486723527,-0.11319003358930349
1761336326492810000,1.44681005859375,-0.10830372285246849,-0.22383394462605938,-0.19835300975311546
1761336326502877000,1.456876953125,-0.037792847299575806,-0.17277794858962298,-0.20752945543192325
1761336326512943000,1.466943115234375,0.04941021985709667,-0.09118367035859264,-0.2119777766102925
1761336326523010000,1.477010009765625,0.09307692762613295,-0.03696278968360275,-0.16842852120846508
1761336326533076000,1.487075927734375,0.04497895941138267,-0.041278684687917115,-0.07352236886117607
1761336326543142100,1.49714208984375,-0.0764133775949478,-0.08351325446171685,-0.00060143649186939
1761336326553209000,1.507208984375,-0.1565092430949211,-0.07280155747306999,0.0143604972532019
1761336326563275000,1.51727490234375,-0.18070260410904884,-0.03859727728394791,-0.002717259602062404
1761336326573342200,1.52734228515625,-0.20426409696042536,0.0703042059656931,0.033629188281483945
1761336326583408000,1.537408203125,-0.19127134439647198,0.1847579621807672,0.08560681094117462
1761336326593475000,1.54747509765625,-0.14688099852800368,0.19399695170177145,0.10707578849270939
1761336326603541200,1.557541259765625,-0.09312719650864601,0.12103763268399051,0.04264141984190792
1761336326613607000,1.56760693359375,-0.0710895522236824,0.0478528069477994,-0.09208338654413818
1761336326623674000,1.577674072265625,-0.08049977012574672,0.0024159751005470753,-0.2073886952543631
1761336326633740000,1.587739990234375,-0.07319500007033347,-0.006002254355791956,-0.26561332254484293
1761336326643807000,1.597806884765625,-0.05396247633397579,-0.012715588723542169,-0.2631646507510915
1761336326653873000,1.607872802734375,-0.0452262121707201,-0.006083457232685759,-0.23038466317746786
1761336326663939800,1.61793994140625,-0.0024818799436092374,0.06198825414031744,-0.18596129182223228
1761336326674006000,1.628006103515625,0.0858072288841009,0.141045707370108,-0.1385747963450849
1761336326684072000,1.638072021484375,0.11150690280795096,0.20153310109395534,-0.03743796944729984
1761336326694139000,1.648138916015625,0.10186696780323981,0.2193958708470687,0.06816138981729745
1761336326704205000,1.658205078125,0.06019172611236572,0.1835520387234166,0.1432578030621633
1761336326714272000,1.66827197265625,0.022601123386621475,0.001264138184301555,0.11073109612986445
1761336326724338200,1.678338134765625,-0.07192951017916202,-0.18124799956474452,0.023185462613217533
1761336326734404000,1.688404052734375,-0.20835458114445207,-0.2251554938197136,-0.10518142611347138
1761336326744471000,1.698470947265625,-0.30511750380694863,-0.2266441980075091,-0.20603015678487716
1761336326754537200,1.708537109375,-0.36145898423194883,-0.16049725328516215,-0.24240999548137188
1761336326764604200,1.718604248046875,-0.36950142091214655,-0.1215504867101088,-0.24277093774825334
1761336326774670000,1.728670166015625,-0.2917781297624111,-0.06837388179050759,-0.1326825234360993
1761336326784736300,1.738736328125,-0.19478490547537802,-0.0551729846348986,-0.065079863480106
1761336326794803200,1.74880322265625,-0.11240063677728175,-0.10602943951124325,-0.04037362104039639
1761336326804868900,1.758868896484375,-0.024769115075469014,-0.129037189203687,-0.08215572063922881
1761336326814936000,1.76893603515625,0.013851999741792678,-0.15652263229945673,-0.14683887641932813
1761336326825002000,1.779001953125,0.027968203377723693,-0.20396206354023888,-0.18630309099722653
1761336326835069000,1.78906884765625,0.01491933671236038,-0.22808466087309642,-0.2168068772671744
1761336326845134800,1.799134765625,0.03475333347320556,-0.2549484466728754,-0.2458714610468596
1761336326855201000,1.809200927734375,0.05200958870053291,-0.25543312491727993,-0.2082898818777874
1761336326865268000,1.81926806640625,0.045616088271141046,-0.22185732905715702,-0.09610599312372504
1761336326875334100,1.829334228515625,0.08083528569042682,-0.16727823692848906,0.013023805289342999
1761336326885401000,1.839401123046875,0.10155775572359561,-0.1256033240311779,0.07551259283032268
1761336326895467000,1.849467041015625,0.07049158633053303,-0.045535606913454825,0.14524846542272715
1761336326905533200,1.859533203125,0.015671616384387015,0.026544673380628228,0.16830116850174962
1761336326915600100,1.86960009765625,0.00417231724858284,0.05878383207581937,0.14589768657907842
1761336326925666000,1.879666015625,0.015105214673280715,0.056396790808811784,0.13866598175987602
1761336326935733000,1.88973291015625,0.000173018479347229,0.033323757327813654,0.19940540488287806
1761336326945799200,1.899799072265625,-0.006120528706908226,0.02929954331303015,0.23221805261708794
1761336326955866000,1.9098662109375,-0.031001287463307377,0.09808087339326739,0.21393793423473834
1761336326965932000,1.91993212890625,-0.07217734746038913,0.12907293637050316,0.17666980492901055
1761336326975998200,1.929998291015625,-0.14839841735363005,0.1416889828428626,0.09042221186626702
1761336326986065200,1.940065185546875,-0.22522271383702755,0.292332950633578,0.007717625172622501
1761336326996130800,1.950130859375,-0.26605565948486326,0.28076168224010617,0.01646400887109339
1761336327006198000,1.960197998046875,-0.21896949866116044,-0.04580209409622475,0.04440704127494245
1761336327016264000,1.970263916015625,-0.1453863760560751,-0.0449035560876131,-0.10617843779418616
1761336327026330000,1.980330078125,-0.14855039304494858,-0.0694838157937862,-0.2874695823809132
1761336327036397000,1.99039697265625,-0.18616554569005966,-0.1852832646965049,-0.312976473679021
1761336327046463000,2.000462890625,-0.15570844810605047,-0.2865725239433348,-0.3245960747262463
1761336327056530000,2.010530029296875,-0.06886018573641776,-0.32202023288886994,-0.39844172072503714
1761336327066596000,2.02059619140625,0.04753799624443054,-0.290633380174078,-0.42691633925493805
1761336327076663000,2.0306630859375,0.16693711360692978,-0.2560050613200292,-0.38937209642156956
1761336327086729000,2.04072900390625,0.2890899135917425,-0.22204662281787022,-0.27358017323818057
1761336327096795100,2.050795166015625,0.3788578628003597,-0.1304639523374848,-0.08853712877202778
1761336327106862000,2.060862060546875,0.4110276095211506,-0.025944515530392526,0.09821217162273824
1761336327116928000,2.070927978515625,0.34743747314214707,0.10665131600294261,0.26482206256929786
1761336327126995200,2.0809951171875,0.17812661614120007,0.18224004280939698,0.3700506888253614
1761336327137061000,2.09106103515625,-0.044293899756669995,0.14781166697423903,0.36665578569006174
1761336327147127000,2.101126953125,-0.24551380671560763,0.10235456865709275,0.21722353177666662
1761336327157194200,2.1111943359375,-0.41525896348059177,0.057966524343565105,0.03593615004960447
1761336327167260000,2.121260009765625,-0.5006318926006555,-0.0401725089777261,-0.09517481322083622
1761336327177327000,2.1313271484375,-0.5506693044453859,-0.14898867486435918,-0.18408957966621964
1761336327187393000,2.14139306640625,-0.5713479353368281,-0.15276194632537662,-0.24495142359249292
1761336327197460000,2.1514599609375,-0.5623632493704557,-0.13707082152292133,-0.27257874111067504
1761336327207526000,2.16152587890625,-0.475192330917716,-0.09973112481832504,-0.2606242090206593
1761336327217592000,2.171592041015625,-0.34449089829623697,-0.05949833702072501,-0.22781704117916524
1761336327227659000,2.181658935546875,-0.21572423312962055,-0.017347440642118454,-0.18296846668180078
1761336327237725000,2.191724853515625,-0.1093400801628828,0.007047215097770095,-0.164466485709697
1761336327247792000,2.201792236328125,-0.048616439130902286,-0.033041451521404086,-0.17160817415788768
1761336327257858000,2.211858154296875,-0.04118132069408893,-0.0902248991958797,-0.1683050044266507
1761336327267924000,2.221924072265625,-0.08878829052150249,-0.11888210775107144,-0.16005122655071316
1761336327277991200,2.2319912109375,-0.1168207913070917,-0.11050379018001258,-0.1707287244422361
1761336327288057000,2.24205712890625,-0.10920973178148269,-0.09248608559351414,-0.1644963693913072
1761336327298124000,2.2521240234375,-0.07461188113093375,-0.08579601337034255,-0.11191464335862547
1761336327308190200,2.262190185546875,-0.03148351802229881,-0.032692674616351725,-0.04017974243611097
1761336327318257200,2.272257080078125,-0.02000876880586147,0.020211670966818928,0.015267748291231691
1761336327328323000,2.282322998046875,-0.07303542559444903,0.0692810414969921,0.055432877680100495
1761336327338389200,2.29238916015625,-0.09522563009262085,0.09745086839403956,0.12110950147695838
1761336327348456200,2.302456298828125,-0.030975568500161168,0.019227518767677247,0.14375629063621162
1761336327358521900,2.31252197265625,0.04851473232209682,-0.1020977078191936,0.08693868059944361
1761336327368589000,2.322589111328125,0.12403788307905196,-0.15134787827637045,-0.02665898394268006
1761336327378655000,2.332655029296875,0.1339180565804243,-0.13151903261467815,-0.10012575015909969
1761336327388721000,2.342720947265625,0.1100631337404251,-0.16145744008682666,-0.11085274974815547
1761336327398788000,2.3527880859375,0.06344049877524376,-0.15061408410910515,-0.1055859152611345
1761336327408854000,2.36285400390625,-0.0013555062621831893,-0.10550313234850764,-0.08403444705791771
1761336327418921000,2.3729208984375,-0.12431319288909434,-0.04481920227240771,-0.035419651894830165
1761336327428987100,2.382987060546875,-0.2038268745869398,-0.009250753024034202,0.04653667371477931
1761336327439054000,2.39305419921875,-0.15926935545802115,-0.015774638367444277,0.10206654549594968
1761336327449119700,2.40311962890625,-0.0697825612783432,-0.049157304541952905,0.10577606753837317
1761336327459186000,2.41318603515625,0.0020148469537496568,-0.05999404811579734,0.05795074225254356
1761336327469252900,2.4232529296875,0.041268414455652234,-0.06851780203953385,-0.0001435731891542673
1761336327479318800,2.43331884765625,0.04140811518728733,-0.11403273149114102,-0.057946541001461446
1761336327489385700,2.4433857421875,0.056148588201403615,-0.12986677189562468,-0.1008879301706329
1761336327499452000,2.453451904296875,0.06582300999760628,-0.09065711660068482,-0.11362389496192335
1761336327509517800,2.463517822265625,0.056904959526658055,-0.046341224207915366,-0.051469490474462504
1761336327519584800,2.473584716796875,0.018335867157578466,0.02831606696732342,0.013082184413075446
1761336327529650700,2.483650634765625,-0.053071080452203746,0.10982231072187423,0.04765672725327313
1761336327539718000,2.4937177734375,-0.15355039328932762,0.13022296492215246,0.05290361493080854
1761336327549783800,2.50378369140625,-0.30929040557742116,0.06949022726826369,0.01719809529930353
1761336327559850800,2.513850830078125,-0.41771337089538574,0.05648140035234391,-0.021615765611082315
1761336327569916700,2.523916748046875,-0.42449557838141916,0.05186780560966581,-0.05099091317728161
1761336327579982800,2.53398291015625,-0.32613165026307106,0.03158584588561207,-0.06855944922417402
1761336327590049800,2.5440498046875,-0.19640110850036144,-0.021631584234721956,-0.09221928788349032
1761336327600115700,2.55411572265625,-0.07657704372406006,-0.07780388210527599,-0.12882818609550595
1761336327610182700,2.5641826171875,0.03715045774281025,-0.096495869224146,-0.1603301896225661
1761336327620248800,2.574248779296875,0.08932838874757289,-0.027197602597717193,-0.17385412645377218
1761336327630314800,2.584314697265625,0.10485036752820015,-0.004181614799890667,-0.11588519095741212
1761336327640381700,2.594381591796875,0.09220306740105151,-0.019032489385921506,0.011356091272830963
1761336327650448000,2.60444775390625,0.0822433989226818,-0.0037419812736101447,0.09480382448397576
1761336327660514800,2.614514892578125,0.07544307125806808,0.021190927795134484,0.10533427858762442
1761336327670580700,2.624580810546875,0.06418108800947665,0.038379469814803446,0.05917385430671274
1761336327680647000,2.63464697265625,0.00750935271680355,0.0869531657825224,0.008562661162018776
1761336327690713900,2.6447138671875,-0.056712067303061484,0.08844656441174446,-0.0550730679243803
1761336327700779800,2.65477978515625,-0.11953180383145809,0.05542657580347731,-0.1074937216438353
1761336327710847000,2.664846923828125,-0.14451953009366988,0.018824363060574976,-0.1555032809227705
1761336327720912600,2.67491259765625,-0.11552665984332561,-0.015085779320448637,-0.1903589787919074
1761336327730979600,2.6849794921875,-0.0488730442404747,-0.047187995496671645,-0.22828648532181978
1761336327741045800,2.695045654296875,0.03518178801834583,-0.05813567036539316,-0.23713870401494203
1761336327751111700,2.705111572265625,0.0796948834836483,-0.05696039777463301,-0.24768983558043836
1761336327761178600,2.7151787109375,0.12486205894351005,-0.05286662565497681,-0.22424451645463703
1761336327771244800,2.725244873046875,0.11451251436471939,0.012625015230104326,-0.16987915840819476
1761336327781311700,2.735311767578125,0.011217559584975242,0.02231689961776137,-0.1087095271743834
1761336327791377700,2.745377685546875,-0.09846329683959483,-0.03789506556503475,-0.08173311131298541
1761336327801443800,2.75544384765625,-0.18053075467348098,-0.06141664653113112,-0.13306107442490755
1761336327811510800,2.7655107421875,-0.1780418604671955,-0.0653307512349449,-0.22454057679176329
1761336327821577000,2.775576904296875,-0.1452811621159315,-0.07831919294996187,-0.25705869855880736
1761336327831644000,2.785643798828125,-0.10169453384578227,-0.09052706048022956,-0.2583587483067065
1761336327841709800,2.795709716796875,-0.061791562524437904,-0.07826256739189848,-0.2214081970501691
1761336327851776800,2.80577685546875,-0.01862988166809082,-0.07320329297464341,-0.15486512914970516
1761336327861843000,2.815843017578125,-0.011937106031179428,-0.0895739062075503,-0.06028495735377073
1761336327871908900,2.825908935546875,-0.006382979035377502,-0.029487850693054495,0.027290304116159677
1761336327881975800,2.835975830078125,0.007554360902309418,0.0390150643046014,0.07100048570074141
1761336327892041700,2.846041748046875,0.015400982749462127,0.05352339079696685,0.10306070763245224
1761336327902109000,2.85610888671875,-0.027841362127661702,0.036630123663134874,0.109260439055413
1761336327912174600,2.866174560546875,-0.09839140064716338,-0.0058137460463680325,0.07377228850163518
1761336327922240800,2.87624072265625,-0.1679693792641163,-0.04084279118841514,0.03576937864795327
1761336327932307700,2.8863076171875,-0.2025461871266365,-0.061242733002640305,0.007268091306835413
1761336327942373600,2.89637353515625,-0.17204057422578334,-0.09305621363166719,-0.027685879305005073
1761336327952440800,2.90644091796875,-0.10736965687274933,-0.08054538109945134,-0.049886605197191236
1761336327962506800,2.9165068359375,-0.0465203436344862,-0.04533007440399378,-0.0562578207295388
1761336327972573000,2.926572998046875,-0.016469488763809204,-0.02324912070026621,-0.01903553985953331
1761336327982639900,2.936639892578125,-0.024341245052218435,-0.020201058241259305,-0.007817907209321856
1761336327992705800,2.946705810546875,-0.023670798444747922,-0.022102160888537763,-0.023718217783048747
1761336328002772700,2.956772705078125,-0.06681026746928692,-0.05908705280609428,-0.04674691893197596
1761336328012839000,2.9668388671875,-0.10118249267041683,-0.10036467348150908,-0.08031718010045588
1761336328022905900,2.97690576171875,-0.11882803947627543,-0.17374054654408244,-0.13864245475381612
1761336328032971800,2.9869716796875,-0.0925175401777029,-0.1433197075835429,-0.16098405042141675
1761336328043038000,2.997037841796875,-0.03709200555384159,-0.03376434070216491,-0.1300753366123885
1761336328053105000,3.00710498046875,-0.00658697717487812,-0.041142979711387306,-0.11120353594720363
1761336328063170800,3.0171708984375,-0.041429742497205733,-0.07426867545014247,-0.026954861616715786
1761336328073238000,3.027238037109375,-0.029046061742305753,-0.020652272607479243,-0.00285582782253623
1761336328083303700,3.0373037109375,-0.03428337787389755,0.03935490898452699,0.020427797935530543
1761336328093369600,3.04736962890625,-0.07550386153459548,0.019770484804268924,0.1058370404779911
1761336328103436800,3.057436767578125,-0.16315993315577507,-0.003897427563648671,0.12009981297776103
1761336328113502700,3.067502685546875,-0.20806816541850565,0.007869436467159539,0.07904168027192354
1761336328123569700,3.077569580078125,-0.22114859626591205,0.009145940942689775,0.06507168017365038
1761336328133635800,3.0876357421875,-0.2060702695995569,-0.01859824442081153,0.09137911073230207
1761336328143702800,3.097702880859375,-0.12621639616191385,-0.054286429325025524,0.0749173668835312
1761336328153768700,3.107768798828125,-0.011152093133330345,-0.06468907406423241,0.002211684700101614
1761336328163835000,3.1178349609375,0.11183598863184452,-0.06744865670436993,-0.06116188631877303
1761336328173901800,3.12790185546875,0.14566986917257307,-0.08717298254566266,-0.07087905127815902
1761336328183967700,3.1379677734375,0.12434826420247554,-0.06874989376235753,-0.07169540916234254
1761336328194034700,3.14803466796875,0.049180502754449844,-0.03288392287213355,-0.06462905097268522
1761336328204100900,3.158100830078125,-0.07124971122145653,0.023951588147506118,-0.0023084230728447437
1761336328214166800,3.168166748046875,-0.19172201077342033,0.025850133511517194,0.08537380590289831
1761336328224234000,3.17823388671875,-0.24427111317813396,-0.013431399709545076,0.13574600265994669
1761336328234300000,3.1882998046875,-0.22186814271211622,-0.015271346754115074,0.1152505463156849
1761336328244366800,3.198366943359375,-0.1497644450098276,-0.023781309614516792,0.04411379394941032
1761336328254432800,3.208432861328125,-0.08426116848587989,-0.04525105435103178,-0.03340177273377776
1761336328264500000,3.2185,-0.08432897302508353,-0.018373185226973145,-0.09831095582209527
1761336328274565600,3.228565673828125,-0.10112462500333785,0.016222089873999358,-0.1345871149484068
1761336328284631800,3.2386318359375,-0.08601356511116028,0.031902565418276935,-0.12916757411770521
1761336328294698800,3.24869873046875,-0.037438042512536046,0.03789786031031981,-0.126820864861086
1761336328304764700,3.2587646484375,0.018067571610212326,0.033099976775608955,-0.12160744106173514
1761336328314831600,3.26883154296875,0.015670447340607643,0.04852649582512676,-0.10744411034844815
1761336328324897800,3.278897705078125,-0.026605682852864264,0.03979289854299277,-0.09182590465173125
1761336328334963700,3.288963623046875,-0.09080313747525215,0.023094898252934214,-0.0911450827807188
1761336328345031000,3.299031005859375,-0.13965338536202906,0.008705156638938933,-0.13317965930327771
1761336328355096800,3.309096923828125,-0.1372170981258154,-0.020196053272578864,-0.15981654101200402
1761336328365163800,3.319163818359375,-0.08712532574534415,-0.0341203327992931,-0.17531762313507496
1761336328375230000,3.32922998046875,0.005458265405893325,-0.04828952699778601,-0.19064291029982267
1761336328385297000,3.339296875,0.07518646614849567,-0.06466832353714853,-0.2194699955292046
1761336328395362800,3.34936279296875,0.08073416340351104,-0.04710676522031426,-0.21894560632891952
1761336328405429000,3.359428955078125,0.05376198532581329,-0.05350974586410448,-0.21111666626892983
1761336328415496000,3.369495849609375,0.000602057546377182,-0.08261086226189508,-0.16295651953816412
1761336328425561900,3.379561767578125,-0.014105097720026969,-0.09633843190642073,-0.12202603179998694
1761336328435628800,3.38962890625,-0.03223521317243576,-0.09997123545082286,-0.09367613562829792
1761336328445695000,3.399695068359375,-0.02639759306013584,-0.10136888208799064,-0.08751951269470155
1761336328455761000,3.409760986328125,-0.02902969512939453,-0.08744451122973114,-0.07042706972695886
1761336328465827800,3.419827880859375,-0.038682489615678786,-0.1415336826832965,-0.08539243753813207
1761336328475894000,3.42989404296875,-0.09510814119279384,-0.09598846769127994,-0.050227600654587146
1761336328485961000,3.4399609375,-0.13650339689850807,0.038626028454396874,0.048009047822281714
1761336328496027000,3.45002685546875,-0.1302571959853172,0.008663856514170766,0.048829497359693046
1761336328506093000,3.460093017578125,-0.11338847877085208,-0.02324851791206747,0.10160890138894318
1761336328516160000,3.470159912109375,-0.05484685795307159,0.009152699477039276,0.10536102046407758
1761336328526226000,3.480225830078125,-0.021458967614173888,0.01592765523837879,0.041402269968390464
1761336328536293000,3.490293212890625,-0.004866729253530502,-0.045259456853196024,-0.003957067062705755
1761336328546359000,3.500359130859375,-0.011343816313147544,-0.0861703996406868,-0.05439158846624195
1761336328556426000,3.510426025390625,-0.03269289381206036,-0.07476210325658321,-0.062364174780622124
1761336328566492000,3.520491943359375,-0.07145897005796432,-0.09913728711102157,-0.04398556445986032
1761336328576557800,3.530557861328125,-0.0972404770463705,-0.10846033818628638,-0.023103081559389827
1761336328586624800,3.540624755859375,-0.11659633490145206,-0.08185487452913075,-0.02815649249143898
1761336328596691000,3.55069091796875,-0.13281857090592383,-0.05990551131581887,-0.007239815060421824
1761336328606758000,3.5607578125,-0.13598726406991482,-0.051032761291321366,0.00093655019775033
1761336328616823800,3.57082373046875,-0.13895254361629486,-0.03303155118189752,-0.027780352655425666
1761336328626890000,3.580889892578125,-0.14397767830193042,-0.008830280855949968,-0.04014876277595758
1761336328636957000,3.59095703125,-0.16423311534523963,0.003616802257671952,-0.048338425907120106
1761336328647022800,3.60102294921875,-0.18188976806700227,-0.02200262777050957,-0.06580649725422263
1761336328657090000,3.611090087890625,-0.18646423637568948,-0.03015500936489552,-0.09294029563441872
1761336328667156000,3.621156005859375,-0.13968611858785152,-0.013292265233490615,-0.1330991414129734
1761336328677223000,3.631222900390625,-0.07209317630827426,-0.027055910838395356,-0.20626228504031896
1761336328687289000,3.6412890625,-0.01633797133862972,-0.05886036791075021,-0.20929836480058728
1761336328697355000,3.65135498046875,0.027533319091796873,-0.0759319507535547,-0.1541840880829841
1761336328707422000,3.661421875,0.054871407872438424,-0.05262598529951647,-0.11600421422719955
1761336328717488000,3.671488037109375,0.047884617725014685,-0.05947409762861207,-0.08226393025405704
1761336328727555000,3.68155517578125,0.028618191719055174,-0.06645796516658738,-0.07424041747003793
1761336328737621000,3.69162109375,-0.000827098473906517,-0.042208581382595,-0.0821528710950166
1761336328747687000,3.70168701171875,0.00770458302795887,-0.0038516704594716428,-0.08727445189245045
1761336328757753900,3.71175390625,-0.008921557602286339,0.00646957960659638,-0.08597374455742537
1761336328767819800,3.72181982421875,-0.022929040166735647,0.012329649012722075,-0.05806545467339456
1761336328777887000,3.731886962890625,-0.027868834656476972,0.022725023760925975,-0.010584083987027405
1761336328787953000,3.741952880859375,0.005105214184522628,0.012240947815962135,0.050545288301631804
1761336328798019800,3.752019775390625,0.046718496555089944,-0.02315346003975719,0.08981237287223338
1761336328808086000,3.7620859375,0.049473932743072505,-0.013458488645870239,0.06170125389248132
1761336328818152000,3.77215185546875,0.04161795854568481,0.014434968995209782,0.020649843188375233
1761336328828219000,3.782218994140625,-0.028003274691104887,0.02773967358516529,-0.023371961628645656
1761336328838285000,3.79228515625,-0.13894319126605986,0.01064818046549335,-0.07964870625436306
1761336328848352000,3.80235205078125,-0.19593699811995027,-0.04040052731363102,-0.16153803104236722
1761336328858418000,3.81241796875,-0.22965280523896217,-0.08662303877901285,-0.23339191870205103
1761336328868484000,3.822484130859375,-0.21585107437968254,-0.08713730844408273,-0.2663929286152124
1761336328878551000,3.832551025390625,-0.16681202592253683,-0.06946830769740045,-0.22690993627160785
1761336328888617000,3.842616943359375,-0.10471768105924129,-0.037849271928239614,-0.12018244975991546
1761336328898684000,3.852683837890625,-0.03153378690481186,-0.0036600203448906537,-0.05479856183193624
1761336328908750000,3.86275,0.018146482065320015,-0.012963818730413914,-0.04175868219062686
1761336328918815700,3.872815673828125,0.049210313370823856,-0.0520587981371209,-0.07581358507089317
1761336328928883200,3.88288330078125,0.04607844508588314,-0.07033860599221661,-0.1077037111327052
1761336328938948900,3.892948974609375,0.03955050462186336,-0.07273565719658509,-0.12363112890906632
1761336328949015800,3.903015869140625,-0.004628828844428062,-0.05259106011660769,-0.12296024391017854
1761336328959082000,3.91308203125,-0.05964286005795002,-0.024683427819702772,-0.06397365580387412
1761336328969149000,3.92314892578125,-0.11763970647454261,-0.017608484464790672,0.010442629689723253
1761336328979214800,3.93321484375,-0.15458850416541098,-0.01965650303578004,0.043001594923809165
1761336328989281000,3.943281005859375,-0.14824118096530436,-0.03255628008665517,0.062435340320691465
1761336328999348000,3.953347900390625,-0.1187035363137722,-0.047262503771297634,0.039081718066334724
1761336329009414000,3.963413818359375,-0.07350538119375705,-0.08990929390806704,0.015409677512571215
1761336329019480800,3.973480712890625,-0.017776479709148404,-0.07264074545474722,0.005308408606424927
1761336329029547000,3.983547119140625,0.025657003825902937,-0.013131339050736277,0.02571662505865097
1761336329039613000,3.993613037109375,0.06716565677821636,0.009264544087368994,0.040310529208928345
1761336329049679000,4.00367919921875,0.08232347842156887,-0.01754164803996682,0.05959463700205087
1761336329059746000,4.01374609375,0.033281507354974746,-0.02788401395929977,0.029789135194569823
1761336329069812000,4.02381201171875,-0.03823065419495106,-0.050159869180619716,-0.0009846271231770515
1761336329079879200,4.033879150390625,-0.10997545545697211,-0.05040511264596134,-0.010884820499271154
1761336329089945000,4.043945068359375,-0.177166246676445,-0.05004948587501421,-0.0055959933761507265
1761336329100012000,4.054011962890625,-0.21132278330028056,-0.07495517814327031,-0.03073496467731893
1761336329110078000,4.064077880859375,-0.19220365681052207,-0.06505785257769749,-0.05794803883880376
1761336329120144000,4.074143798828125,-0.15432079313993452,-0.04729386702394112,-0.07678856758289039
1761336329130210800,4.0842109375,-0.10462591112256049,-0.05436944969967007,-0.08233071187995374
1761336329140277000,4.094277099609375,-0.04450023598372936,-0.05609198090964928,-0.10511815161891282
1761336329150344000,4.104343994140625,-0.008773089042305946,-0.028115320230834184,-0.1142952183522284
1761336329160409900,4.114409912109375,-0.040082419541478155,-0.023842373885679988,-0.09490991520695388
1761336329170476800,4.124476806640625,-0.1213958441376686,-0.04666256511677056,-0.08004106657281518
1761336329180543000,4.13454296875,-0.1696405273467302,-0.04453486890569329,-0.10021196713782847
1761336329190609000,4.14460888671875,-0.19555004462897776,-0.04471660041445866,-0.11857369938902557
1761336329200675800,4.15467578125,-0.19548925435245035,-0.03562357696909457,-0.11221081329360603
1761336329210742000,4.164741943359375,-0.13385142108500003,-0.010113763061538338,-0.09324066682048142
1761336329220809000,4.17480908203125,-0.0558878914386034,0.02514065180160105,-0.05711641032025218
1761336329230875100,4.184875244140625,-0.013183891221880913,0.07316303402949124,-0.011324965482205152
1761336329240941000,4.194941162109375,0.015565817922353743,0.06670730028515681,-0.00648753538839519
1761336329251008000,4.205008056640625,0.02427519407868385,0.026365882747620344,-0.024056071435287592
1761336329261074200,4.21507421875,0.0007119476616382598,-0.0071666950252838426,-0.04288023356646299
1761336329271141000,4.22514111328125,-0.023330022183060645,-0.037807387281581756,-0.04179331511259079
1761336329281206800,4.235206787109375,-0.006676993545889854,-0.04921316291503608,-0.05237016564123332
1761336329291273000,4.24527294921875,0.07035071655511856,-0.04477567365793511,-0.05963226559869945
1761336329301340000,4.25533984375,0.17869067976474762,-0.051699865164235234,-0.06494184324890374
1761336329311405800,4.26540576171875,0.2605494632840156,-0.04165710324598476,-0.06586451105177402
1761336329321472800,4.27547265625,0.27704876266419887,-0.040597383326292036,-0.08410612405464053
1761336329331539000,4.2855390625,0.21606267130374907,-0.05630348650217056,-0.07471855637580156
1761336329341606000,4.29560595703125,0.09446107546091079,-0.0902343976765871,-0.0662687079384923
1761336329351671800,4.305671875,-0.033743864169716836,-0.10065366475703194,-0.043642157849669454
1761336329361738000,4.315738037109375,-0.09751754042208194,-0.056252158173732456,0.006619637335464358
1761336329371805000,4.325804931640625,-0.12842588890492915,-0.01000690515358001,0.07371661279164254
1761336329381871000,4.33587109375,-0.1474333717137575,-0.0013533143050968646,0.0931743966512382
1761336329391938000,4.34593798828125,-0.21618074472546575,0.026560601602122185,0.0708310474179685
1761336329402004000,4.35600390625,-0.35550095261037346,0.068448536195606,0.0436384315226227
1761336329412070100,4.366070068359375,-0.48929859768152234,0.05899325530910864,0.05020736158415675
1761336329422137000,4.37613720703125,-0.5642886644750833,0.04321549340281635,0.04909150929674506
1761336329432203000,4.386203125,-0.5332938067525624,0.01942877696081996,0.0693161128103733
1761336329442270000,4.39627001953125,-0.3849497499346733,-0.013364819013047962,0.09066139091700315
1761336329452336400,4.40633642578125,-0.22367022369801998,-0.03397796518653631,0.11623027806803583
1761336329462402300,4.41640234375,-0.05953296994268894,-0.03912855288274586,0.1454505273334682
1761336329472469200,4.42646923828125,0.08574117791056632,-0.04403249060781672,0.11708141500465571
1761336329482535400,4.436535400390625,0.1918488520234823,-0.04634005516413599,0.07252316522337496
1761336329492601300,4.446601318359375,0.22848434598147868,-0.06609074842254631,0.03221840816810727
1761336329502668300,4.456668212890625,0.21677403444349763,-0.0720372174704913,-0.047160468168929215
1761336329512734500,4.466734375,0.14716215355694293,-0.07130327717275359,-0.145104928766191
1761336329522801400,4.476801513671875,0.06954582991302014,-0.06576388195520266,-0.16661160797961055
1761336329532867300,4.486867431640625,-0.008540449330210685,-0.05670160070797428,-0.10442534704916179
1761336329542933500,4.49693359375,-0.11651800896823405,-0.028393991041742263,-0.03585515723526478
1761336329553000400,4.50700048828125,-0.1691051052957773,-0.018048191056307405,-0.004270955317467451
1761336329563066400,4.51706640625,-0.16746610591709613,-0.017090981663018465,0.005559753018990159
1761336329573133600,4.527133544921875,-0.10028408252596854,0.013303243285231291,-0.027760551976412532
1761336329583199500,4.537199462890625,0.008776011651754378,0.009328110842872411,-0.055352030996233224
1761336329593266400,4.547266357421875,0.11155541812479496,-0.008270418483484535,-0.06128090958856046
1761336329603332600,4.55733251953125,0.17042612476646898,-0.02144449156424962,-0.0960483446523547
1761336329613398300,4.567398193359375,0.17777824109494686,-0.06093964013652876,-0.15252923354804515
1761336329623465500,4.577465576171875,0.16309855835735798,-0.0909352302891668,-0.17494973967075347
1761336329633531400,4.587531494140625,0.10251403353512287,-0.09181856159549207,-0.1419590319558978
1761336329643598300,4.597598388671875,0.029598434928059577,-0.08830411460059695,-0.09951887030713259
1761336329653664300,4.607664306640625,-0.049256490600109094,-0.04582521011033095,-0.06676219054386019
1761336329663730400,4.61773046875,-0.08492226274311541,0.0026180096118245274,-0.05819441481530666
1761336329673797400,4.62779736328125,-0.13530688059031962,0.024915391678363083,-0.038208661558851595
1761336329683863300,4.63786328125,-0.15332535236179828,0.05209773277486674,-0.019920359870046377
1761336329693930500,4.647930419921875,-0.15093933400809764,0.028106707666115834,-0.023153204311430454
1761336329703996400,4.657996337890625,-0.15044132135808466,0.00046728871818631885,-0.03033464024811983
1761336329714063400,4.6680634765625,-0.11137246277332305,-0.004787827931577339,-0.02189144074730575
1761336329724129500,4.678129638671875,-0.07735328879356383,-0.015592212738934904,0.020759952499344942
1761336329734195500,4.688195556640625,-0.08932137448489666,-0.010925965360412373,0.04406600928492844
1761336329744262400,4.698262451171875,-0.0769148973762989,0.001685514534683898,0.024263795901834962
1761336329754328600,4.70832861328125,-0.09461597376167774,-0.014964399696793406,-0.03166698483042419
1761336329764395500,4.7183955078125,-0.09572247369885444,-0.030976070823660117,-0.08155563585422933
1761336329774461400,4.72846142578125,-0.07334054602086544,-0.050639067532308395,-0.10666939964890479
1761336329784527400,4.73852734375,-0.04838321489691734,-0.029304100757138803,-0.11305975827313959
1761336329794594600,4.748594482421875,-0.042430443972349165,0.0488435532845091,-0.10315576550476252
1761336329804660200,4.75866015625,-0.02702536956965923,0.06422415996622294,-0.08588460496924817
1761336329814727400,4.7687275390625,-0.0373661463201046,0.02220894573125988,-0.07633826653212308
1761336329824793300,4.77879345703125,-0.06790858410000801,0.005373884191224351,-0.07051416348852217
1761336329834860300,4.7888603515625,-0.06399813265800476,-0.010244997358927503,-0.07682963024564086
1761336329844926500,4.798926513671875,-0.043754386052489276,-0.027523446151753887,-0.09107727824151515
1761336329854992400,4.808992431640625,-0.044611879664659494,-0.0396945892676711,-0.06340929991938174
1761336329865059300,4.819059326171875,-0.043599487751722336,-0.03555354850676376,-0.05427957945913076
1761336329875125500,4.82912548828125,0.014967267507314681,-0.018339757881406692,-0.07883475952297449
1761336329885192400,4.8391923828125,0.07385141815245151,0.00870477761302609,-0.09280958192683755
1761336329895258400,4.84925830078125,0.1036497595667839,0.0038992952937493097,-0.05719561303630471
1761336329905324500,4.859324462890625,0.10782967559993266,-0.017692043695552273,-0.025653131368383764
1761336329915391500,4.8693916015625,0.12064882516264915,-0.0407890608403366,-0.05222973425723612
1761336329925457400,4.87945751953125,0.12389233712852,-0.06922962183700875,-0.05748896995969116
1761336329935524400,4.8895244140625,0.06590542758405209,-0.06917652167659252,-0.05198028954081237
1761336329945590500,4.899590576171875,-0.028102643412351608,-0.043790964336367325,-0.03316211875900626
1761336329955657500,4.909657470703125,-0.17095102542340754,-0.0015756518188863992,-0.02634608206860721
1761336329965723400,4.919723388671875,-0.3243652251124382,0.026452044927421956,-0.010071969746425748
1761336329975789300,4.929789306640625,-0.42315468516647814,0.0369003554392606,-0.018761837484687564
1761336329985856500,4.9398564453125,-0.4089350211560726,0.020890291747590526,-0.05806771969571709
1761336329995922400,4.94992236328125,-0.336881592336297,0.005294590143626555,-0.13205964229740202
1761336330005989400,4.9599892578125,-0.23343933804035186,-0.019220869831182062,-0.168280856366083
1761336330016055300,4.97005517578125,-0.11927929037511348,-0.0640446204145439,-0.17193302219808101
1761336330026121500,4.98012158203125,-0.005194646033644676,-0.07009916207999922,-0.18743395819067954
1761336330036188400,4.9901884765625,0.0715121615499258,-0.04317271370701491,-0.21035423052906987
1761336330046254300,5.00025439453125,0.07443360195457935,-0.04133363431212492,-0.18502645865753292
1761336330056321300,5.0103212890625,0.017061609438061714,-0.05877582229929976,-0.13736490909866989
1761336330066387500,5.020387451171875,-0.09211188198626041,-0.05471169639923609,-0.1098052865218371
1761336330076453400,5.030453369140625,-0.18011106795668602,-0.029337299773842095,-0.10931472652591764
1761336330086520300,5.040520263671875,-0.22637539100348947,0.006073721289960667,-0.10159764934256672
1761336330096586500,5.05058642578125,-0.21353987482786177,0.01796724390774034,-0.08473843060880899
1761336330106653400,5.0606533203125,-0.13436989200115204,0.020950826295791192,-0.02290989707484841
1761336330116719400,5.07071923828125,-0.041328620210289956,0.024725769124086944,0.025732772475853562
1761336330126786600,5.08078662109375,0.05459083736538887,0.03240408519962802,0.03486066630519926
1761336330136852500,5.0908525390625,0.08765256448984146,0.04913733033300377,0.021029855481907726
1761336330146918700,5.100918701171875,0.07002981403768062,0.04207443360891193,0.05259732546061277
1761336330156985600,5.110985595703125,0.015574001228809356,0.02070980234784074,0.06312039997540414
1761336330167051300,5.12105126953125,-0.04222878392040729,0.006866031578276306,0.07476049582138657
1761336330177118200,5.1311181640625,-0.08056114492416382,0.011012511132704093,0.06816657744906843
1761336330187184400,5.141184326171875,-0.10677753619849681,0.005297046962194144,0.05081964826360345
1761336330197250300,5.151250244140625,-0.11161328579187392,-0.03194032187908888,0.006227057821303605
1761336330207317200,5.161317138671875,-0.08550970724225043,-0.06629580600797198,-0.05280651123188436
1761336330217383400,5.171383544921875,-0.048152913272380825,-0.05518330509951338,-0.09701887018494307
1761336330227450400,5.181450439453125,0.001712064614892006,-0.040251547296997155,-0.09745696934126317
1761336330237516300,5.191516357421875,0.05087620075643062,-0.044897884398652235,-0.06348631067834794
1761336330247582500,5.20158251953125,0.06716916390955448,-0.0306966236946173,-0.03547872513830662
1761336330257649400,5.2116494140625,0.03283434810936451,-0.019778631578106432,-0.02988894230723381
1761336330267715300,5.22171533203125,-0.0029816461592912674,-0.018737378896865994,-0.046518736199289555
1761336330277782500,5.231782470703125,-0.061145665836334226,-0.03997726953341625,-0.04652911146283149
1761336330287848400,5.241848388671875,-0.14791852488219737,-0.05709213439552113,-0.04552439139969647
1761336330297915400,5.251915283203125,-0.23078970031440257,-0.04890287312315777,-0.06267075651176274
1761336330307981600,5.261981689453125,-0.2733393867522478,-0.023657317908667028,-0.06371778134666382
1761336330318047500,5.272047607421875,-0.27842531171441076,0.014764082218566909,-0.06058795888833701
1761336330328114400,5.282114501953125,-0.24640987877249718,0.028905822154553604,-0.04906871294304728
1761336330338180400,5.292180419921875,-0.18073709090054035,0.03270473951348103,-0.025341288940235972
1761336330348247600,5.30224755859375,-0.109727618175745,0.042909569258801634,-0.0267004484642297
1761336330358313200,5.312313232421875,-0.0806704505175352,0.033741393651417456,-0.06575491319745778
1761336330368379400,5.32237939453125,-0.09527999062836169,0.004068432182422839,-0.08504851947128772
1761336330378446300,5.3324462890625,-0.10007716177701949,-0.022481926586898043,-0.08602079856954514
1761336330388512300,5.34251220703125,-0.09016250148415565,-0.009620001894957386,-0.07833711219914256
1761336330398579500,5.352579345703125,-0.03744797938466072,-0.016443614537036046,-0.07476086114756762
1761336330408645400,5.362645263671875,0.037843700703978536,-0.05943444603823591,-0.08268208260089159
1761336330418712300,5.37271240234375,0.09288637349009514,-0.04901624297029338,-0.10054127215743064
1761336330428778500,5.382778564453125,0.11703531084060668,-0.018413211276684886,-0.11876783372163773
1761336330438844400,5.392844482421875,0.1252647945255041,0.004089310573670082,-0.104865565097332
1761336330448912000,5.402911865234375,0.09767769941985606,0.03833212354173884,-0.08105776933468878
1761336330458977800,5.412977783203125,0.030759295400977132,0.04611142947345506,-0.004152516569569707
1761336330469044700,5.423044677734375,0.011378303104639052,0.04715012943800539,0.06629866468533874
1761336330479110700,5.433110595703125,0.03511865965425968,0.0566656343454495,0.06681969288475811
1761336330489176800,5.4431767578125,0.06660217767655849,0.05858469277452677,0.03771064890883863
1761336330499243800,5.453243896484375,0.10816928281784056,0.0636611238225596,-0.019918460173904893
1761336330509309700,5.463309814453125,0.10801730712652206,0.07048638956560753,-0.05396737170480191
1761336330519376600,5.473376708984375,0.05737140799462795,0.05199022184635978,-0.03634147944748401
1761336330529442800,5.48344287109375,-0.03502396710813045,0.03167341000463348,-0.012382803972065448
1761336330539508700,5.4935087890625,-0.17658757000565528,0.016147787095350214,-0.023304303219914436
1761336330549575700,5.50357568359375,-0.31087621346414085,-0.0049401598159223795,-0.037801176736503836
1761336330559641900,5.513641845703125,-0.3655266720622778,-0.008028883078880607,-0.08267294944636523
1761336330569708800,5.523708740234375,-0.3281669554829597,0.0057306617396418,-0.10864252635277807
1761336330579775000,5.53377490234375,-0.23387188423871993,-0.009619768999516963,-0.13024440956898034
1761336330589842000,5.543842041015625,-0.14243980121016503,-0.023979261605720965,-0.15078428957685827
1761336330599907800,5.553907958984375,-0.06837152543663978,-0.018279022403806446,-0.13168123743906615
1761336330609974000,5.56397412109375,-0.07706862663328647,-0.013504460379178636,-0.0942208369642496
1761336330620041000,5.574041015625,-0.09423077383637428,-0.015381734626297838,-0.0847499749161303
1761336330630106600,5.584106689453125,-0.09536416178047656,-0.012342809888394549,-0.11478906628377734
1761336330640173800,5.594173828125,-0.10680559324920177,-0.014383809630130417,-0.11296733074933289
1761336330650239700,5.60423974609375,-0.14103636415302753,-0.03808556033556815,-0.09176584502756595
1761336330660305700,5.6143056640625,-0.14482231243252752,-0.02437725251393858,-0.0773766696691513
1761336330670372600,5.62437255859375,-0.10391279441714286,-0.012232138888421468,-0.06624276977963746
1761336330680438800,5.634438720703125,-0.05513210463523865,-0.01939440433376003,-0.033077436150237914
1761336330690505700,5.644505615234375,-0.00779869105219841,-0.008797485981334466,0.013789236703887582
1761336330700571600,5.654571533203125,0.03372399042546749,-0.007124789829028305,0.05251841500550508
1761336330710637800,5.664637939453125,0.049936874079704284,-0.02315912259556353,0.05104739260487258
1761336330720704800,5.674704833984375,0.031384733822941775,-0.061711460192664526,0.05522599346376955
1761336330730771000,5.68477099609375,0.035541853502392765,-0.08791215614094398,0.039292365142330525
1761336330740838000,5.694837890625,0.0495002362281084,-0.08832182378722354,-0.01321209440305829
1761336330750903800,5.70490380859375,0.033981180056929586,-0.07126699571639765,-0.04843348377943039
1761336330760970800,5.714970703125,0.02584288178682327,-0.07421179873032961,-0.06049348553791642
1761336330771037000,5.725036865234375,-0.013063479712605476,-0.07643808734451886,-0.01640446070358157
1761336330781102800,5.735102783203125,-0.08170680782794952,-0.038120435286127026,0.020897826600074765
1761336330791169800,5.745169677734375,-0.14267477900981904,-0.015895111525512765,0.05305412931740284
1761336330801235700,5.755235595703125,-0.16209610331654548,-0.002085886912944261,0.07135002979077398
1761336330811303000,5.765302978515625,-0.13656769430637358,-0.004747436555684544,0.046778410048782824
1761336330821368600,5.77536865234375,-0.09802139829099178,-0.02444100421582116,0.023711130455136297
1761336330831434800,5.785434814453125,-0.07055763730406761,-0.03411822760717478,-0.0016497399684041738
1761336330841501700,5.795501708984375,-0.03511865965425968,-0.05128927963592578,-0.042948038105666636
1761336330851567900,5.80556787109375,-0.0021036942809820173,-0.04958934841682203,-0.04934614164493978
1761336330861634800,5.815634765625,-0.01615735407471657,-0.058071902680490166,-0.03234831815809011
1761336330871700700,5.82570068359375,-0.043893502262234686,-0.048409454449871554,-0.023265870905667542
1761336330881767000,5.835766845703125,-0.055441901236772534,-0.0035004167570761636,-0.06807838770896196
1761336330891833900,5.845833740234375,-0.041240941926836965,0.03262571489394177,-0.0648524113997817
1761336330901899800,5.855899658203125,-0.023516484665870665,0.01865922192700673,-0.04469385885968804
1761336330911966700,5.865966796875,-0.021067922469973563,0.001898062448465498,-0.06418430287986994
1761336330922033000,5.876032958984375,-0.07090601235032082,0.013506900073081488,-0.08272752917781472
1761336330932099800,5.886099853515625,-0.12132044081389903,0.015136235432629472,-0.08305091591328383
1761336330942165800,5.896165771484375,-0.12802958306372164,0.001484893379069399,-0.05171060575395822
1761336330952232000,5.90623193359375,-0.08134849590957165,-0.006451451436505886,-0.044822819001600143
1761336330962299000,5.916298828125,-0.005738251391053199,-0.03349474824685603,-0.023861864037439225
1761336330972364800,5.92636474609375,0.05608604435920715,-0.06086072968142107,-0.0009074702337384223
1761336330982432000,5.936431884765625,0.09826163678765297,-0.05006651920820586,-0.007643938881903886
1761336330992497700,5.94649755859375,0.1454343068510294,0.01035117713016225,-0.027516294891759753
1761336331002563800,5.956563720703125,0.1310907242000103,0.05014961264808662,-0.01070332645252347
1761336331012630800,5.966630859375,0.06973170787394047,0.025449596736475358,0.05407002836167812
1761336331022696700,5.97669677734375,-0.02516717448234558,-0.017937305427202954,0.06930734498202801
1761336331032763600,5.986763671875,-0.08454641516804695,-0.022700635955051982,0.051592605397477745
1761336331042829800,5.996829833984375,-0.09280863207876681,-0.03659738815402379,0.018713468298316
1761336331052895700,6.006895751953125,-0.05070376679897308,-0.02802041762215085,-0.008540741591155528
1761336331062962700,6.016962646484375,-0.037294250127673144,-0.015515934915619436,-0.04897007487416267
1761336331073028900,6.02702880859375,-0.04644727839827537,0.024959861007751896,-0.07109094046317041
1761336331083095800,6.037095703125,-0.0893587838858366,0.020114599233935587,-0.07014255369715393
1761336331093161700,6.04716162109375,-0.13378127845823765,0.016146718516270628,-0.06962481343336403
1761336331103229000,6.05722900390625,-0.1623486167728901,0.019783036041876766,-0.07711480386257172
1761336331113294800,6.067294921875,-0.16719371871650218,0.03603620832401793,-0.09994104124195873
1761336331123360800,6.07736083984375,-0.14246201304197312,0.02450709857183974,-0.11543993140794336
1761336331133428000,6.087427978515625,-0.09437631978690623,-0.01199626832291251,-0.12360760190300643
1761336331143494000,6.097493896484375,-0.059792497661709784,-0.06561540426206774,-0.1251074850719422
1761336331153560800,6.107560791015625,-0.0002741407662630081,-0.07643356186645105,-0.1485365106500685
1761336331163627000,6.117626953125,0.052690556702017784,-0.05978549253218807,-0.18457425791062412
1761336331173692700,6.127692626953125,0.044855040770769114,-0.0605641624542186,-0.20261552603580057
1761336331183759600,6.137759521484375,-0.005451835665106773,-0.04284148159180767,-0.18830087721832095
1761336331193825800,6.14782568359375,-0.07432955705821513,0.01602662210082635,-0.11828969481587409
1761336331203892700,6.157892822265625,-0.13355156135559082,0.06606432620650157,-0.0019748802695423364
1761336331213958700,6.167958740234375,-0.14545768772661685,0.05859207692996133,0.07981836373284458
1761336331224025600,6.178025634765625,-0.09626432549059391,0.06017655594269745,0.07365998723357915
1761336331234091800,6.188091796875,-0.02480243282318115,0.05665087516773492,0.039556203710287806
1761336331244157700,6.19815771484375,0.040675124737620354,0.010191995379922445,0.002604702605679631
1761336331254225000,6.208224853515625,0.10970306825637817,-0.022634208238893186,-0.015278452348336576
1761336331264290800,6.218290771484375,0.14733049586117267,-0.017875613251666072,-0.014987068186327814
1761336331274357800,6.228357666015625,0.14784955129921434,-0.018197077458107377,-0.023492519268393516
1761336331284424000,6.238423828125,0.10266600922644138,-0.013924447348428657,-0.03136588299199938
1761336331294489900,6.24848974609375,0.023176292926073074,0.0171439242765191,-0.05884155361242592
1761336331304556800,6.258556884765625,-0.06688976244628429,0.0008681822570768417,-0.0830623140901327
1761336331314623000,6.268623046875,-0.12943886533975602,-0.04253026021816767,-0.1147529720570892
1761336331324690000,6.27868994140625,-0.1392073951601982,-0.05248296009963378,-0.1848980830375105
1761336331334755800,6.288755859375,-0.14477496615946292,-0.05687797105503268,-0.20117014953307807
1761336331344821800,6.29882177734375,-0.13319851013422013,-0.06317107984987087,-0.18765688022635876
1761336331354888700,6.308888671875,-0.13188275136053562,-0.03341736759513151,-0.16397482973523436
1761336331364954600,6.31895458984375,-0.12440613186955451,-0.005745766835584072,-0.11396116409227251
1761336331375021800,6.329021728515625,-0.10324234780967236,-0.0033347008055949114,-0.0642022769279778
1761336331385087700,6.339087646484375,-0.12422083843052387,0.027538716786121947,-0.07797792349793016
1761336331395154700,6.34915478515625,-0.17466332394480705,0.029315994407620744,-0.0802484987784177
1761336331405220900,6.359220947265625,-0.19665303743481635,-0.028352716033149043,-0.07078874264620244
1761336331415286800,6.369286865234375,-0.18775661427378654,-0.06299583288081921,-0.09208667447976768
1761336331425353700,6.379353759765625,-0.1533896497696638,-0.0448518304669531,-0.09833470202386378
1761336331435420000,6.389419921875,-0.11051087750792503,-0.02755562682172749,-0.07041727898530661
1761336331445487400,6.3994873046875,-0.05794891562163829,-0.024032382315734867,-0.052473991341888904
1761336331455553000,6.409552978515625,-0.04303074795305729,0.01923910874077119,-0.041629429787769914
1761336331465619200,6.419619140625,-0.0621311697423458,0.06436902093016542,-0.01764174741357565
1761336331475686100,6.42968603515625,-0.09001111031472682,0.08014502927078865,0.003666267422586679
1761336331485752000,6.439751953125,-0.12831833687722682,0.0596769404240651,0.019637597405910492
1761336331495819000,6.449819091796875,-0.12915478770136832,0.06250769317084923,0.026675971610099075
1761336331505885200,6.45988525390625,-0.09676759883761406,0.06406353517756797,0.02698350318931043
1761336331515951000,6.469951171875,-0.053530514657497405,0.03828360365831759,0.038223347671329976
1761336331526018000,6.48001806640625,-0.026627894684672353,0.0233024286399479,0.01756115645803511
1761336331536084200,6.490084228515625,-0.0066617959767580025,0.021601780468213837,-0.03315875775814056
1761336331546151200,6.500151123046875,0.00800911893248558,0.016533226765959988,-0.11568221573121845
1761336331556217000,6.510217041015625,0.03837853823304176,0.007203099208403728,-0.15690189567431806
1761336331566284300,6.5202841796875,0.08224573701024054,-0.01423315139635233,-0.14296667462848126
1761336331576350200,6.53035009765625,0.08766425492763519,-0.04047620006545912,-0.0722811000958085
1761336331586416000,6.540416015625,0.06884206555783748,-0.050742030149861235,-0.04263955667838454
1761336331596483300,6.5504833984375,0.04223638270497322,-0.04556262735112104,-0.07632460333295166
1761336331606549200,6.56054931640625,-0.012857728007435797,-0.020102641651371957,-0.1406479493573308
1761336331616616200,6.5706162109375,-0.11705986075997352,0.013884258043579756,-0.1558151233509183
1761336331626682400,6.580682373046875,-0.2128852103114128,0.030996118097845464,-0.09930946534015238
1761336331636748000,6.590748046875,-0.3082698303580284,0.034746271261468065,-0.06509520717971026
1761336331646815000,6.60081494140625,-0.3669236793786287,0.06460429555734154,-0.05102291575074196
1761336331656881200,6.610881103515625,-0.3370733155161142,0.04053588523028884,-0.06355733008794485
1761336331666948000,6.620947998046875,-0.2555103000730276,-0.019928150450857354,-0.08586787303015589
1761336331677014000,6.631013916015625,-0.14947569119632242,-0.06443614504935685,-0.11163644747175276
1761336331687080200,6.641080078125,-0.05015665431022644,-0.08574200902762823,-0.1143182339016348
1761336331697147100,6.651147216796875,0.046592824348807335,-0.10995288743213749,-0.10958309513851999
1761336331707213000,6.661213134765625,0.12144552849829196,-0.1019329822441563,-0.104775110334903
1761336331717280300,6.6712802734375,0.1829740561723709,-0.07408407613085582,-0.10719634613245725
1761336331727346200,6.68134619140625,0.18534253886938093,-0.055440280101844104,-0.1119878181926906
1761336331737413000,6.6914130859375,0.13938918146789073,-0.039531996284215706,-0.11586875127926469
1761336331747479300,6.701479248046875,0.043458617976307866,-0.01366124810128822,-0.06387984004057944
1761336331757545200,6.711545166015625,-0.04757774373292923,0.03494582840458024,-0.0013031184878200292
1761336331767612200,6.721612060546875,-0.12368190924823283,0.05616590009580832,0.0683196491189301
1761336331777678300,6.73167822265625,-0.18843115253448486,0.043827268625609574,0.09534911034181713
1761336331787745300,6.741745361328125,-0.19496727630496025,0.024194945616438052,0.03991407723724842
1761336331797811200,6.751811279296875,-0.14403203883767127,-0.010071305309433955,-0.040895562555268404
1761336331807877000,6.761877197265625,-0.05799275476336479,-0.06228904545148834,-0.11250614297837018
1761336331817944300,6.7719443359375,0.028517653954029082,-0.08505841981079429,-0.13515066711530088
1761336331828010000,6.782010009765625,0.09854103825092315,-0.07385740493524354,-0.13447810161598026
1761336331838077200,6.7920771484375,0.06934826151430606,-0.07277797110150568,-0.11776238300614059
1761336331848143000,6.80214306640625,-0.025302783560752867,-0.049381665049470023,-0.09031104310937225
1761336331858209000,6.812208984375,-0.08374795826673508,0.004618627110822126,-0.06265468215979636
1761336331868276200,6.822276123046875,-0.12324585591852665,0.005201847525988705,-0.0241762637488544
1761336331878342100,6.832342041015625,-0.12254033799767493,0.006736845390789676,0.03312302885763347
1761336331888409000,6.8424091796875,-0.15764964530169964,-0.0020162100770627148,0.0800878283239901
1761336331898475300,6.852475341796875,-0.21114450412392616,-0.023905582164868246,0.08898578585498035
1761336331908542200,6.862542236328125,-0.25435528481900693,-0.02470723567026434,0.029960838499665257
1761336331918608100,6.872608154296875,-0.2727601255595684,-0.057577461093897,-0.02850961677804589
1761336331928674300,6.88267431640625,-0.2455716743826866,-0.11948947166022844,-0.06699256523363292
1761336331938741200,6.8927412109375,-0.2105459537088871,-0.1536701289451681,-0.1170016277667135
1761336331948807200,6.90280712890625,-0.1070826566249132,-0.17151592929717152,-0.1580451474253088
1761336331958874000,6.9128740234375,-0.014090484672784804,-0.17252541686696932,-0.1696863392498344
1761336331968940300,6.922940185546875,0.08786883758902549,-0.15011193414009175,-0.14009813345484434
1761336331979006000,6.933005859375,0.17506079882979392,-0.09711159910284914,-0.08244739706218242
1761336331989073200,6.9430732421875,0.19979425806999204,-0.020317547060665672,0.015255582929402588
1761336331999139000,6.95313916015625,0.14214169504642485,0.04797178911839146,0.10017528838925063
1761336332009206000,6.9632060546875,-0.008321838143467902,0.09317460671379231,0.1474611365035176
1761336332019272200,6.973272216796875,-0.1799105769485235,0.09902367980186827,0.13724303628467022
1761336332029338000,6.983338134765625,-0.3205179020345211,0.06475476884474046,0.06810885591246188
1761336332039405000,6.993405029296875,-0.4168506165862083,0.018664481482369592,0.008179360932856797
1761336332049471200,7.00347119140625,-0.408525855833292,-0.031991933335317295,-0.07278013565912843
1761336332059538200,7.0135380859375,-0.24775311007499692,-0.044524055250734086,-0.14481697867028415
1761336332069604000,7.02360400390625,-0.018317162457108495,-0.04864442311637103,-0.1638602634448558
1761336332079671000,7.033671142578125,0.2122872444182634,-0.09788799030282534,-0.1279690850481391
1761336332089737200,7.0437373046875,0.38972704733908176,-0.12775295807942746,-0.10202530017010868
1761336332099803100,7.05380322265625,0.456184263586998,-0.11213299881704152,-0.12021437926813959
1761336332109870000,7.0638701171875,0.4304267219960689,-0.04793448474872857,-0.13425978269018232
1761336332119936300,7.073936279296875,0.3319482275873422,0.003965875990246422,-0.09545731995664536
1761336332130003200,7.084003173828125,0.1977653825908899,-0.0060977232200559225,0.012188742704689502
1761336332140069000,7.094069091796875,0.05101122531294822,-0.023217209458351134,0.09886932035721838
1761336332150135300,7.10413525390625,-0.09146890790760516,-0.044096226326678874,0.1156879148196429
1761336332160202200,7.1142021484375,-0.2094341930747032,-0.04875529961232096,0.08150222516655921
1761336332170268200,7.12426806640625,-0.27538521336615085,-0.02826132283909246,0.053282092854380604
1761336332180335400,7.13433544921875,-0.35088498324751854,-0.003848337428891682,0.04206570231318474
1761336332190401000,7.144401123046875,-0.37344285201430316,-0.0014413895953606698,0.02037541016116738
1761336332200467200,7.15446728515625,-0.35415479869842525,0.016162413842324166,-0.022026830630004404
1761336332210534100,7.1645341796875,-0.2949409777075052,0.017046520325139862,-0.028981399008259176
1761336332220600000,7.17460009765625,-0.1987812816351652,-0.016303731142310426,-0.06185344877950847
1761336332230667000,7.1846669921875,-0.08211772671639919,-0.032214537993876725,-0.11441577599197625
1761336332240733200,7.194733154296875,0.0435790294855833,-0.022388971623417454,-0.14136815339066086
1761336332250800000,7.204800048828125,0.12323358095884322,-0.040042603554320516,-0.12079283674322068
1761336332260866000,7.214865966796875,0.11350830575823784,-0.05294102433174848,-0.10678674241825938
1761336332270932200,7.22493212890625,0.058059974780678744,-0.051624242644757026,-0.12908720235787333
1761336332280999200,7.234999267578125,-0.0445464132130146,-0.038138066840940156,-0.138445909268409
1761336332291065300,7.2450654296875,-0.13404548235237598,-0.041646974577615035,-0.12848470642007886
1761336332301132300,7.25513232421875,-0.1628577353388071,-0.03429557063519023,-0.13791772067584096
1761336332311198200,7.2651982421875,-0.12155658765733242,-0.014264284036844037,-0.12708324212431907
1761336332321264400,7.275264404296875,-0.042405894052982326,-0.009645994852739386,-0.08777114936821162
1761336332331331300,7.285331298828125,0.08181962055265903,-0.01589919861216331,-0.05004391465075314
1761336332341397200,7.295397216796875,0.18573826018869877,-0.010865172800596337,-0.020348887480422854
1761336332351464200,7.305464111328125,0.20892098285555838,0.01614124319013208,-0.016255553752183915
1761336332361530000,7.315530029296875,0.12474690813124178,0.027120895516138988,-0.0051676849614828825
1761336332371596000,7.325595947265625,0.007757189998030662,0.014290060082206036,0.004013254229351878
1761336332381663000,7.3356630859375,-0.12206687526702881,0.020231546994356902,0.005857639987021684
1761336332391729200,7.345729248046875,-0.21951018140912054,0.011972522121143992,-0.006324819107353687
1761336332401796000,7.355796142578125,-0.28131811054646966,-0.026581041601952165,-0.0397526030652225
1761336332411862000,7.365862060546875,-0.2502244686245918,-0.03617310746050207,-0.10407244195826351
1761336332421928200,7.37592822265625,-0.19246143096387386,-0.06378954054177738,-0.17729878701493143
1761336332431995100,7.3859951171875,-0.13043430611789225,-0.09182427895022556,-0.2206919385395944
1761336332442061300,7.396061279296875,-0.03604921850264072,-0.06816348587626125,-0.23367833442799746
1761336332452128500,7.40612841796875,0.07454056946039199,-0.045167294190870594,-0.21749679576009512
1761336332462194200,7.416194091796875,0.1584656378597021,-0.046178402895596805,-0.18866021205000577
1761336332472261000,7.42626123046875,0.1792442219942808,-0.057844788526883344,-0.15874525851868093
1761336332482327300,7.436327392578125,0.1330237380892038,-0.028450833512225653,-0.14242913368567822
1761336332492393200,7.446393310546875,0.0667015463978052,0.008866453856095904,-0.0926910701137036
1761336332502460200,7.456460205078125,-0.02042319482564926,0.007989522607804974,-0.026368805357068776
1761336332512526300,7.4665263671875,-0.11319909367859363,0.016097673476464115,0.0029893180090934035
1761336332522593300,7.47659326171875,-0.18843056801259517,0.04022363637676462,-0.014624664614722132
1761336332532659200,7.4866591796875,-0.23066811976134777,0.024506176123232578,-0.021964944374933838
1761336332542725400,7.496725341796875,-0.2469131521195173,-0.008497247226012404,-0.061385392876341933
1761336332552792300,7.506792236328125,-0.22949732241630552,-0.047748214062163605,-0.11217983363345264
1761336332562858200,7.516858154296875,-0.15692600720226763,-0.04721425331593491,-0.1369797091733664
1761336332572925400,7.526925537109375,-0.07261106270253657,-0.018139871944731566,-0.11870821248888969
1761336332582991400,7.536991455078125,0.002882277438044548,0.006157983773620799,-0.07541530646830796
1761336332593057300,7.547057373046875,0.044428924313187595,0.035189925659028815,-0.06728701813556254
1761336332603124500,7.55712451171875,0.006754150435328483,0.07319439728213474,-0.07262319153174758
1761336332613190400,7.5671904296875,-0.0493827473282814,0.07641436397563665,-0.05450841977894306
1761336332623257300,7.57725732421875,-0.12558978869616985,0.02991821406749077,-0.04669935346320271
1761336332633323300,7.5873232421875,-0.19741642302274703,-0.016066081894957458,-0.07265102938674389
1761336332643390200,7.59739013671875,-0.2222784770786762,-0.06844004236189648,-0.1291944621246308
1761336332653456100,7.6074560546875,-0.1859925272107124,-0.11121646849401294,-0.1701974305771291
1761336332663522300,7.617522216796875,-0.11878244676887989,-0.11594700414724647,-0.21384623736329375
1761336332673589200,7.62758935546875,-0.011634323692321777,-0.06748946363879367,-0.23070976694598794
1761336332683655200,7.6376552734375,0.08946224426031112,-0.03265417380344588,-0.2097986424729228
1761336332693722400,7.647722412109375,0.1402618726491928,-0.05716764275056775,-0.1353446553174406
1761336332703788300,7.657788330078125,0.1523135449707508,-0.056411632184917106,-0.06659859747998416
1761336332713854200,7.667854248046875,0.1388064131438732,-0.0878422235767357,-0.048854924061894414
1761336332723921400,7.67792138671875,0.0917588307648897,-0.12803941033799202,-0.09593845453709364
1761336332733987300,7.6879873046875,0.00047930794954299924,-0.15221570148630997,-0.05421900837831199
1761336332744054300,7.69805419921875,-0.09016776218116283,-0.08746595587655902,-0.11464885409548878
1761336332754120400,7.708120361328125,-0.2196726784944534,-0.009855765145900659,-0.11809716791845858
1761336332764186400,7.718186279296875,-0.30022447106838224,0.0440194849957712,-0.06164762400910258
1761336332774253300,7.72825341796875,-0.3153092274755239,0.04015861288311425,-0.034661855797469616
1761336332784319500,7.738319580078125,-0.2905699230164289,0.0023274930994957683,-0.08060556858778
1761336332794386400,7.748386474609375,-0.2116045228511095,-0.025168462257133796,-0.16833777418509124
1761336332804452000,7.7584521484375,-0.1704080045878887,-0.06578671940809581,-0.22269487585984168
1761336332814519300,7.768519287109375,-0.10890636492073535,-0.09660924820443614,-0.2053990192744881
1761336332824585200,7.778585205078125,-0.015194062000513075,-0.0999713907144498,-0.17836232459321616
1761336332834651100,7.788651123046875,0.09734043028950691,-0.07290959812453948,-0.1492912014748901
1761336332844718300,7.79871826171875,0.17360417028069494,-0.05276377720185555,-0.11614501093737781
1761336332854784300,7.8087841796875,0.2168500222891569,-0.030925089555094015,-0.10543576620072126
1761336332864851200,7.818851318359375,0.21941315077543258,-0.018879636911768465,-0.10696180672422051
1761336332874917400,7.82891748046875,0.16068974364995955,0.02923973485061433,-0.10577310839630663
1761336332884983300,7.8389833984375,0.07531038478910923,0.043982258257921784,-0.057320700720697636
1761336332895050200,7.84905029296875,-0.01941197195649147,0.06024021402974613,0.012109320792928337
1761336332905116400,7.859116455078125,-0.14301087909638882,0.06586294471577275,0.07673201509006321
1761336332915183400,7.869183349609375,-0.25124621288776394,0.07617615303928033,0.09867730491645633
1761336332925249300,7.879249267578125,-0.28836393740475175,0.07564914719022345,0.09156791130267083
1761336332935315500,7.8893154296875,-0.25898352914154527,0.05210513063003309,0.06641841860748827
1761336332945382400,7.89938232421875,-0.18446224890351295,-0.0006177757053170352,0.039411169216409324
1761336332955448300,7.9094482421875,-0.09930793097019194,-0.035165243308921346,0.018027093469351527
1761336332965515300,7.919515380859375,-0.008339958322048186,-0.0730147709654877,-0.01540127501040697
1761336332975581400,7.92958154296875,0.07074000813364982,-0.08704877164410427,-0.05253120142184198
1761336332985648400,7.9396484375,0.12299451150596141,-0.081229052514676,-0.07089804823957384
1761336332995714300,7.94971435546875,0.08873334546387195,-0.08251988690965809,-0.060631944160535925
1761336333005780200,7.9597802734375,0.01578209102153778,-0.08431278907526284,-0.030551059477776286
1761336333015847200,7.96984716796875,-0.05169979209899902,-0.060304328774521125,0.0032977994363754984
1761336333025913300,7.979913330078125,-0.10936930625736713,-0.04435187245502602,0.033435748068615795
1761336333035980300,7.989980224609375,-0.16005729096531868,-0.02676758628315292,0.0582817277725786
1761336333046046200,8.000046142578125,-0.1760585776954889,-0.023831980355828997,0.06328391997404396
1761336333056112400,8.0101123046875,-0.15010522127151488,-0.05347954252208583,0.03232318371683359
1761336333066178300,8.02017822265625,-0.09836217455267905,-0.08324862130931578,-0.01738258502073586
1761336333076245200,8.030245361328125,-0.035817747834324835,-0.08303274093577638,-0.07682035096064209
1761336333086311400,8.0403115234375,0.016934183666110037,-0.089445220060274,-0.08385974807813763
1761336333096377300,8.05037744140625,0.04409691587984561,-0.08077513473471626,-0.09841697347983717
1761336333106444300,8.0604443359375,0.04292670305669308,-0.0621208903769264,-0.1264439943727106
1761336333116510500,8.070510498046875,-0.018109657186269758,-0.06141744111557491,-0.13226619772017
1761336333126577400,8.080577392578125,-0.1277227090716362,-0.03899703545756638,-0.11099515389353036
1761336333136643300,8.090643310546875,-0.20737550697922705,-0.004736782730929553,-0.08743789882585405
1761336333146709200,8.100709228515624,-0.24234102189838885,8.996157208457589e-7,-0.05378039776533842
1761336333156776200,8.110776123046875,-0.21119535752832888,0.03153275029177312,-0.012263196180388332
1761336333166842000,8.120842041015624,-0.16138240208923815,0.06390452695726416,0.04583689141497016
1761336333176909300,8.130909423828125,-0.13224398588836192,0.06372491890692618,0.13248641634210945
1761336333186975200,8.140975341796874,-0.11663315978050232,0.10805105413249694,0.2031382347356528
1761336333197042200,8.151042236328125,-0.08809270947277545,0.14201282623605802,0.22681210192032156
1761336333207108400,8.1611083984375,-0.036812019568681714,0.080670724512171,0.18301424205228686
1761336333217174300,8.17117431640625,0.006354921984672546,-0.018008843143319245,0.07427344295680523
1761336333227241200,8.1812412109375,0.06709025345444679,-0.06786239317099098,-0.052034942337498065
1761336333237307400,8.191307373046875,0.1010439609825611,-0.11031008510566316,-0.1774039278898388
1761336333247374300,8.201374267578124,0.10211831221580504,-0.10696207158570177,-0.21136004657074808
1761336333257440300,8.211440185546875,0.05138531932234764,-0.031006331247894557,-0.130551356626302
1761336333267506400,8.22150634765625,-0.03860883985757828,0.03101000505930278,0.025963001035153865
1761336333277573400,8.231573486328125,-0.07297872697114945,0.034720497499394695,0.1544925695102662
1761336333287639300,8.241639404296874,-0.07619301284253596,0.031239525799127293,0.15673223819583654
1761336333297706200,8.251706298828125,-0.048257542690634724,-0.0029902952566277234,0.07237418520674109
1761336333307772400,8.2617724609375,-0.046185412591695785,-0.02073559437622316,-0.005052168823033571
1761336333317838000,8.271838134765625,-0.059791328617930406,0.0014218905958579852,-0.043606721210107204
1761336333327905300,8.2819052734375,-0.07967091808617115,0.04195834208172746,-0.0005711509514600039
1761336333337971200,8.29197119140625,-0.11191899074018001,0.07416509177808184,0.055107993107289074
1761336333348038100,8.3020380859375,-0.16160861206054686,0.08480121191302314,0.09232735136784613
1761336333358104300,8.312104248046875,-0.20449615215063094,0.07417023374408017,0.06559511952586472
1761336333368171300,8.322171142578124,-0.17538520847856998,0.04624830349376425,0.02087605315968394
1761336333378237200,8.3322373046875,-0.08431611354351043,0.011534260851331055,-0.04352678784169257
1761336333388303400,8.342303466796874,0.04954933606684207,0.010086526853096437,-0.08654591842219234
1761336333398370300,8.352370361328125,0.1801385404855013,0.007544522211595904,-0.09068623309731483
1761336333408436200,8.362436279296874,0.23491525581181047,-0.008007425873965258,-0.07936353263743222
1761336333418503200,8.372503173828125,0.2402384966611862,-0.003481994613574352,-0.09917195656560361
1761336333428569300,8.3825693359375,0.17421324208974837,0.02029505895093316,-0.16926796770729124
1761336333438635300,8.39263525390625,0.0736035808712244,0.010674995407182723,-0.21182634890824556
1761336333448702200,8.4027021484375,-0.05983224515020847,-0.0032960201837093335,-0.19296448511518538
1761336333458768100,8.41276806640625,-0.15574819559454917,0.015301550096133723,-0.14751725060492754
1761336333468836000,8.422836181640625,-0.20530629948973655,0.04001848289321642,-0.0522154134709388
1761336333478902000,8.432902099609375,-0.18751053055822847,0.03765387722030282,0.025594606114178894
1761336333488968200,8.44296826171875,-0.10718962413072586,0.03493345983006293,0.04453128870911896
1761336333499035100,8.45303515625,-0.0033919805258512494,0.03086687026156578,0.02440459261201322
1761336333509101000,8.46310107421875,0.06274900937974452,0.020332847377785946,0.028427272256836292
1761336333519168300,8.473168212890625,0.07437573428750038,0.0011898525303171482,0.03572268996201455
1761336333529234000,8.48323388671875,0.04948796126842499,-0.01147368748722365,0.017590382552519438
1761336333539299800,8.4932998046875,-0.0048860184758901595,-0.01925288610437419,-0.005884381863474846
1761336333549367000,8.503366943359374,-0.057823827937245366,-0.03861433801660314,-0.016649740701541304
1761336333559433000,8.513432861328125,-0.07198036358356476,-0.08282911725561135,-0.016147344137355683
1761336333569500000,8.5235,-0.07969780609309673,-0.06201567187020555,-0.028562223748117684
1761336333579566000,8.533566162109375,-0.06755261026918888,-0.04756216713788453,-0.019642054385319352
1761336333589632000,8.543632080078124,-0.0673293229073286,-0.053504900725628246,-0.0032554215993732213
1761336333599699000,8.553698974609375,-0.09982406379878521,-0.03882980739818886,-0.008173004257306457
1761336333609765000,8.56376513671875,-0.13668167607486248,-0.035356466448528225,-0.004015007795020938
1761336333619832000,8.57383203125,-0.19379940156936645,-0.04253370341742411,-0.0040484716732054945
1761336333629898000,8.58389794921875,-0.2111199542045593,-0.04723265662230551,-0.002505626145377755
1761336333639965200,8.593965087890625,-0.16174948183596133,-0.0640895738011226,-0.018878230405971405
1761336333650031000,8.604031005859374,-0.09730068280100822,-0.05427221813658252,-0.024885434931516646
1761336333660097000,8.614096923828125,-0.019647534278035162,-0.06257862124890089,-0.023305033872276542
1761336333670164200,8.624164306640624,0.03410334513187408,-0.06506242372153792,-0.018246727569401263
1761336333680230100,8.634230224609375,0.03136836721003056,-0.01926985093890689,-0.0271466578617692
1761336333690297000,8.644297119140624,0.019517185896635054,0.016100322091276757,-0.02513517190888524
1761336333700363300,8.65436328125,-0.002336918514966965,0.027822808124241417,-0.022785759238526222
1761336333710429000,8.664428955078124,-0.03467559206187725,0.037475465613207776,-0.0011903057631105184
1761336333720495900,8.674495849609375,-0.08975976590216159,0.05345089638291392,0.01026661553569138
1761336333730562000,8.68456201171875,-0.1425882697701454,0.059549788646749216,-0.021782500480115412
1761336333740629000,8.69462890625,-0.16534370693564415,0.0564779297536239,-0.059310924689844245
1761336333750695000,8.70469482421875,-0.15512217265069483,0.04852334488681517,-0.07732998098321259
1761336333760761900,8.714761962890625,-0.09814648597538471,0.03692202841495164,-0.047259983020648356
1761336333770828000,8.724828125,-0.038806992778182024,0.04491547485426999,-0.0044062721349298955
1761336333780894000,8.73489404296875,0.04320668904185295,0.07254157309632282,-0.017827990700677036
1761336333790961200,8.744961181640624,0.11715279974043369,0.04842688964186236,-0.037178368663042784
1761336333801027000,8.755027099609375,0.13856909725666045,-0.00997572456402704,-0.03911225933507085
1761336333811094000,8.765093994140624,0.13197861295044422,-0.04219380393857136,-0.10347535284794866
1761336333821160200,8.77516015625,0.08768354414999484,-0.022092173784063196,-0.1858208969708532
1761336333831226000,8.78522607421875,0.024010405662655828,-0.001692190870642662,-0.20429924133904276
1761336333841293000,8.79529296875,-0.06791209123134613,-0.012747901824256405,-0.1407080820467323
1761336333851359200,8.805359130859374,-0.15006839639246464,-0.01366993943946436,-0.06657141721211374
1761336333861426200,8.81542626953125,-0.16424539030492305,-0.04192686466465238,-0.05056991128623485
1761336333871492000,8.8254921875,-0.1407581317335367,-0.06746508268278557,-0.08972213730551303
1761336333881558000,8.83555810546875,-0.1083726964354515,-0.05197101938896812,-0.1471883839767426
1761336333891625000,8.845625,-0.09158347419798374,-0.02952493130043149,-0.15835881648436187
1761336333901691000,8.85569091796875,-0.12884031492471695,-0.007604976844694465,-0.1666571276217699
1761336333911757800,8.8657578125,-0.19403613293468952,0.0032609380247071384,-0.13734298952780663
1761336333921824000,8.875823974609375,-0.24769524240791796,0.026085211775870993,-0.09416019281819463
1761336333931890000,8.885889892578126,-0.25859189947545524,0.03701893118447624,-0.09821005273088812
1761336333941957000,8.89595703125,-0.23960429041087625,0.018198623244510964,-0.1142277791392058
1761336333952023000,8.90602294921875,-0.1951601685285568,-0.012527957196952775,-0.1541233708716929
1761336333962090000,8.916090087890625,-0.13429331963360308,-0.05735853937990032,-0.21691242000088096
1761336333972156200,8.92615625,-0.11786883905529975,-0.11207136829029768,-0.2839206942602992
1761336333982223000,8.93622314453125,-0.2275210539072752,-0.21647324313232674,-0.42144466637820005
1761336333992289000,8.9462890625,-0.2900836008042097,-0.36750315976701675,-0.6940565425734967
1761336334002355200,8.956355224609375,-0.41744098369479177,-0.5634559765106066,-1.088394590839371
1761336334012422100,8.966422119140624,-0.5695815101861953,-0.788457850671187,-1.3912337013855576
1761336334022488000,8.976488037109375,-0.6836258225172758,-1.0577012733466922,-1.8151769065812229
1761336334032555000,8.986554931640624,-0.8437105860114097,-1.1823882679842412,-2.1879589565992354
1761336334042621200,8.99662109375,-1.0061252537578345,-1.0806124125305563,-2.41090232732743
1761336334052686800,9.006686767578126,-1.0305459937870503,-0.7753573999490588,-2.5527003235027195
1761336334062754000,9.016754150390625,-1.0176643003821373,-0.5381881546653807,-2.429257775968313
1761336334072820000,9.026820068359376,-1.0355442404657602,-0.21247728709764777,-1.8816658331416547
1761336334082887000,9.036886962890625,-0.8781178825259208,0.3312597703991458,-1.1134588894691317
1761336334092953000,9.046953125,-0.6283370660156011,0.7354984138999134,-0.476862821413204
1761336334103019000,9.05701904296875,-0.3227566208720207,0.6941421019650995,-0.10005874933749437
1761336334113086000,9.0670859375,0.10973404791653156,0.5249705073043703,0.035766017647087575
1761336334123152100,9.077152099609375,0.5770031846195459,0.4743680819880217,-0.004054097696393728
1761336334133219000,9.087218994140626,0.8173235143452883,0.5791276294276118,-0.015320245663449167
1761336334143285000,9.097284912109375,0.8626555249780415,0.9099881348434835,0.16494732802920042
1761336334153352000,9.10735205078125,0.8660890065580606,1.2744193398192525,0.5599702898193151
1761336334163418000,9.117418212890625,0.8244459135711193,1.4202490757286548,1.1293011862453073
1761336334173484000,9.127484130859376,0.6762088242590427,1.3479258900567888,1.6722212648034094
1761336334183551000,9.137551025390625,0.5030559048771858,1.0472498758286237,1.9594306253455578
1761336334193617200,9.1476171875,0.3205044580310583,0.7357889212790876,1.9242798169873654
1761336334203684000,9.15768408203125,0.08875380373001097,0.6378141386087983,1.5269694749124347
1761336334213750000,9.16775,-0.22562311133146284,0.6613159371621906,0.9392435284875332
1761336334223816200,9.177816162109375,-0.6132073014229535,0.572467294755578,0.4596741515293717
1761336334233883100,9.187883056640626,-0.8852730149775743,0.23923363046757876,0.15413564583137632
1761336334243949000,9.197948974609375,-0.7446621827602387,-0.02943023875430226,-0.004023629492893815
1761336334254016300,9.208016357421876,-0.13072890515029428,-0.11049348798170686,0.03680241149011999
1761336334264082000,9.21808203125,0.5274743068188429,-0.40712314942851663,-0.36608631523903457
1761336334274148000,9.228148193359376,0.5965683013111353,-1.137968184564635,-0.7887089758880436
1761336334284215000,9.238215087890625,0.9904442850232124,-1.1180728130053728,-1.0937814715094865
1761336334294281000,9.248281005859376,1.5013994187176227,-0.5663421629387885,-1.2144696788344531
1761336334304348000,9.258347900390625,1.1104887145519255,-0.033002032826468346,-0.41729284392837435
1761336334314414000,9.2684140625,0.2735731955081224,-0.11172193379811941,0.4054733729274943
1761336334324481000,9.27848095703125,-0.3592500760108232,0.0476977168507874,0.7752488980732858
1761336334334547000,9.288546875,-0.6454401765078306,0.5902691281016915,0.7710944818075746
1761336334344613000,9.298613037109375,-0.7037859824925661,0.8613323866154998,0.7085559733733534
1761336334354680000,9.30868017578125,-0.7149988659024238,0.72773472109586,0.7808446722537279
