time,seconds_elapsed,z,y,x
1761336325123776500,0.077776611328125,0.3002264201641083,-0.4421207308769226,0.03826402500271797
1761336325133842400,0.087842529296875,0.33753490447998047,-0.30680978298187256,-0.036020856350660324
1761336325143909400,0.097909423828125,0.3750772476196289,-0.1522066295146942,-0.12401129305362701
1761336325153975600,0.1079755859375,0.39403656125068665,-0.010630050674080849,-0.229198157787323
1761336325164042500,0.11804248046875,0.4052187204360962,0.05302802473306656,-0.36055928468704224
1761336325174108400,0.1281083984375,0.38881736993789673,0.01138949953019619,-0.5137674808502197
1761336325184175600,0.138175537109375,0.37441083788871765,-0.09796762466430664,-0.6267427802085876
1761336325194241500,0.148241455078125,0.3838341534137726,-0.15364578366279602,-0.6649309396743774
1761336325204307200,0.15830712890625,0.4181300401687622,-0.1343434602022171,-0.6186419129371643
1761336325214374400,0.16837451171875,0.4538499712944031,-0.09141331166028976,-0.5279468894004822
1761336325224440300,0.1784404296875,0.4740220308303833,-0.06573831290006638,-0.4355604350566864
1761336325234507300,0.18850732421875,0.48650214076042175,-0.09601259231567383,-0.3810356557369232
1761336325244573400,0.198573486328125,0.5035714507102966,-0.21261972188949585,-0.3632151186466217
1761336325254640400,0.208640380859375,0.5324113368988037,-0.40742993354797363,-0.3938518464565277
1761336325264706300,0.218706298828125,0.580612301826477,-0.5620903372764587,-0.4470432698726654
1761336325274772500,0.2287724609375,0.6333686709403992,-0.6135991215705872,-0.515485942363739
1761336325284839400,0.23883935546875,0.6920034289360046,-0.6100810170173645,-0.5686517357826233
1761336325294905300,0.2489052734375,0.7524851560592651,-0.5385264158248901,-0.5941696166992188
1761336325304972300,0.25897216796875,0.8225628137588501,-0.39590921998023987,-0.5945576429367065
1761336325315038500,0.26903857421875,0.9050358533859253,-0.20374110341072083,-0.5906526446342468
1761336325325104400,0.2791044921875,0.992716908454895,0.006133217364549637,-0.589829683303833
1761336325335171600,0.289171630859375,1.0668023824691772,0.19770477712154388,-0.6025912761688232
1761336325345237500,0.299237548828125,1.1312402486801147,0.3643735647201538,-0.6288517713546753
1761336325355304400,0.309304443359375,1.1806423664093018,0.4767501652240753,-0.6522039771080017
1761336325365370600,0.31937060546875,1.2086067199707031,0.522129476070404,-0.667898416519165
1761336325375437600,0.3294375,1.2224488258361816,0.4654097259044647,-0.6845487952232361
1761336325385503500,0.33950341796875,1.22337806224823,0.33645644783973694,-0.6987230777740479
1761336325395569400,0.3495693359375,1.210986614227295,0.1574435532093048,-0.714935302734375
1761336325405636400,0.35963623046875,1.1826512813568115,-0.0391266793012619,-0.7210943102836609
1761336325415702300,0.369702392578125,1.1497225761413574,-0.20869360864162445,-0.7264286279678345
1761336325425769200,0.379769287109375,1.1310607194900513,-0.3179650604724884,-0.7372502684593201
1761336325435835400,0.38983544921875,1.126214861869812,-0.3511003851890564,-0.7547981142997742
1761336325445903400,0.3999033203125,1.1321460008621216,-0.29310113191604614,-0.7744981050491333
1761336325455969300,0.40996923828125,1.131157398223877,-0.15430119633674622,-0.784607470035553
1761336325466035500,0.420035400390625,1.120245099067688,0.008792649954557419,-0.7746094465255737
1761336325476102400,0.430102294921875,1.1319584846496582,0.20670627057552338,-0.727964460849762
1761336325486168300,0.440168212890625,1.1818485260009766,0.4529336988925934,-0.6410583257675171
1761336325496235300,0.4502353515625,1.2478107213974,0.6808717846870422,-0.5425368547439575
1761336325506301400,0.460301513671875,1.3027729988098145,0.8281257748603821,-0.4370300769805908
1761336325516367000,0.4703671875,1.3307948112487793,0.8645815253257751,-0.32551872730255127
1761336325526434300,0.480434326171875,1.32863187789917,0.807255208492279,-0.22475913166999817
1761336325536500200,0.490500244140625,1.3187617063522339,0.6992000937461853,-0.10953082144260406
1761336325546567200,0.500567138671875,1.3058873414993286,0.5733367204666138,-0.00781554076820612
1761336325556633300,0.51063330078125,1.2782278060913086,0.43178945779800415,0.0735461562871933
1761336325566700300,0.5207001953125,1.221327781677246,0.2086813598871231,0.13174797594547272
1761336325576766200,0.53076611328125,1.1433086395263672,-0.06540452688932419,0.1789003163576126
1761336325586832400,0.540832275390625,1.051223635673523,-0.31839409470558167,0.23122848570346832
1761336325596899300,0.5508994140625,0.9501298666000366,-0.4989124834537506,0.28126341104507446
1761336325606965200,0.56096533203125,0.833491325378418,-0.5534734129905701,0.3264926075935364
1761336325617032200,0.5710322265625,0.692426860332489,-0.48426979780197144,0.3753608167171478
1761336325627098400,0.581098388671875,0.5327903628349304,-0.34664738178253174,0.40537476539611816
1761336325637165300,0.591165283203125,0.35012146830558777,-0.19691728055477142,0.4201374650001526
1761336325647231200,0.601231201171875,0.16935551166534424,-0.0698225349187851,0.4290369749069214
1761336325657297400,0.61129736328125,0.018351882696151733,0.03508124500513077,0.4456886649131775
1761336325667364400,0.6213642578125,-0.11307995766401291,0.12681907415390015,0.47046661376953125
1761336325677430300,0.63143017578125,-0.22461926937103271,0.18704752624034882,0.4929218590259552
1761336325687497500,0.64149755859375,-0.3220561444759369,0.19440539181232452,0.4985685646533966
1761336325697563400,0.6515634765625,-0.39170607924461365,0.13021095097064972,0.4594653844833374
1761336325707630300,0.66163037109375,-0.4409416615962982,0.021328503265976906,0.3838209807872772
1761336325717696300,0.6716962890625,-0.4701767563819885,-0.08895060420036316,0.2981942296028137
1761336325727762200,0.68176220703125,-0.47823554277420044,-0.09512674808502197,0.2246847003698349
1761336325737829000,0.6918291015625,-0.45586687326431274,-0.08642726391553879,0.13976581394672394
1761336325747895300,0.701895263671875,-0.4184671938419342,-0.1125173568725586,0.02778305485844612
1761336325757962200,0.711962158203125,-0.3385702073574066,-0.12884892523288727,-0.08858191221952438
1761336325768028200,0.722028076171875,-0.23271703720092773,-0.12385569512844086,-0.1942571997642517
1761336325778094300,0.73209423828125,-0.1048182025551796,-0.08835655450820923,-0.2699072062969208
1761336325788161300,0.742161376953125,0.03341861814260483,-0.04998065158724785,-0.32860004901885986
1761336325798227200,0.752227294921875,0.16812317073345184,0.003139559179544449,-0.37015044689178467
1761336325808294400,0.76229443359375,0.28347185254096985,0.0749378502368927,-0.3898198902606964
1761336325818360300,0.7723603515625,0.3495035767555237,0.1376129388809204,-0.3822077810764313
1761336325828427300,0.78242724609375,0.3562014102935791,0.1669115424156189,-0.3628813624382019
1761336325838493400,0.792493408203125,0.3244224488735199,0.16143953800201416,-0.3510452210903168
1761336325848559400,0.802559326171875,0.2827351987361908,0.1211165338754654,-0.3444739878177643
1761336325858626300,0.812626220703125,0.26228612661361694,0.08773566782474518,-0.35063040256500244
1761336325868692500,0.8226923828125,0.2553299367427826,0.10287937521934509,-0.3512169122695923
1761336325878759400,0.832759521484375,0.2607177793979645,0.12481903284788132,-0.3595627248287201
1761336325888825000,0.8428251953125,0.2497165948152542,0.12669850885868073,-0.36652520298957825
1761336325898892300,0.852892333984375,0.24187225103378296,0.12917470932006836,-0.3703601658344269
1761336325908958200,0.862958251953125,0.23485417664051056,0.12330351769924164,-0.3723911941051483
1761336325919024000,0.873024169921875,0.22112584114074707,0.09981097280979156,-0.374057799577713
1761336325929091300,0.88309130859375,0.19481238722801208,0.07707290351390839,-0.38420653343200684
1761336325939157200,0.8931572265625,0.17226579785346985,0.05138777941465378,-0.4024403989315033
1761336325949224200,0.90322412109375,0.14926736056804657,0.0069273728877305984,-0.4188460409641266
1761336325959290400,0.913290283203125,0.12739109992980957,-0.06713753193616867,-0.4304342567920685
1761336325969357300,0.923357421875,0.14552971720695496,-0.09398210793733597,-0.4559643566608429
1761336325979423200,0.93342333984375,0.1679719090461731,-0.09656377881765366,-0.4790518283843994
1761336325989489400,0.943489501953125,0.18685971200466156,-0.10892847180366516,-0.4906195104122162
1761336325999556400,0.953556396484375,0.20288129150867462,-0.12252737581729889,-0.4774523079395294
1761336326009622300,0.963622314453125,0.2242985963821411,-0.14467422664165497,-0.4361490309238434
1761336326019689200,0.973689208984375,0.2609535753726959,-0.11114289611577988,-0.3595605194568634
1761336326029755400,0.98375537109375,0.2920815646648407,-0.0478767566382885,-0.27031174302101135
1761336326039821300,0.9938212890625,0.31422919034957886,0.015599953010678291,-0.1916014850139618
1761336326049888300,1.00388818359375,0.3262462019920349,0.07695163786411285,-0.13205154240131378
1761336326059954400,1.013954345703125,0.3268427550792694,0.1305999606847763,-0.09671325236558914
1761336326070021400,1.024021484375,0.3070506155490875,0.17631275951862335,-0.07195193320512772
1761336326080087300,1.03408740234375,0.2873075306415558,0.21248061954975128,-0.05343098193407059
1761336326090154500,1.044154541015625,0.2706031799316406,0.20781129598617554,-0.045549727976322174
1761336326100220200,1.05422021484375,0.25902482867240906,0.1866340935230255,-0.05050906538963318
1761336326110286300,1.064286376953125,0.24405941367149353,0.13183432817459106,-0.07254215329885483
1761336326120353300,1.074353271484375,0.22675925493240356,0.07847816497087479,-0.10958778858184814
1761336326130419200,1.084419189453125,0.2033197581768036,0.0341164655983448,-0.1487765908241272
1761336326140486100,1.094486083984375,0.17717018723487854,0.0013220356777310371,-0.18198008835315704
1761336326150552300,1.10455224609375,0.16487956047058105,-0.020798377692699432,-0.20425410568714142
1761336326160619300,1.114619384765625,0.17108312249183655,-0.0518505685031414,-0.2144758403301239
1761336326170685200,1.124685302734375,0.2002870738506317,-0.04907606914639473,-0.19656258821487427
1761336326180751400,1.13475146484375,0.24709105491638184,0.013585980981588364,-0.15243986248970032
1761336326190818300,1.144818359375,0.3052608370780945,0.0951843410730362,-0.10499013960361481
1761336326200884200,1.15488427734375,0.3693021237850189,0.1591510772705078,-0.07360424846410751
1761336326210951400,1.164951416015625,0.4211466312408447,0.18616902828216553,-0.05730772763490677
1761336326221017300,1.175017333984375,0.4644341766834259,0.17483460903167725,-0.044434804469347
1761336326231083500,1.18508349609375,0.488865464925766,0.15727753937244415,-0.03066999465227127
1761336326241150500,1.195150390625,0.4860803186893463,0.12775640189647675,-0.012839331291615963
1761336326251216400,1.20521630859375,0.4734247326850891,0.06968724727630615,0.001215307042002678
1761336326261283300,1.215283447265625,0.4780735671520233,0.01749887317419052,0.012189662083983421
1761336326271349200,1.225349365234375,0.4941411018371582,-0.014576505869626999,0.015117920935153961
1761336326281416200,1.235416259765625,0.5026296377182007,-0.03337869048118591,0.008021926507353783
1761336326291482000,1.245482177734375,0.49876949191093445,-0.05813365429639816,-0.00650846166536212
1761336326301548300,1.25554833984375,0.4886084794998169,-0.0704054981470108,-0.03029794618487358
1761336326311615200,1.265615234375,0.4802438020706177,-0.04594001546502113,-0.050883978605270386
1761336326321681200,1.27568115234375,0.4827096164226532,-0.006779829040169716,-0.06918628513813019
1761336326331748400,1.285748291015625,0.5041851997375488,0.045990608632564545,-0.06848716735839844
1761336326341814300,1.295814208984375,0.5241077542304993,0.10844919085502625,-0.0483320988714695
1761336326351881200,1.305881103515625,0.5454031229019165,0.15673984587192535,-0.026569830253720284
1761336326361947400,1.315947509765625,0.5581748485565186,0.17762969434261322,-0.006590530276298523
1761336326372013300,1.326013427734375,0.5524204969406128,0.1680782586336136,0.0047614434733986855
1761336326382080300,1.336080322265625,0.527302622795105,0.13566066324710846,0.009354330599308014
1761336326392146400,1.346146484375,0.4886918365955353,0.09286242723464966,0.00706214364618063
1761336326402213400,1.35621337890625,0.4348573684692383,0.05727354437112808,0.00857322197407484
1761336326412279300,1.366279296875,0.38031095266342163,0.011408673599362373,0.0005950303748250008
1761336326422345500,1.376345458984375,0.33224114775657654,-0.036123692989349365,-0.01517194788902998
1761336326432412400,1.386412353515625,0.2981879711151123,-0.06664778292179108,-0.029010701924562454
1761336326442477800,1.396477783203125,0.2667405605316162,-0.08760473132133484,-0.04306260123848915
1761336326452545000,1.406544921875,0.2502555847167969,-0.07119210809469223,-0.07039736211299896
1761336326462611000,1.41661083984375,0.2697616219520569,-0.02932615578174591,-0.10781130939722061
1761336326472678000,1.426677978515625,0.28237366676330566,0.013401870615780354,-0.11747117340564728
1761336326482744000,1.436744140625,0.2516844570636749,0.0016088597476482391,-0.0898030623793602
1761336326492810000,1.44681005859375,0.21680936217308044,-0.014091447927057743,-0.05813892185688019
1761336326502877000,1.456876953125,0.18556489050388336,-0.030674152076244354,-0.048125170171260834
1761336326512943000,1.466943115234375,0.16073890030384064,-0.049347084015607834,-0.04991155117750168
1761336326523010000,1.477010009765625,0.14822310209274292,-0.0882558673620224,-0.06016099452972412
1761336326533076000,1.487075927734375,0.14347520470619202,-0.12326809763908386,-0.05847734957933426
1761336326543142100,1.49714208984375,0.1449093222618103,-0.13360515236854553,-0.04730325937271118
1761336326553209000,1.507208984375,0.1332458257675171,-0.12191743403673172,-0.03435054048895836
1761336326563275000,1.51727490234375,0.13070917129516602,-0.08946868032217026,-0.02774004265666008
1761336326573342200,1.52734228515625,0.14021745324134827,-0.04914814978837967,-0.020148243755102158
1761336326583408000,1.537408203125,0.1596129983663559,-0.01690232940018177,-0.02533847838640213
1761336326593475000,1.54747509765625,0.1745133101940155,0.004419385455548763,-0.033145152032375336
1761336326603541200,1.557541259765625,0.18080662190914154,0.015380424447357655,-0.040477901697158813
1761336326613607000,1.56760693359375,0.16421040892601013,0.014450357295572758,-0.04408513382077217
1761336326623674000,1.577674072265625,0.1434345543384552,0.006440899334847927,-0.03861207142472267
1761336326633740000,1.587739990234375,0.1218218132853508,-0.004760976880788803,-0.0335833877325058
1761336326643807000,1.597806884765625,0.10462844371795654,-0.013695083558559418,-0.024413857609033585
1761336326653873000,1.607872802734375,0.09942670911550522,-0.012152760289609432,-0.019313516095280647
1761336326663939800,1.61793994140625,0.1046406477689743,-0.0009927833452820778,-0.034150250256061554
1761336326674006000,1.628006103515625,0.11512050777673721,0.02389179728925228,-0.0632309690117836
1761336326684072000,1.638072021484375,0.14730186760425568,0.05491788685321808,-0.10172003507614136
1761336326694139000,1.648138916015625,0.1864590346813202,0.09619146585464478,-0.1391020566225052
1761336326704205000,1.658205078125,0.21451729536056519,0.13827261328697205,-0.16142946481704712
1761336326714272000,1.66827197265625,0.21777014434337616,0.12837417423725128,-0.16244924068450928
1761336326724338200,1.678338134765625,0.20155175030231476,0.056183863431215286,-0.13496674597263336
1761336326734404000,1.688404052734375,0.17318734526634216,-0.004518627189099789,-0.09997271746397018
1761336326744471000,1.698470947265625,0.13490654528141022,-0.032383814454078674,-0.06015739589929581
1761336326754537200,1.708537109375,0.09943310916423798,-0.031889088451862335,-0.020292963832616806
1761336326764604200,1.718604248046875,0.07230721414089203,-0.006673479452729225,0.0017870375886559486
1761336326774670000,1.728670166015625,0.06210646033287048,0.02528107911348343,0.012878959067165852
1761336326784736300,1.738736328125,0.056024327874183655,0.04243024066090584,0.00901497807353735
1761336326794803200,1.74880322265625,0.051037274301052094,0.05102985352277756,0.008508304134011269
1761336326804868900,1.758868896484375,0.03753291442990303,0.049506522715091705,0.0035316552966833115
1761336326814936000,1.76893603515625,0.017457086592912674,0.020315436646342278,0.004819865338504314
1761336326825002000,1.779001953125,-0.007511114701628685,-0.006014171056449413,0.013620281592011452
1761336326835069000,1.78906884765625,-0.03413066640496254,-0.02118273638188839,0.019395962357521057
1761336326845134800,1.799134765625,-0.06860395520925522,-0.027759412303566933,0.021552857011556625
1761336326855201000,1.809200927734375,-0.09604737162590027,-0.031441234052181244,0.013018406927585602
1761336326865268000,1.81926806640625,-0.11349400877952576,-0.02450716122984886,0.0018504410982131958
1761336326875334100,1.829334228515625,-0.12160348147153854,-0.01265529915690422,-0.016205761581659317
1761336326885401000,1.839401123046875,-0.11375673860311508,-0.0032924236729741096,-0.034175973385572433
1761336326895467000,1.849467041015625,-0.09268330782651901,-0.00041114725172519684,-0.04937388002872467
1761336326905533200,1.859533203125,-0.0590348057448864,0.01690632477402687,-0.050286807119846344
1761336326915600100,1.86960009765625,-0.034515008330345154,0.03199535235762596,-0.048603735864162445
1761336326925666000,1.879666015625,-0.014262735843658447,0.015654727816581726,-0.054090648889541626
1761336326935733000,1.88973291015625,0.005491648800671101,-0.01851007714867592,-0.060238659381866455
1761336326945799200,1.899799072265625,0.036545440554618835,-0.057968802750110626,-0.06376894563436508
1761336326955866000,1.9098662109375,0.061036087572574615,-0.09103558957576752,-0.06615474820137024
1761336326965932000,1.91993212890625,0.08472224324941635,-0.10747528076171875,-0.06936146318912506
1761336326975998200,1.929998291015625,0.0945238545536995,-0.09406111389398575,-0.061802446842193604
1761336326986065200,1.940065185546875,0.08996132761240005,-0.07660915702581406,-0.018079467117786407
1761336326996130800,1.950130859375,0.1366550177335739,-0.0128754498437047,-0.029604580253362656
1761336327006198000,1.960197998046875,0.1681559532880783,0.019196465611457825,-0.043566733598709106
1761336327016264000,1.970263916015625,0.1641015261411667,0.010690152645111084,-0.04084525629878044
1761336327026330000,1.980330078125,0.14419147372245789,0.019623462110757828,-0.026501204818487167
1761336327036397000,1.99039697265625,0.12522129714488983,0.034064631909132004,-0.0021629631519317627
1761336327046463000,2.000462890625,0.1100255623459816,0.052170127630233765,0.020201731473207474
1761336327056530000,2.010530029296875,0.08270101994276047,0.06829699128866196,0.026928547769784927
1761336327066596000,2.02059619140625,0.050921522080898285,0.08493588864803314,0.019632287323474884
1761336327076663000,2.0306630859375,0.026918014511466026,0.08932557702064514,-0.0012541287578642368
1761336327086729000,2.04072900390625,0.025460200384259224,0.07960184663534164,-0.03539265692234039
1761336327096795100,2.050795166015625,0.039249129593372345,0.047905877232551575,-0.08399151265621185
1761336327106862000,2.060862060546875,0.07199136167764664,0.020180504769086838,-0.14012669026851654
1761336327116928000,2.070927978515625,0.1142737939953804,0.0012519098818302155,-0.1923796534538269
1761336327126995200,2.0809951171875,0.15487287938594818,-0.010881185531616211,-0.22368112206459045
1761336327137061000,2.09106103515625,0.18461637198925018,-0.01755666546523571,-0.226551353931427
1761336327147127000,2.101126953125,0.19347137212753296,-0.024128016084432602,-0.203260138630867
1761336327157194200,2.1111943359375,0.17949041724205017,-0.031017258763313293,-0.15985004603862762
1761336327167260000,2.121260009765625,0.15724928677082062,-0.038432564586400986,-0.10828673094511032
1761336327177327000,2.1313271484375,0.12736064195632935,-0.03994889184832573,-0.05737447366118431
1761336327187393000,2.14139306640625,0.09988667070865631,-0.04038165509700775,-0.014089050702750683
1761336327197460000,2.1514599609375,0.07461818307638168,-0.029269782826304436,0.02913481369614601
1761336327207526000,2.16152587890625,0.06152261793613434,-0.004520495422184467,0.051594849675893784
1761336327217592000,2.171592041015625,0.05620862543582916,0.0005872733891010284,0.05837833136320114
1761336327227659000,2.181658935546875,0.059037964791059494,-0.00404023565351963,0.060022301971912384
1761336327237725000,2.191724853515625,0.06328573077917099,-0.02614491619169712,0.04508909955620766
1761336327247792000,2.201792236328125,0.05292150750756264,-0.053366683423519135,0.03307265043258667
1761336327257858000,2.211858154296875,0.03705604001879692,-0.08148087561130524,0.029296835884451866
1761336327267924000,2.221924072265625,0.025479543954133987,-0.10004257410764694,0.035005055367946625
1761336327277991200,2.2319912109375,0.012632602825760841,-0.10469476878643036,0.045456595718860626
1761336327288057000,2.24205712890625,0.0033397686202079058,-0.10018336772918701,0.055570751428604126
1761336327298124000,2.2521240234375,-0.0015387795865535736,-0.09377767145633698,0.065089650452137
1761336327308190200,2.262190185546875,0.0029236129485070705,-0.09848614037036896,0.062319960445165634
1761336327318257200,2.272257080078125,0.014457011595368385,-0.11040981858968735,0.054201386868953705
1761336327328323000,2.282322998046875,0.03952721133828163,-0.08889094740152359,0.05822888761758804
1761336327338389200,2.29238916015625,0.0659908726811409,-0.06173122674226761,0.06396982073783875
1761336327348456200,2.302456298828125,0.08279701322317123,-0.05371537804603577,0.06148109957575798
1761336327358521900,2.31252197265625,0.08342903852462769,-0.055848751217126846,0.05096089467406273
1761336327368589000,2.322589111328125,0.07290981709957123,-0.06374794989824295,0.03296111896634102
1761336327378655000,2.332655029296875,0.057483986020088196,-0.06859464198350906,0.012684608809649944
1761336327388721000,2.342720947265625,0.04656849056482315,-0.06436233967542648,0.0009619072079658508
1761336327398788000,2.3527880859375,0.03452465683221817,-0.0642942562699318,-0.012364938855171204
1761336327408854000,2.36285400390625,0.028387401252985,-0.07137160748243332,-0.015488826669752598
1761336327418921000,2.3729208984375,0.03073517419397831,-0.05055350065231323,-0.0010677604004740715
1761336327428987100,2.382987060546875,0.04312419891357422,-0.024805527180433273,0.020776551216840744
1761336327439054000,2.39305419921875,0.0587259903550148,-0.018660811707377434,0.03384166583418846
1761336327449119700,2.40311962890625,0.06855012476444244,-0.02039160020649433,0.03641348332166672
1761336327459186000,2.41318603515625,0.07547128945589066,-0.023038160055875778,0.024630628526210785
1761336327469252900,2.4232529296875,0.07588780671358109,-0.028513353317975998,0.012827232480049133
1761336327479318800,2.43331884765625,0.07190703600645065,-0.03029501438140869,0.0029813628643751144
1761336327489385700,2.4433857421875,0.05906660109758377,-0.03858064115047455,-0.010023651644587517
1761336327499452000,2.453451904296875,0.044545188546180725,-0.05692297965288162,-0.030641984194517136
1761336327509517800,2.463517822265625,0.041778698563575745,-0.08023256063461304,-0.04205522686243057
1761336327519584800,2.473584716796875,0.050451088696718216,-0.09556074440479279,-0.0496516078710556
1761336327529650700,2.483650634765625,0.06369631737470627,-0.09459561109542847,-0.05431933328509331
1761336327539718000,2.4937177734375,0.07568676769733429,-0.1018119752407074,-0.04974140226840973
1761336327549783800,2.50378369140625,0.08385974168777466,-0.0754123330116272,-0.023256264626979828
1761336327559850800,2.513850830078125,0.08766697347164154,-0.040474142879247665,0.020116571336984634
1761336327569916700,2.523916748046875,0.08569889515638351,-0.013474749401211739,0.05514459311962128
1761336327579982800,2.53398291015625,0.09066614508628845,0.00046965107321739197,0.08189097046852112
1761336327590049800,2.5440498046875,0.08627112954854965,0.001528790220618248,0.08815205842256546
1761336327600115700,2.55411572265625,0.08190692216157913,-0.008745335042476654,0.08882994949817657
1761336327610182700,2.5641826171875,0.07297974079847336,-0.026212476193904877,0.08039039373397827
1761336327620248800,2.574248779296875,0.0632287859916687,-0.050665710121393204,0.0671084001660347
1761336327630314800,2.584314697265625,0.05973818153142929,-0.05634969472885132,0.05682806670665741
1761336327640381700,2.594381591796875,0.06351539492607117,-0.053539521992206573,0.04812665656208992
1761336327650448000,2.60444775390625,0.06924305111169815,-0.04732343554496765,0.03472642973065376
1761336327660514800,2.614514892578125,0.08045908063650131,-0.0360540971159935,0.020710712298750877
1761336327670580700,2.624580810546875,0.09271600842475891,-0.031803425401449203,0.0033245310187339783
1761336327680647000,2.63464697265625,0.0941462516784668,-0.04125010222196579,-0.0035225586034357548
1761336327690713900,2.6447138671875,0.09296566992998123,-0.04505336284637451,-0.00353800505399704
1761336327700779800,2.65477978515625,0.0832756906747818,-0.0358436182141304,0.009384897537529469
1761336327710847000,2.664846923828125,0.07331706583499908,-0.020585566759109497,0.026420339941978455
1761336327720912600,2.67491259765625,0.061946671456098557,-0.012890718877315521,0.03321785479784012
1761336327730979600,2.6849794921875,0.04849930480122566,0.0013851560652256012,0.036915116012096405
1761336327741045800,2.695045654296875,0.03453332558274269,0.002945501357316971,0.03026737831532955
1761336327751111700,2.705111572265625,0.01917594112455845,-0.0002042185515165329,0.012519275769591331
1761336327761178600,2.7151787109375,0.014654471538960934,-0.008686920627951622,-0.0073905037716031075
1761336327771244800,2.725244873046875,0.0174968633800745,-0.02793198823928833,-0.025700267404317856
1761336327781311700,2.735311767578125,0.022206399589776993,-0.04025212675333023,-0.028128672391176224
1761336327791377700,2.745377685546875,0.025040801614522934,-0.020354585722088814,-0.02185133472084999
1761336327801443800,2.75544384765625,0.016041036695241928,0.0104300482198596,-0.009070396423339844
1761336327811510800,2.7655107421875,-0.000775492750108242,0.018561210483312607,-0.002088653389364481
1761336327821577000,2.775576904296875,-0.016296736896038055,0.021653853356838226,0.005805603228509426
1761336327831644000,2.785643798828125,-0.03015902452170849,0.025388672947883606,0.01596396416425705
1761336327841709800,2.795709716796875,-0.0392979234457016,0.02883240580558777,0.021358728408813477
1761336327851776800,2.80577685546875,-0.04329852759838104,0.01620129868388176,0.02012249082326889
1761336327861843000,2.815843017578125,-0.04448883607983589,-0.0002112351357936859,0.016243895515799522
1761336327871908900,2.825908935546875,-0.03802214935421944,-0.0038001108914613724,0.010678688064217567
1761336327881975800,2.835975830078125,-0.026024147868156433,0.008015451021492481,0.006856896914541721
1761336327892041700,2.846041748046875,-0.008058199658989906,0.01258064340800047,-0.005348104052245617
1761336327902109000,2.85610888671875,0.0024156011641025543,0.0006263339892029762,-0.013934504240751266
1761336327912174600,2.866174560546875,0.008732618764042854,-0.00034998171031475067,-0.011890527792274952
1761336327922240800,2.87624072265625,0.006430389359593391,0.011347953230142593,-0.0006449799984693527
1761336327932307700,2.8863076171875,0.0002598450519144535,0.02660706825554371,0.013157118111848831
1761336327942373600,2.89637353515625,-0.007898237556219101,0.04128427803516388,0.023003220558166504
1761336327952440800,2.90644091796875,-0.017494939267635345,0.0348074696958065,0.015452359803020954
1761336327962506800,2.9165068359375,-0.024038761854171753,0.022524088621139526,0.010833529755473137
1761336327972573000,2.926572998046875,-0.022078145295381546,0.010331603698432446,-0.005383524112403393
1761336327982639900,2.936639892578125,-0.019058724865317345,0.011366862803697586,-0.010870452970266342
1761336327992705800,2.946705810546875,-0.017635531723499298,0.01848682202398777,-0.01597600057721138
1761336328002772700,2.956772705078125,-0.020875170826911926,0.029413774609565735,-0.021333523094654083
1761336328012839000,2.9668388671875,-0.028271568939089775,0.044338926672935486,-0.019547075033187866
1761336328022905900,2.97690576171875,-0.0398092046380043,0.06131711229681969,-0.014930089004337788
1761336328032971800,2.9869716796875,-0.04767192155122757,0.0706150084733963,-0.014849395491182804
1761336328043038000,2.997037841796875,-0.051546964794397354,0.04622950404882431,-0.019446715712547302
1761336328053105000,3.00710498046875,-0.04910218343138695,0.017687875777482986,-0.024933891370892525
1761336328063170800,3.0171708984375,-0.042873118072748184,0.00951062235981226,-0.021419992670416832
1761336328073238000,3.027238037109375,-0.04362998902797699,-0.0036850739270448685,-0.021021051332354546
1761336328083303700,3.0373037109375,-0.03823762387037277,-0.019757678732275963,-0.023649467155337334
1761336328093369600,3.04736962890625,-0.02173374965786934,-0.018500931560993195,-0.026366157457232475
1761336328103436800,3.057436767578125,-0.00958319939672947,0.005325747653841972,-0.015938181430101395
1761336328113502700,3.067502685546875,-0.0031796270050108433,0.044454507529735565,-0.0017208969220519066
1761336328123569700,3.077569580078125,0.008213981986045837,0.06476271152496338,0.018204163759946823
1761336328133635800,3.0876357421875,0.022985205054283142,0.08028280735015869,0.03937442600727081
1761336328143702800,3.097702880859375,0.028712986037135124,0.09008653461933136,0.05733361840248108
1761336328153768700,3.107768798828125,0.02689324878156185,0.09026922285556793,0.04742053151130676
1761336328163835000,3.1178349609375,0.02248191460967064,0.062216728925704956,0.025929737836122513
1761336328173901800,3.12790185546875,0.01959265023469925,0.029003646224737167,-0.0011341031640768051
1761336328183967700,3.1379677734375,0.014821017161011696,0.012358534149825573,-0.025044577196240425
1761336328194034700,3.14803466796875,0.016942225396633148,0.003887019120156765,-0.040328193455934525
1761336328204100900,3.158100830078125,0.018967730924487114,-0.010248955339193344,-0.03682522475719452
1761336328214166800,3.168166748046875,0.035285718739032745,-0.012165365740656853,-0.014912469312548637
1761336328224234000,3.17823388671875,0.055733177810907364,0.005736849270761013,0.013843870721757412
1761336328234300000,3.1882998046875,0.06996937096118927,0.008019178174436092,0.03421305865049362
1761336328244366800,3.198366943359375,0.07438191026449203,0.002229556441307068,0.034060847014188766
1761336328254432800,3.208432861328125,0.07179678231477737,0.0022489968687295914,0.03335723653435707
1761336328264500000,3.2185,0.06394282728433609,-0.0003708433359861374,0.029752712696790695
1761336328274565600,3.228565673828125,0.05683964863419533,0.010991532355546951,0.031732238829135895
1761336328284631800,3.2386318359375,0.05024626478552818,0.0073688337579369545,0.027681924402713776
1761336328294698800,3.24869873046875,0.045078668743371964,-0.0008115973323583603,0.02096676081418991
1761336328304764700,3.2587646484375,0.04174170270562172,-0.020925477147102356,0.019157204777002335
1761336328314831600,3.26883154296875,0.04092225059866905,-0.04362146556377411,0.013177076354622841
1761336328324897800,3.278897705078125,0.04395541548728943,-0.039429739117622375,0.013158590532839298
1761336328334963700,3.288963623046875,0.04878878593444824,-0.026798900216817856,0.01843111589550972
1761336328345031000,3.299031005859375,0.04597700014710426,-0.014330245554447174,0.02445424720644951
1761336328355096800,3.309096923828125,0.04152925685048103,0.0016425959765911102,0.03289833292365074
1761336328365163800,3.319163818359375,0.039789535105228424,0.007568035274744034,0.03238297626376152
1761336328375230000,3.32922998046875,0.03314175084233284,0.0010707220062613487,0.0263059101998806
1761336328385297000,3.339296875,0.02298518270254135,-0.018921010196208954,0.013224181719124317
1761336328395362800,3.34936279296875,0.008919697254896164,-0.029829317703843117,0.0015821726992726326
1761336328405429000,3.359428955078125,0.0010479958727955818,-0.02586936578154564,-0.005629987455904484
1761336328415496000,3.369495849609375,-0.003011460416018963,-0.02502807416021824,-0.009932057932019234
1761336328425561900,3.379561767578125,-0.0056078494526445866,-0.027945566922426224,-0.009115615859627724
1761336328435628800,3.38962890625,-0.0106100644916296,-0.022762257605791092,-0.003960535395890474
1761336328445695000,3.399695068359375,-0.015849493443965912,-0.013165472075343132,-0.005118324887007475
1761336328455761000,3.409760986328125,-0.02648242935538292,-0.0072079808451235294,-0.005276516545563936
1761336328465827800,3.419827880859375,-0.038091029971838,-0.0036779558286070824,-0.01346857100725174
1761336328475894000,3.42989404296875,-0.037590619176626205,0.01294789183884859,-0.009910321794450283
1761336328485961000,3.4399609375,-0.02636631578207016,0.005897700786590576,-0.004244808107614517
1761336328496027000,3.45002685546875,-0.012058216147124767,-0.009499364532530308,-0.000789356417953968
1761336328506093000,3.460093017578125,-0.00026091746985912323,0.0019654426723718643,0.004418469965457916
1761336328516160000,3.470159912109375,0.010061495006084442,0.0034139351919293404,0.004436845891177654
1761336328526226000,3.480225830078125,0.017943041399121284,0.00012344028800725937,-0.004215993918478489
1761336328536293000,3.490293212890625,0.01851162686944008,0.0009479550644755363,-0.009502102620899677
1761336328546359000,3.500359130859375,0.01385022234171629,-0.0032882466912269592,-0.01686922460794449
1761336328556426000,3.510426025390625,0.009679179638624191,-0.010872929356992245,-0.023525794968008995
1761336328566492000,3.520491943359375,0.006109913811087608,-0.01812933385372162,-0.021851753816008568
1761336328576557800,3.530557861328125,0.005633207969367504,-0.024138489738106728,-0.016313176602125168
1761336328586624800,3.540624755859375,0.009217730723321438,-0.027746640145778656,-0.01446396391838789
1761336328596691000,3.55069091796875,0.010081393644213676,-0.02710268832743168,-0.00922872219234705
1761336328606758000,3.5607578125,0.01520204171538353,-0.021581323817372322,-0.006141276098787785
1761336328616823800,3.57082373046875,0.019378945231437683,-0.014157762750983238,-0.002075161784887314
1761336328626890000,3.580889892578125,0.02376587688922882,-0.013298721052706242,0.006843410432338715
1761336328636957000,3.59095703125,0.02822107821702957,-0.009871233254671097,0.01524408534169197
1761336328647022800,3.60102294921875,0.029184147715568542,-0.007279263809323311,0.031552501022815704
1761336328657090000,3.611090087890625,0.031486187130212784,-0.005383359268307686,0.04829632490873337
1761336328667156000,3.621156005859375,0.02951997146010399,-0.006993149872869253,0.053497083485126495
1761336328677223000,3.631222900390625,0.02302958071231842,-0.003606674261391163,0.04895106703042984
1761336328687289000,3.6412890625,0.015527989715337753,-0.004730436950922012,0.03955443203449249
1761336328697355000,3.65135498046875,0.010327102616429329,-0.01076516043394804,0.0289478600025177
1761336328707422000,3.661421875,0.00907645933330059,-0.018524814397096634,0.019742771983146667
1761336328717488000,3.671488037109375,0.008388831280171871,-0.019302191212773323,0.013059836812317371
1761336328727555000,3.68155517578125,0.005818032659590244,-0.019506098702549934,0.010635415092110634
1761336328737621000,3.69162109375,0.005436668172478676,-0.01989864930510521,0.0049996329471468925
1761336328747687000,3.70168701171875,0.006729513872414827,-0.021945295855402946,-0.0025750217027962208
1761336328757753900,3.71175390625,0.002795225940644741,-0.01726958341896534,-0.00802811048924923
1761336328767819800,3.72181982421875,0.00024788593873381615,-0.0025595175102353096,-0.003062923438847065
1761336328777887000,3.731886962890625,0.00562800420448184,0.004612906835973263,0.0017720451578497887
1761336328787953000,3.741952880859375,0.01677270419895649,0.007649708539247513,0.0009808633476495743
1761336328798019800,3.752019775390625,0.0312989167869091,-0.0016066394746303558,-0.010244093835353851
1761336328808086000,3.7620859375,0.040755826979875565,-0.013286110013723373,-0.024724293500185013
1761336328818152000,3.77215185546875,0.04584912210702896,-0.025530260056257248,-0.04077303409576416
1761336328828219000,3.782218994140625,0.04646184295415878,-0.03633754700422287,-0.04384554177522659
1761336328838285000,3.79228515625,0.04320506379008293,-0.035891201347112656,-0.036504004150629044
1761336328848352000,3.80235205078125,0.03849845752120018,-0.026740048080682755,-0.016904205083847046
1761336328858418000,3.81241796875,0.021320004016160965,-0.023066217079758644,-0.0011281701736152172
1761336328868484000,3.822484130859375,0.0015558870509266853,-0.018120460212230682,0.016021255403757095
1761336328878551000,3.832551025390625,-0.006954777054488659,-0.014228250831365585,0.030873706564307213
1761336328888617000,3.842616943359375,-0.0035899956710636616,-0.013431340456008911,0.03898679465055466
1761336328898684000,3.852683837890625,0.004528917372226715,-0.010938354767858982,0.03671830892562866
1761336328908750000,3.86275,0.008353919722139835,-0.009851786307990551,0.01918383501470089
1761336328918815700,3.872815673828125,0.007209026720374823,-0.013478212989866734,0.005015552043914795
1761336328928883200,3.88288330078125,0.0032884192187339067,-0.023287083953619003,-0.010779628530144691
1761336328938948900,3.892948974609375,-0.0034160888753831387,-0.03061343915760517,-0.019236229360103607
1761336328949015800,3.903015869140625,-0.011881843209266663,-0.04452135041356087,-0.02094334363937378
1761336328959082000,3.91308203125,-0.012446166947484016,-0.0475030243396759,-0.01895849034190178
1761336328969149000,3.92314892578125,-0.009738212451338768,-0.04578663036227226,-0.007526385597884655
1761336328979214800,3.93321484375,-0.0038371803238987923,-0.028340529650449753,0.0015584556385874748
1761336328989281000,3.943281005859375,0.004712557420134544,-0.004336651414632797,0.014287477359175682
1761336328999348000,3.953347900390625,0.0064902170561254025,0.008513366803526878,0.01517537608742714
1761336329009414000,3.963413818359375,0.006689175963401794,0.021769436076283455,0.017112361267209053
1761336329019480800,3.973480712890625,0.004457446746528149,0.025545263662934303,0.017861243337392807
1761336329029547000,3.983547119140625,0.010178280994296074,0.016829360276460648,0.008870702236890793
1761336329039613000,3.993613037109375,0.015039082616567612,0.000011764466762542725,-0.006878700572997332
1761336329049679000,4.00367919921875,0.018420089036226273,-0.01871461234986782,-0.023264631628990173
1761336329059746000,4.01374609375,0.023256070911884308,-0.03037738800048828,-0.036140166223049164
1761336329069812000,4.02381201171875,0.025061428546905518,-0.024928294122219086,-0.034569963812828064
1761336329079879200,4.033879150390625,0.02911800518631935,-0.014007559977471828,-0.02890074998140335
1761336329089945000,4.043945068359375,0.03451330214738846,-0.012871455401182175,-0.013384107500314713
1761336329100012000,4.054011962890625,0.036534860730171204,0.004741983488202095,0.003939077258110046
1761336329110078000,4.064077880859375,0.035213932394981384,0.014931237325072289,0.02021472156047821
1761336329120144000,4.074143798828125,0.033695418387651443,0.011549552902579308,0.034907519817352295
1761336329130210800,4.0842109375,0.03152653947472572,0.008819013833999634,0.038649529218673706
1761336329140277000,4.094277099609375,0.027012605220079422,-0.0021740691736340523,0.030960146337747574
1761336329150344000,4.104343994140625,0.027406219393014908,-0.025139572098851204,0.016956977546215057
1761336329160409900,4.114409912109375,0.03109135851264,-0.03327695280313492,0.014940664172172546
1761336329170476800,4.124476806640625,0.03177419304847717,-0.034699879586696625,0.01923714205622673
1761336329180543000,4.13454296875,0.027631498873233795,-0.036360181868076324,0.033914655447006226
1761336329190609000,4.14460888671875,0.02128039300441742,-0.033293552696704865,0.04855165258049965
1761336329200675800,4.15467578125,0.015361277386546135,-0.023259827867150307,0.05843844264745712
1761336329210742000,4.164741943359375,0.00859365239739418,-0.01792045682668686,0.06641833484172821
1761336329220809000,4.17480908203125,0.012717245146632195,-0.022177347913384438,0.061759062111377716
1761336329230875100,4.184875244140625,0.019997261464595795,-0.03211919590830803,0.0550558865070343
1761336329240941000,4.194941162109375,0.021934030577540398,-0.028634972870349884,0.047540538012981415
1761336329251008000,4.205008056640625,0.01851586438715458,-0.02354567125439644,0.035442862659692764
1761336329261074200,4.21507421875,0.01159188523888588,-0.013140078634023666,0.037120118737220764
1761336329271141000,4.22514111328125,0.007730834186077118,0.004605894908308983,0.04185095801949501
1761336329281206800,4.235206787109375,0.00792694091796875,0.02316022850573063,0.04059050232172012
1761336329291273000,4.24527294921875,0.0027984916232526302,0.027823956683278084,0.03526818007230759
1761336329301340000,4.25533984375,0.0018846429884433746,0.036839015781879425,0.021718451753258705
1761336329311405800,4.26540576171875,-0.0005039460957050323,0.03874477371573448,-0.010945751331746578
1761336329321472800,4.27547265625,-0.004475131630897522,0.026285797357559204,-0.03869039937853813
1761336329331539000,4.2855390625,-0.012399100698530674,0.017860621213912964,-0.05939807370305061
1761336329341606000,4.29560595703125,-0.019123146310448647,0.03182809799909592,-0.06658430397510529
1761336329351671800,4.305671875,-0.018799304962158203,0.051814060658216476,-0.06553395092487335
1761336329361738000,4.315738037109375,-0.010485740378499031,0.051346588879823685,-0.0650409460067749
1761336329371805000,4.325804931640625,0.002329124603420496,0.045028235763311386,-0.06086750328540802
1761336329381871000,4.33587109375,0.013328995555639267,0.025747839361429214,-0.05303662642836571
1761336329391938000,4.34593798828125,0.01568695902824402,-0.01651439443230629,-0.03988273814320564
1761336329402004000,4.35600390625,0.014781847596168518,-0.04633425921201706,-0.007144207134842873
1761336329412070100,4.366070068359375,0.023247770965099335,-0.047392066568136215,0.03970852121710777
1761336329422137000,4.37613720703125,0.02976854518055916,-0.039360687136650085,0.0926225408911705
1761336329432203000,4.386203125,0.043054260313510895,-0.02096596546471119,0.13598333299160004
1761336329442270000,4.39627001953125,0.046281810849905014,-0.007768221199512482,0.16016271710395813
1761336329452336400,4.40633642578125,0.05661887302994728,-0.0021169940009713173,0.1636863350868225
1761336329462402300,4.41640234375,0.06753410398960114,0.005675681866705418,0.15172794461250305
1761336329472469200,4.42646923828125,0.07957883179187775,0.007688324898481369,0.126920685172081
1761336329482535400,4.436535400390625,0.0851759985089302,-0.009983345866203308,0.09881368279457092
1761336329492601300,4.446601318359375,0.09057196974754333,-0.026122543960809708,0.06721238791942596
1761336329502668300,4.456668212890625,0.08631996810436249,-0.04393509775400162,0.043131016194820404
1761336329512734500,4.466734375,0.07690223306417465,-0.05646234005689621,0.028920385986566544
1761336329522801400,4.476801513671875,0.06440854072570801,-0.05825890973210335,0.01754149980843067
1761336329532867300,4.486867431640625,0.05515287443995476,-0.060290370136499405,0.022301271557807922
1761336329542933500,4.49693359375,0.057655978947877884,-0.048619866371154785,0.03938518464565277
1761336329553000400,4.50700048828125,0.06295731663703918,-0.023757752031087875,0.06002429872751236
1761336329563066400,4.51706640625,0.06668680906295776,-0.0011842651292681694,0.07594041526317596
1761336329573133600,4.527133544921875,0.06893466413021088,0.016995981335639954,0.08239788562059402
1761336329583199500,4.537199462890625,0.065274678170681,0.03183937445282936,0.07204218208789825
1761336329593266400,4.547266357421875,0.057477790862321854,0.027393054217100143,0.04771720618009567
1761336329603332600,4.55733251953125,0.05588148906826973,0.020061369985342026,0.017120419070124626
1761336329613398300,4.567398193359375,0.0454358235001564,0.02158212661743164,-0.0029283128678798676
1761336329623465500,4.577465576171875,0.03311843425035477,0.013200893066823483,-0.021617045626044273
1761336329633531400,4.587531494140625,0.025540264323353767,-0.002564133144915104,-0.022853121161460876
1761336329643598300,4.597598388671875,0.017104169353842735,0.00013045314699411392,-0.023497074842453003
1761336329653664300,4.607664306640625,0.01719174161553383,0.007195012643933296,-0.017334526404738426
1761336329663730400,4.61773046875,0.016677752137184143,0.02022213116288185,-0.009819619357585907
1761336329673797400,4.62779736328125,0.02188878133893013,0.029483728110790253,0.00007861945778131485
1761336329683863300,4.63786328125,0.026753578335046768,0.03366861864924431,0.008178889751434326
1761336329693930500,4.647930419921875,0.03218446671962738,0.042393218725919724,0.01888943463563919
1761336329703996400,4.657996337890625,0.029065638780593872,0.04475171118974686,0.030068587511777878
1761336329714063400,4.6680634765625,0.0283352080732584,0.028962891548871994,0.02982233464717865
1761336329724129500,4.678129638671875,0.029090479016304016,0.022043466567993164,0.024962332099676132
1761336329734195500,4.688195556640625,0.037209197878837585,0.017308281734585762,0.018704716116189957
1761336329744262400,4.698262451171875,0.03897513821721077,0.018042515963315964,0.014292657375335693
1761336329754328600,4.70832861328125,0.03435319662094116,0.010572881437838078,0.014475811272859573
1761336329764395500,4.7183955078125,0.029796527698636055,0.009943577460944653,0.012101870030164719
1761336329774461400,4.72846142578125,0.023347781971096992,0.012398391962051392,0.01695610210299492
1761336329784527400,4.73852734375,0.018414011225104332,0.016082875430583954,0.01449321024119854
1761336329794594600,4.748594482421875,0.020623009651899338,0.01660306751728058,0.009277524426579475
1761336329804660200,4.75866015625,0.02081688679754734,0.019836410880088806,0.004305935464799404
1761336329814727400,4.7687275390625,0.021375080570578575,0.014809263870120049,0.00404959823936224
1761336329824793300,4.77879345703125,0.023912273347377777,0.019558213651180267,0.00558491051197052
1761336329834860300,4.7888603515625,0.016463609412312508,0.027057580649852753,0.007992726750671864
1761336329844926500,4.798926513671875,0.01000810693949461,0.0273907408118248,0.00839752797037363
1761336329854992400,4.808992431640625,0.006300308741629124,0.03159782662987709,0.005910031497478485
1761336329865059300,4.819059326171875,0.014949723146855831,0.045469965785741806,0.008632315322756767
1761336329875125500,4.82912548828125,0.015339585952460766,0.058890875428915024,0.006731943227350712
1761336329885192400,4.8391923828125,0.0143081434071064,0.0500505156815052,-0.002194440457969904
1761336329895258400,4.84925830078125,0.01452167984098196,0.04582417011260986,-0.011357991024851799
1761336329905324500,4.859324462890625,0.01937102898955345,0.04478207603096962,-0.0238301083445549
1761336329915391500,4.8693916015625,0.016705065965652466,0.03497229516506195,-0.04252864792943001
1761336329925457400,4.87945751953125,0.015519692562520504,0.011136739514768124,-0.06647633016109467
1761336329935524400,4.8895244140625,0.01436632126569748,-0.009371709078550339,-0.08450273424386978
1761336329945590500,4.899590576171875,0.013770571909844875,-0.019021406769752502,-0.08754672855138779
1761336329955657500,4.909657470703125,0.01725098304450512,-0.019337255507707596,-0.08367883414030075
1761336329965723400,4.919723388671875,0.02489105984568596,-0.007050494663417339,-0.056815531104803085
1761336329975789300,4.929789306640625,0.03212171420454979,0.015465810894966125,-0.021576734259724617
1761336329985856500,4.9398564453125,0.03852235898375511,0.030574990436434746,0.011581484228372574
1761336329995922400,4.94992236328125,0.03723413124680519,0.02713020145893097,0.03394782543182373
1761336330005989400,4.9599892578125,0.031609803438186646,0.015199505724012852,0.05081415921449661
1761336330016055300,4.97005517578125,0.02531556971371174,0.00539507158100605,0.058597687631845474
1761336330026121500,4.98012158203125,0.017531149089336395,-0.004353695549070835,0.04440756514668465
1761336330036188400,4.9901884765625,0.010634771548211575,-0.022737666964530945,0.019613567739725113
1761336330046254300,5.00025439453125,0.006442423444241285,-0.043748144060373306,-0.005643320735543966
1761336330056321300,5.0103212890625,0.00430407514795661,-0.05549348518252373,-0.01850740984082222
1761336330066387500,5.020387451171875,0.0022822031751275063,-0.04978819563984871,-0.016188062727451324
1761336330076453400,5.030453369140625,0.00034039607271552086,-0.03425717353820801,-0.008520246483385563
1761336330086520300,5.040520263671875,-0.0046415794640779495,-0.015615047886967659,0.011793280020356178
1761336330096586500,5.05058642578125,-0.0024155150167644024,-0.0029620174318552017,0.037370264530181885
1761336330106653400,5.0606533203125,0.002009327057749033,-0.005484829656779766,0.05225520581007004
1761336330116719400,5.07071923828125,0.012429305352270603,-0.01716740056872368,0.05416883900761604
1761336330126786600,5.08078662109375,0.018290124833583832,-0.03536504507064819,0.040694307535886765
1761336330136852500,5.0908525390625,0.0197918564081192,-0.057196132838726044,0.026945533230900764
1761336330146918700,5.100918701171875,0.01888531632721424,-0.06352220475673676,0.01211358979344368
1761336330156985600,5.110985595703125,0.02050924114882946,-0.05748038738965988,-0.0011164085008203983
1761336330167051300,5.12105126953125,0.027402302250266075,-0.03726406395435333,-0.007406262215226889
1761336330177118200,5.1311181640625,0.030473168939352036,-0.010616029612720013,-0.008197427727282047
1761336330187184400,5.141184326171875,0.03667087480425835,0.002534126862883568,-0.00012272363528609276
1761336330197250300,5.151250244140625,0.038040731102228165,0.021395616233348846,0.011324985884130001
1761336330207317200,5.161317138671875,0.03775870427489281,0.03135876730084419,0.025471962988376617
1761336330217383400,5.171383544921875,0.02928123250603676,0.02834300510585308,0.03312007337808609
1761336330227450400,5.181450439453125,0.02254476398229599,0.015960903838276863,0.030567964538931847
1761336330237516300,5.191516357421875,0.02032117173075676,0.0015147635713219643,0.019196368753910065
1761336330247582500,5.20158251953125,0.018801305443048477,-0.009151196107268333,-0.0011272784322500229
1761336330257649400,5.2116494140625,0.018323756754398346,-0.0085594542324543,-0.017236478626728058
1761336330267715300,5.22171533203125,0.017850246280431747,-0.006446768529713154,-0.0314662791788578
1761336330277782500,5.231782470703125,0.016570594161748886,-0.015031013637781143,-0.032443199306726456
1761336330287848400,5.241848388671875,0.015975378453731537,-0.016493355855345726,-0.02687745913863182
1761336330297915400,5.251915283203125,0.013455396518111229,-0.013312562368810177,-0.008610064163804054
1761336330307981600,5.261981689453125,0.012517165392637253,-0.002573098987340927,0.015293404459953308
1761336330318047500,5.272047607421875,0.013998756185173988,-0.0033334335312247276,0.036248303949832916
1761336330328114400,5.282114501953125,0.01876288466155529,-0.008746041916310787,0.05112951993942261
1761336330338180400,5.292180419921875,0.022501187399029732,-0.008473245427012444,0.05622701719403267
1761336330348247600,5.30224755859375,0.020897166803479195,-0.020092351362109184,0.05480382218956947
1761336330358313200,5.312313232421875,0.021726910024881363,-0.021327611058950424,0.04567208141088486
1761336330368379400,5.32237939453125,0.0190589539706707,-0.009619290009140968,0.046189531683921814
1761336330378446300,5.3324462890625,0.01756375841796398,0.00008899625390768051,0.05654234439134598
1761336330388512300,5.34251220703125,0.015385027974843979,0.002582247368991375,0.060574643313884735
1761336330398579500,5.352579345703125,0.013137686997652054,0.002226610668003559,0.05874168872833252
1761336330408645400,5.362645263671875,0.006601756904274225,-0.0011952845379710197,0.04954605922102928
1761336330418712300,5.37271240234375,0.004072674084454775,-0.010463793762028217,0.03375846892595291
1761336330428778500,5.382778564453125,0.001429487019777298,-0.018531041219830513,0.02117423340678215
1761336330438844400,5.392844482421875,-0.0030897799879312515,-0.023622727021574974,0.004388953559100628
1761336330448912000,5.402911865234375,-0.0032458407804369926,-0.028096836060285568,-0.006039452739059925
1761336330458977800,5.412977783203125,0.003908427432179451,-0.016211776062846184,-0.004415532574057579
1761336330469044700,5.423044677734375,0.020171819254755974,-0.006993244402110577,-0.0023694257251918316
1761336330479110700,5.433110595703125,0.033484067767858505,-0.007465161383152008,-0.004027731716632843
1761336330489176800,5.4431767578125,0.03868229314684868,-0.01571110635995865,-0.023351360112428665
1761336330499243800,5.453243896484375,0.037564292550086975,-0.02870350331068039,-0.04486211761832237
1761336330509309700,5.463309814453125,0.03324331343173981,-0.04133114963769913,-0.06582945585250854
1761336330519376600,5.473376708984375,0.029204677790403366,-0.042748838663101196,-0.09051494300365448
1761336330529442800,5.48344287109375,0.03430276736617088,-0.034373730421066284,-0.09649267792701721
1761336330539508700,5.4935087890625,0.041123148053884506,-0.027332425117492676,-0.0808977261185646
1761336330549575700,5.50357568359375,0.042077891528606415,-0.013975340873003006,-0.042937032878398895
1761336330559641900,5.513641845703125,0.0362323522567749,0.007481217384338379,0.0019792653620243073
1761336330569708800,5.523708740234375,0.03133772686123848,0.01711999624967575,0.0334106907248497
1761336330579775000,5.53377490234375,0.02723849192261696,0.01924831047654152,0.04831504821777344
1761336330589842000,5.543842041015625,0.021878080442547798,0.013126500882208347,0.04854247719049454
1761336330599907800,5.553907958984375,0.01612778566777706,-0.0200156569480896,0.039495524019002914
1761336330609974000,5.56397412109375,0.019024506211280823,-0.028934316709637642,0.02978270873427391
1761336330620041000,5.574041015625,0.019706709310412407,-0.041554853320121765,0.02642071060836315
1761336330630106600,5.584106689453125,0.01139258686453104,-0.06310328841209412,0.023710409179329872
1761336330640173800,5.594173828125,0.007369085215032101,-0.07336383312940598,0.022721383720636368
1761336330650239700,5.60423974609375,0.005455337464809418,-0.07322721928358078,0.03345711529254913
1761336330660305700,5.6143056640625,0.006481572054326534,-0.05859500169754028,0.05066149681806564
1761336330670372600,5.62437255859375,0.011522136628627777,-0.04733062908053398,0.051280681043863297
1761336330680438800,5.634438720703125,0.017483819276094437,-0.0353156141936779,0.05325334146618843
1761336330690505700,5.644505615234375,0.02641899324953556,-0.03276164084672928,0.05092387646436691
1761336330700571600,5.654571533203125,0.03759676218032837,-0.02994498983025551,0.04950319975614548
1761336330710637800,5.664637939453125,0.04156993329524994,-0.03645375370979309,0.05018949508666992
1761336330720704800,5.674704833984375,0.047565653920173645,-0.03993113338947296,0.04812351614236832
1761336330730771000,5.68477099609375,0.04567161202430725,-0.0444776825606823,0.04867479205131531
1761336330740838000,5.694837890625,0.04060366377234459,-0.052716609090566635,0.03568769246339798
1761336330750903800,5.70490380859375,0.031009357422590256,-0.04578227177262306,0.02293621189892292
1761336330760970800,5.714970703125,0.025491874665021896,-0.037952594459056854,0.0027954811230301857
1761336330771037000,5.725036865234375,0.02719097211956978,-0.03214903175830841,-0.00626539159566164
1761336330781102800,5.735102783203125,0.029387034475803375,-0.029400106519460678,-0.005649005062878132
1761336330791169800,5.745169677734375,0.03621671348810196,-0.020733382552862167,0.006449735723435879
1761336330801235700,5.755235595703125,0.04387080669403076,-0.009350236505270004,0.017399899661540985
1761336330811303000,5.765302978515625,0.04448733106255531,-0.005410090088844299,0.02422771230340004
1761336330821368600,5.77536865234375,0.04811324551701546,-0.01062481664121151,0.03245674818754196
1761336330831434800,5.785434814453125,0.045938506722450256,-0.00597706763073802,0.03570127487182617
1761336330841501700,5.795501708984375,0.04460889473557472,-0.003793921321630478,0.03357112035155296
1761336330851567900,5.80556787109375,0.039738770574331284,-0.010734651237726212,0.024085473269224167
1761336330861634800,5.815634765625,0.03981347754597664,-0.021997220814228058,0.01846715435385704
1761336330871700700,5.82570068359375,0.0405261404812336,-0.024384476244449615,0.023114636540412903
1761336330881767000,5.835766845703125,0.036791637539863586,-0.016528423875570297,0.020693238824605942
1761336330891833900,5.845833740234375,0.03578682616353035,-0.02279777079820633,0.0227193720638752
1761336330901899800,5.855899658203125,0.034792255610227585,-0.02916511707007885,0.014025043696165085
1761336330911966700,5.865966796875,0.03066222555935383,-0.02530965954065323,0.0067945607006549835
1761336330922033000,5.876032958984375,0.02681916207075119,-0.0088402284309268,0.008678584359586239
1761336330932099800,5.886099853515625,0.023012176156044006,0.012767063453793526,0.0146395368501544
1761336330942165800,5.896165771484375,0.021928999572992325,0.029560057446360588,0.029219867661595345
1761336330952232000,5.90623193359375,0.02044854685664177,0.04087183624505997,0.034037262201309204
1761336330962299000,5.916298828125,0.017542066052556038,0.044279273599386215,0.032836589962244034
1761336330972364800,5.92636474609375,0.017034467309713364,0.03707968071103096,0.027728114277124405
1761336330982432000,5.936431884765625,0.01665971428155899,0.030487731099128723,0.017859429121017456
1761336330992497700,5.94649755859375,0.013174435123801231,0.012094078585505486,0.0017201397567987442
1761336331002563800,5.956563720703125,0.013480188325047493,-0.0014797840267419815,-0.006124596577137709
1761336331012630800,5.966630859375,0.022926688194274902,0.002202036790549755,-0.010649307630956173
1761336331022696700,5.97669677734375,0.03411370515823364,0.027360565960407257,-0.012260949239134789
1761336331032763600,5.986763671875,0.04036388173699379,0.048952676355838776,-0.0064632473513484
1761336331042829800,5.996829833984375,0.042912401258945465,0.04729378968477249,-0.00441902969032526
1761336331052895700,6.006895751953125,0.04298936575651169,0.03700999170541763,-0.000680217519402504
1761336331062962700,6.016962646484375,0.034017130732536316,0.022718850523233414,-0.0050356341525912285
1761336331073028900,6.02702880859375,0.028726760298013687,0.008727934211492538,-0.0031527793034911156
1761336331083095800,6.037095703125,0.027867384254932404,0.0027831383049488068,-0.0029796697199344635
1761336331093161700,6.04716162109375,0.030384335666894913,-0.0008550062775611877,0.0006984220817685127
1761336331103229000,6.05722900390625,0.02905145101249218,0.002189076505601406,0.00459110364317894
1761336331113294800,6.067294921875,0.03416525200009346,0.019725460559129715,0.009216215461492538
1761336331123360800,6.07736083984375,0.03794318810105324,0.025227811187505722,0.018896671012043953
1761336331133428000,6.087427978515625,0.03821376711130142,0.025139126926660538,0.02454097382724285
1761336331143494000,6.097493896484375,0.0329691544175148,0.017649967223405838,0.027839021757245064
1761336331153560800,6.107560791015625,0.02904684841632843,0.011599530465900898,0.022423217073082924
1761336331163627000,6.117626953125,0.01731771044433117,-0.011460963636636734,0.015504912473261356
1761336331173692700,6.127692626953125,0.0007605710998177528,-0.03509065881371498,-0.003347605001181364
1761336331183759600,6.137759521484375,-0.014843275770545006,-0.04404323175549507,-0.013820914551615715
1761336331193825800,6.14782568359375,-0.01541532389819622,-0.037983473390340805,-0.013842753134667873
1761336331203892700,6.157892822265625,-0.00690621230751276,-0.02295098640024662,-0.0006486470811069012
1761336331213958700,6.167958740234375,0.008512690663337708,0.0062053008005023,0.00825536623597145
1761336331224025600,6.178025634765625,0.020658433437347412,0.026982275769114494,0.010659251362085342
1761336331234091800,6.188091796875,0.024655040353536606,0.030195647850632668,0.008704490959644318
1761336331244157700,6.19815771484375,0.026966970413923264,0.028324449434876442,0.0007833763957023621
1761336331254225000,6.208224853515625,0.021807894110679626,0.018851587548851967,-0.010343843139708042
1761336331264290800,6.218290771484375,0.015408826060593128,-0.0008273962885141373,-0.0262236800044775
1761336331274357800,6.228357666015625,0.016132673248648643,-0.016821010038256645,-0.04698195308446884
1761336331284424000,6.238423828125,0.016019614413380623,-0.02416788786649704,-0.056176744401454926
1761336331294489900,6.24848974609375,0.017521105706691742,-0.024443525820970535,-0.06432948261499405
1761336331304556800,6.258556884765625,0.01804361306130886,-0.011467350646853447,-0.06569362431764603
1761336331314623000,6.268623046875,0.015470201149582863,0.008664282038807869,-0.057675380259752274
1761336331324690000,6.27868994140625,0.005648349411785603,0.015635965391993523,-0.04616281017661095
1761336331334755800,6.288755859375,0.00021763145923614502,0.010550392791628838,-0.03962847962975502
1761336331344821800,6.29882177734375,-0.003319099545478821,0.004332199692726135,-0.02929750457406044
1761336331354888700,6.308888671875,-0.010690729133784771,-0.01074235700070858,-0.01829066127538681
1761336331364954600,6.31895458984375,-0.01255593728274107,-0.027238324284553528,-0.011465230025351048
1761336331375021800,6.329021728515625,-0.006171274930238724,-0.024204451590776443,-0.018576934933662415
1761336331385087700,6.339087646484375,-0.0010859929025173187,-0.018355973064899445,-0.01707032509148121
1761336331395154700,6.34915478515625,-0.0015256810002028942,-0.018197249621152878,-0.00983052235096693
1761336331405220900,6.359220947265625,-0.004721375647932291,-0.01370974164456129,0.00110657699406147
1761336331415286800,6.369286865234375,-0.012854669243097305,-0.004986290819942951,0.014696422033011913
1761336331425353700,6.379353759765625,-0.021751010790467262,-0.005216642282903194,0.01794605702161789
1761336331435420000,6.389419921875,-0.025025367736816406,-0.009306458756327629,0.01727946847677231
1761336331445487400,6.3994873046875,-0.024640735238790512,-0.015348993241786957,0.009073222056031227
1761336331455553000,6.409552978515625,-0.029928438365459442,-0.028802484273910522,0.0015692338347434998
1761336331465619200,6.419619140625,-0.02594197914004326,-0.026798810809850693,-0.0025652633048594
1761336331475686100,6.42968603515625,-0.021143760532140732,-0.01679597608745098,-0.00006402237340807915
1761336331485752000,6.439751953125,-0.017600955441594124,-0.016340678557753563,0.006495749577879906
1761336331495819000,6.449819091796875,-0.013048281893134117,-0.002079184167087078,0.014167518354952335
1761336331505885200,6.45988525390625,-0.015869634225964546,0.017408229410648346,0.016428276896476746
1761336331515951000,6.469951171875,-0.01143600419163704,0.016192495822906494,0.016372349113225937
1761336331526018000,6.48001806640625,-0.00891491211950779,0.012365101836621761,0.01375742070376873
1761336331536084200,6.490084228515625,-0.008268030360341072,0.004340997897088528,0.008683566004037857
1761336331546151200,6.500151123046875,-0.016416214406490326,0.0008462173864245415,0.002666627988219261
1761336331556217000,6.510217041015625,-0.02870430424809456,0.0006872266530990601,-0.004336686804890633
1761336331566284300,6.5202841796875,-0.033858951181173325,0.0033189598470926285,-0.020769678056240082
1761336331576350200,6.53035009765625,-0.031569432467222214,0.004906469956040382,-0.0361611507833004
1761336331586416000,6.540416015625,-0.0225168839097023,0.004567000083625317,-0.052061304450035095
1761336331596483300,6.5504833984375,-0.019215896725654602,0.0070402780547738075,-0.06007768586277962
1761336331606549200,6.56054931640625,-0.025117289274930954,-0.010054290294647217,-0.06348329037427902
1761336331616616200,6.5706162109375,-0.030359189957380295,-0.03318917006254196,-0.05894845724105835
1761336331626682400,6.580682373046875,-0.03189762681722641,-0.04474683851003647,-0.03989139944314957
1761336331636748000,6.590748046875,-0.026212843134999275,-0.035104598850011826,-0.010008066892623901
1761336331646815000,6.60081494140625,-0.020269224420189857,-0.032670821994543076,0.01637459732592106
1761336331656881200,6.610881103515625,-0.012609440833330154,-0.02161870151758194,0.037117160856723785
1761336331666948000,6.620947998046875,-0.00933227688074112,-0.013519586995244026,0.056677382439374924
1761336331677014000,6.631013916015625,-0.011244958266615868,-0.004972970113158226,0.0634109154343605
1761336331687080200,6.641080078125,-0.01530542690306902,-0.007406855933368206,0.06058846041560173
1761336331697147100,6.651147216796875,-0.019223734736442566,-0.008251078426837921,0.047011665999889374
1761336331707213000,6.661213134765625,-0.01854783296585083,-0.01955820992588997,0.028103338554501534
1761336331717280300,6.6712802734375,-0.024852599948644638,-0.04340628534555435,0.004083489067852497
1761336331727346200,6.68134619140625,-0.024930143728852272,-0.06440913677215576,-0.01807062327861786
1761336331737413000,6.6914130859375,-0.03347250074148178,-0.07213283330202103,-0.03496891260147095
1761336331747479300,6.701479248046875,-0.03502582386136055,-0.06506552547216415,-0.0374501496553421
1761336331757545200,6.711545166015625,-0.03461436554789543,-0.04933715984225273,-0.03322531282901764
1761336331767612200,6.721612060546875,-0.018574925139546394,-0.03636603802442551,-0.020657792687416077
1761336331777678300,6.73167822265625,-0.005771511700004339,-0.021572977304458618,-0.000966380350291729
1761336331787745300,6.741745361328125,-0.0014861421659588814,-0.0032628728076815605,0.015167742036283016
1761336331797811200,6.751811279296875,-0.009679090231657028,0.0144607312977314,0.02033693715929985
1761336331807877000,6.761877197265625,-0.02437729202210903,0.01911024935543537,0.01642623543739319
1761336331817944300,6.7719443359375,-0.036488018929958344,0.017764288932085037,-0.000037960242480039597
1761336331828010000,6.782010009765625,-0.04729914665222168,0.013697819784283638,-0.011799751780927181
1761336331838077200,6.7920771484375,-0.051966868340969086,0.02242899499833584,-0.030211515724658966
1761336331848143000,6.80214306640625,-0.05192902684211731,0.024922600015997887,-0.035819925367832184
1761336331858209000,6.812208984375,-0.049320727586746216,0.023181958124041557,-0.02695159986615181
1761336331868276200,6.822276123046875,-0.043254148215055466,0.01205528900027275,-0.017301805317401886
1761336331878342100,6.832342041015625,-0.040233589708805084,-0.01954444870352745,-0.015900447964668274
1761336331888409000,6.8424091796875,-0.026560047641396523,-0.029277417808771133,-0.016501106321811676
1761336331898475300,6.852475341796875,-0.014782218262553215,-0.018053259700536728,-0.0029922211542725563
1761336331908542200,6.862542236328125,-0.0028257151134312153,-0.005396675318479538,0.005388274788856506
1761336331918608100,6.872608154296875,-0.0002546999603509903,0.007515128701925278,0.025957465171813965
1761336331928674300,6.88267431640625,-0.002962990663945675,0.0126870796084404,0.03920885920524597
1761336331938741200,6.8927412109375,-0.009569761343300343,0.021205732598900795,0.050486281514167786
1761336331948807200,6.90280712890625,-0.025208253413438797,0.023158803582191467,0.056174226105213165
1761336331958874000,6.9128740234375,-0.03586968407034874,0.025178011506795883,0.05139278247952461
1761336331968940300,6.922940185546875,-0.04208596423268318,0.019100327044725418,0.036963529884815216
1761336331979006000,6.933005859375,-0.04508601501584053,0.0023218784481287003,0.014397499151527882
1761336331989073200,6.9430732421875,-0.033370938152074814,-0.026191171258687973,-0.008942950516939163
1761336331999139000,6.95313916015625,-0.019532620906829834,-0.05029171332716942,-0.020819317549467087
1761336332009206000,6.9632060546875,-0.0007401718758046627,-0.06677534431219101,-0.025287741795182228
1761336332019272200,6.973272216796875,0.009712735190987587,-0.05631711333990097,-0.01716909557580948
1761336332029338000,6.983338134765625,0.016863226890563965,-0.030447162687778473,0.00898558646440506
1761336332039405000,6.993405029296875,0.0199745986610651,0.007405143231153488,0.0525628924369812
1761336332049471200,7.00347119140625,0.016133282333612442,0.044630445539951324,0.0922597125172615
1761336332059538200,7.0135380859375,0.006122192833572626,0.07126711308956146,0.11785589158535004
1761336332069604000,7.02360400390625,-0.00496106268838048,0.07820439338684082,0.1107640191912651
1761336332079671000,7.033671142578125,-0.009091358631849289,0.06639167666435242,0.08718626201152802
1761336332089737200,7.0437373046875,-0.013351589441299438,0.03468770533800125,0.048878300935029984
1761336332099803100,7.05380322265625,-0.016056029126048088,0.008480336517095566,0.00038080569356679916
1761336332109870000,7.0638701171875,-0.020362164825201035,-0.013628080487251282,-0.041159726679325104
1761336332119936300,7.073936279296875,-0.016512300819158554,-0.028070934116840363,-0.06829281151294708
1761336332130003200,7.084003173828125,-0.004570423625409603,-0.03346817195415497,-0.08037512004375458
1761336332140069000,7.094069091796875,0.00827054027467966,-0.029899535700678825,-0.08344253897666931
1761336332150135300,7.10413525390625,0.02158123441040516,-0.012173527851700783,-0.08080889284610748
1761336332160202200,7.1142021484375,0.02831370383501053,0.002662142738699913,-0.06399529427289963
1761336332170268200,7.12426806640625,0.03542108088731766,0.006590740755200386,-0.04070642590522766
1761336332180335400,7.13433544921875,0.04091091826558113,0.012345299124717712,-0.008743967860937119
1761336332190401000,7.144401123046875,0.04337707906961441,0.028874389827251434,0.01817900873720646
1761336332200467200,7.15446728515625,0.04939715191721916,0.03310402110219002,0.0406411737203598
1761336332210534100,7.1645341796875,0.054000236093997955,0.028611265122890472,0.05328755080699921
1761336332220600000,7.17460009765625,0.05806661769747734,0.029282916337251663,0.05869536101818085
1761336332230667000,7.1846669921875,0.049656279385089874,0.027747340500354767,0.055760204792022705
1761336332240733200,7.194733154296875,0.045153673738241196,0.0045711807906627655,0.03376729041337967
1761336332250800000,7.204800048828125,0.04536236822605133,-0.024702459573745728,0.01021686289459467
1761336332260866000,7.214865966796875,0.043502144515514374,-0.04090726375579834,-0.003900553798303008
1761336332270932200,7.22493212890625,0.042679816484451294,-0.045737624168395996,-0.010061226785182953
1761336332280999200,7.234999267578125,0.03701314330101013,-0.04431816190481186,-0.006743992678821087
1761336332291065300,7.2450654296875,0.03632142022252083,-0.024265971034765244,0.0039027631282806396
1761336332301132300,7.25513232421875,0.02778598852455616,0.00530044361948967,0.019503027200698853
1761336332311198200,7.2651982421875,0.026244578883051872,0.02600002847611904,0.027971897274255753
1761336332321264400,7.275264404296875,0.027411842718720436,0.03909958153963089,0.029249683022499084
1761336332331331300,7.285331298828125,0.03298087418079376,0.03552589192986488,0.01809312030673027
1761336332341397200,7.295397216796875,0.03135314956307411,0.013739902526140213,-0.009197622537612915
1761336332351464200,7.305464111328125,0.03326188772916794,-0.0186397023499012,-0.03604373335838318
1761336332361530000,7.315530029296875,0.038965046405792236,-0.033288419246673584,-0.05965904891490936
1761336332371596000,7.325595947265625,0.03917187452316284,-0.03142303600907326,-0.06496470421552658
1761336332381663000,7.3356630859375,0.04618664085865021,-0.02482718415558338,-0.05755924805998802
1761336332391729200,7.345729248046875,0.05366109684109688,-0.013490472920238972,-0.042801596224308014
1761336332401796000,7.355796142578125,0.05620361492037773,0.010435367003083229,-0.013181651942431927
1761336332411862000,7.365862060546875,0.05731089040637016,0.014335185289382935,0.009208140894770622
1761336332421928200,7.37592822265625,0.050759781152009964,0.019505446776747704,0.022298377007246017
1761336332431995100,7.3859951171875,0.04265148937702179,0.028338652104139328,0.0259297676384449
1761336332442061300,7.396061279296875,0.03411206230521202,0.02847500517964363,0.01775652915239334
1761336332452128500,7.40612841796875,0.0276874341070652,0.009385797195136547,-0.0008089574985206127
1761336332462194200,7.416194091796875,0.02646850422024727,-0.012463841587305069,-0.02548873797059059
1761336332472261000,7.42626123046875,0.020185012370347977,-0.026828106492757797,-0.039451248943805695
1761336332482327300,7.436327392578125,0.018506156280636787,-0.03513770177960396,-0.05958873778581619
1761336332492393200,7.446393310546875,0.02321169711649418,-0.03808174654841423,-0.06493177264928818
1761336332502460200,7.456460205078125,0.028293540701270103,-0.03302786499261856,-0.06627719849348068
1761336332512526300,7.4665263671875,0.037391964346170425,-0.03140288591384888,-0.06017490476369858
1761336332522593300,7.47659326171875,0.04415452852845192,-0.02364296466112137,-0.043253712356090546
1761336332532659200,7.4866591796875,0.04890115559101105,-0.014353063888847828,-0.03144543617963791
1761336332542725400,7.496725341796875,0.047613516449928284,-0.002855665050446987,-0.010745747946202755
1761336332552792300,7.506792236328125,0.03636870160698891,0.014001350849866867,0.002264687791466713
1761336332562858200,7.516858154296875,0.023716557770967484,0.012173622846603394,0.008795291185379028
1761336332572925400,7.526925537109375,0.012518232688307762,0.00001770816743373871,0.0040144529193639755
1761336332582991400,7.536991455078125,0.007710694335401058,-0.01754104532301426,-0.009195358492434025
1761336332593057300,7.547057373046875,0.005800824146717787,-0.027646157890558243,-0.0290309377014637
1761336332603124500,7.55712451171875,0.0024140821769833565,-0.0313442200422287,-0.04438938573002815
1761336332613190400,7.5671904296875,0.011155663058161736,-0.03515732288360596,-0.045281149446964264
1761336332623257300,7.57725732421875,0.01865166239440441,-0.03579515218734741,-0.04008771851658821
1761336332633323300,7.5873232421875,0.014338454231619835,-0.02663857862353325,-0.015864858403801918
1761336332643390200,7.59739013671875,0.0077402060851454735,-0.01136295311152935,0.0030806027352809906
1761336332653456100,7.6074560546875,-0.0015902011655271053,-0.003955376334488392,0.01844557374715805
1761336332663522300,7.617522216796875,-0.013354182243347168,0.004034640267491341,0.02416418120265007
1761336332673589200,7.62758935546875,-0.027493633329868317,-0.0054458510130643845,0.020261265337467194
1761336332683655200,7.6376552734375,-0.03377656266093254,-0.009136192500591278,0.006230933591723442
1761336332693722400,7.647722412109375,-0.031316813081502914,-0.007237558718770742,-0.013059914112091064
1761336332703788300,7.657788330078125,-0.026753488928079605,-0.009175540879368782,-0.030641838908195496
1761336332713854200,7.667854248046875,-0.01878616213798523,0.0012177284806966782,-0.04055674374103546
1761336332723921400,7.67792138671875,-0.01744871959090233,-0.03771315887570381,-0.0560145303606987
1761336332733987300,7.6879873046875,-0.02294381521642208,-0.04406382143497467,-0.05908380448818207
1761336332744054300,7.69805419921875,-0.02812473103404045,-0.0348074696958065,-0.053039759397506714
1761336332754120400,7.708120361328125,-0.0296768918633461,-0.03550034016370773,-0.0368855744600296
1761336332764186400,7.718186279296875,-0.023344427347183228,-0.031179891899228096,-0.011699262075126171
1761336332774253300,7.72825341796875,-0.014391439035534859,-0.02868468314409256,0.01781041920185089
1761336332784319500,7.738319580078125,-0.01572594977915287,-0.02622099220752716,0.03416861593723297
1761336332794386400,7.748386474609375,-0.02511591464281082,-0.020784683525562286,0.04533454030752182
1761336332804452000,7.7584521484375,-0.040416840463876724,-0.007806033361703157,0.05618292838335037
1761336332814519300,7.768519287109375,-0.049015264958143234,-0.0007221205160021782,0.06192413344979286
1761336332824585200,7.778585205078125,-0.05601458624005318,0.001759946346282959,0.05727265402674675
1761336332834651100,7.788651123046875,-0.06751169264316559,-0.002810942940413952,0.03952350467443466
1761336332844718300,7.79871826171875,-0.0672035664319992,-0.011113613843917847,0.012253002263605595
1761336332854784300,7.8087841796875,-0.06815632432699203,-0.02005942165851593,-0.013537228107452393
1761336332864851200,7.818851318359375,-0.07075423747301102,-0.035437315702438354,-0.04512711241841316
1761336332874917400,7.82891748046875,-0.08239056169986725,-0.03673080727458,-0.05914390832185745
1761336332884983300,7.8389833984375,-0.08015590161085129,-0.03799660876393318,-0.06365024298429489
1761336332895050200,7.84905029296875,-0.07490380853414536,-0.04743592441082001,-0.05789293348789215
1761336332905116400,7.859116455078125,-0.06468019634485245,-0.04041396826505661,-0.040109939873218536
1761336332915183400,7.869183349609375,-0.05530007928609848,-0.026690689846873283,-0.01862950250506401
1761336332925249300,7.879249267578125,-0.04405888170003891,-0.004190973937511444,0.0006121015176177025
1761336332935315500,7.8893154296875,-0.04052607715129852,0.012644020840525627,0.013772008940577507
1761336332945382400,7.89938232421875,-0.03985149785876274,0.016858473420143127,0.0190192349255085
1761336332955448300,7.9094482421875,-0.03356609493494034,0.012149733491241932,0.022944023832678795
1761336332965515300,7.919515380859375,-0.03656508028507233,0.011149716563522816,0.021153047680854797
1761336332975581400,7.92958154296875,-0.036822106689214706,-0.00048207398504018784,0.010470299050211906
1761336332985648400,7.9396484375,-0.04052310064435005,-0.022384177893400192,-0.0069140181876719
1761336332995714300,7.94971435546875,-0.04273410513997078,-0.03562692180275917,-0.01874472387135029
1761336333005780200,7.9597802734375,-0.04249708354473114,-0.036195509135723114,-0.02093011513352394
1761336333015847200,7.96984716796875,-0.03896091505885124,-0.022186575457453728,-0.024061182513833046
1761336333025913300,7.979913330078125,-0.030895531177520752,-0.015574745833873749,-0.016756931319832802
1761336333035980300,7.989980224609375,-0.019226986914873123,-0.0025141555815935135,-0.006498195230960846
1761336333046046200,8.000046142578125,-0.0050286101177334785,0.005065999925136566,0.00963044073432684
1761336333056112400,8.0101123046875,0.0013659074902534485,0.008053615689277649,0.020565185695886612
1761336333066178300,8.02017822265625,0.0016322685405611992,0.013928556814789772,0.020299941301345825
1761336333076245200,8.030245361328125,0.000918541569262743,0.010930636897683144,0.012679572217166424
1761336333086311400,8.0403115234375,-0.0003771558403968811,0.001730651594698429,0.0015414860099554062
1761336333096377300,8.05037744140625,-0.004338074941188097,-0.018887275829911232,-0.011123709380626678
1761336333106444300,8.0604443359375,-0.012056253850460052,-0.034941259771585464,-0.02627311646938324
1761336333116510500,8.070510498046875,-0.022308891639113426,-0.05016495659947395,-0.029909927397966385
1761336333126577400,8.080577392578125,-0.026158250868320465,-0.055283717811107635,-0.024355385452508926
1761336333136643300,8.090643310546875,-0.029155906289815903,-0.04734882712364197,-0.004554517101496458
1761336333146709200,8.100709228515624,-0.03359771519899368,-0.03394513949751854,0.015437653288245201
1761336333156776200,8.110776123046875,-0.037464894354343414,-0.02541929855942726,0.028453053906559944
1761336333166842000,8.120842041015624,-0.0389358326792717,-0.010274962522089481,0.03357156366109848
1761336333176909300,8.130909423828125,-0.024120133370161057,0.0006794175133109093,0.03601793944835663
1761336333186975200,8.140975341796874,-0.008661016821861267,0.005731966346502304,0.03848269581794739
1761336333197042200,8.151042236328125,0.009027433581650257,0.011652972549200058,0.048942796885967255
1761336333207108400,8.1611083984375,0.024091318249702454,0.005732301622629166,0.04648170620203018
1761336333217174300,8.17117431640625,0.02467268705368042,0.005596481263637543,0.041813451796770096
1761336333227241200,8.1812412109375,0.012230731546878815,-0.010438571684062481,0.03067099303007126
1761336333237307400,8.191307373046875,-0.007616742048412561,-0.02465692162513733,0.013178288005292416
1761336333247374300,8.201374267578124,-0.030017847195267677,-0.03205545246601105,0.0018218569457530975
1761336333257440300,8.211440185546875,-0.03667521849274635,-0.03133746609091759,-0.00022744527086615562
1761336333267506400,8.22150634765625,-0.023546436801552773,-0.014437763020396233,0.006237363442778587
1761336333277573400,8.231573486328125,-0.001248055137693882,-0.01081320084631443,0.019065011292696
1761336333287639300,8.241639404296874,0.014752164483070374,-0.009227274917066097,0.021980155259370804
1761336333297706200,8.251706298828125,0.018688581883907318,-0.004519605077803135,0.009429475292563438
1761336333307772400,8.2617724609375,0.010012488812208176,0.0003245929256081581,0.0029874788597226143
1761336333317838000,8.271838134765625,-0.0006486778147518635,0.004119596444070339,0.0012396462261676788
1761336333327905300,8.2819052734375,-0.004307714756578207,0.0014233225956559181,0.004624627530574799
1761336333337971200,8.29197119140625,0.005469015333801508,-0.012016586028039455,0.01691671460866928
1761336333348038100,8.3020380859375,0.011301292106509209,-0.017161376774311066,0.037747886031866074
1761336333358104300,8.312104248046875,0.017350129783153534,-0.0038112178444862366,0.05928247421979904
1761336333368171300,8.322171142578124,0.017247864976525307,0.012929413467645645,0.07212849706411362
1761336333378237200,8.3322373046875,0.01332103367894888,0.03268421068787575,0.07178255170583725
1761336333388303400,8.342303466796874,0.007828962989151478,0.042995091527700424,0.048282258212566376
1761336333398370300,8.352370361328125,0.001386243849992752,0.03600242733955383,0.020521199330687523
1761336333408436200,8.362436279296874,0.0060047972947359085,0.026330970227718353,-0.007901624776422977
1761336333418503200,8.372503173828125,0.003989583812654018,0.01842484623193741,-0.029712382704019547
1761336333428569300,8.3825693359375,-0.0008003078401088715,0.0021230224519968033,-0.046025823801755905
1761336333438635300,8.39263525390625,-0.011057471856474876,-0.013038620352745056,-0.054522108286619186
1761336333448702200,8.4027021484375,-0.024641387164592743,-0.007123109418898821,-0.043753139674663544
1761336333458768100,8.41276806640625,-0.03260450437664986,0.007355697453022003,-0.023532820865511894
1761336333468836000,8.422836181640625,-0.02930491603910923,0.021090663969516754,-0.008074639365077019
1761336333478902000,8.432902099609375,-0.022159921005368233,0.0383913554251194,0.004837963730096817
1761336333488968200,8.44296826171875,-0.017480675131082535,0.04588034749031067,0.007238550111651421
1761336333499035100,8.45303515625,-0.018218105658888817,0.03631294146180153,-0.0009807641617953777
1761336333509101000,8.46310107421875,-0.0175168476998806,0.030574992299079895,-0.01635645143687725
1761336333519168300,8.473168212890625,-0.01463078148663044,0.029865793883800507,-0.0298919677734375
1761336333529234000,8.48323388671875,-0.011060640215873718,0.028833888471126556,-0.037809692323207855
1761336333539299800,8.4932998046875,-0.009318666532635689,0.024422895163297653,-0.03958042711019516
1761336333549367000,8.503366943359374,-0.0091308718547225,0.02141639031469822,-0.03667152673006058
1761336333559433000,8.513432861328125,-0.00832313485443592,0.02298285998404026,-0.02815074287354946
1761336333569500000,8.5235,-0.005191444419324398,0.022658903151750565,-0.025915052741765976
1761336333579566000,8.533566162109375,-0.0022513149306178093,0.013658753596246243,-0.0218979399651289
1761336333589632000,8.543632080078124,-0.0008293380960822105,0.0015271911397576332,-0.020795375108718872
1761336333599699000,8.553698974609375,0.0031470279209315777,-0.0031642327085137367,-0.018953800201416016
1761336333609765000,8.56376513671875,0.006054960656911135,-0.0009927907958626747,-0.012559804134070873
1761336333619832000,8.57383203125,0.009405749849975109,0.013719843700528145,-0.0038845567032694817
1761336333629898000,8.58389794921875,0.013193003833293915,0.026767831295728683,0.011098907329142094
1761336333639965200,8.593965087890625,0.012814568355679512,0.032082170248031616,0.018224995583295822
1761336333650031000,8.604031005859374,0.01159605197608471,0.020788945257663727,0.01389506459236145
1761336333660097000,8.614096923828125,0.011087387800216675,0.009332560002803802,0.006467773579061031
1761336333670164200,8.624164306640624,0.0043258885852992535,-0.0026894807815551758,-0.008852592669427395
1761336333680230100,8.634230224609375,0.006180780474096537,-0.002239407040178776,-0.018077515065670013
1761336333690297000,8.644297119140624,0.005988285876810551,-0.0012085102498531342,-0.026616990566253662
1761336333700363300,8.65436328125,0.006969394627958536,0.0009846026077866554,-0.03225623443722725
1761336333710429000,8.664428955078124,0.010853152722120285,-0.0024083461612462997,-0.026099521666765213
1761336333720495900,8.674495849609375,0.011190308257937431,0.005985405296087265,-0.015265250578522682
1761336333730562000,8.68456201171875,0.015263322740793228,0.02596408501267433,-0.0014521735720336437
1761336333740629000,8.69462890625,0.009787064976990223,0.033448368310928345,0.011065482161939144
1761336333750695000,8.70469482421875,0.0046449825167655945,0.03727400302886963,0.01811811700463295
1761336333760761900,8.714761962890625,0.0006292015314102173,0.04811147227883339,0.021196996793150902
1761336333770828000,8.724828125,0.007099477108567953,0.061995312571525574,0.017823342233896255
1761336333780894000,8.73489404296875,0.008142637088894844,0.07036936283111572,-0.00022596539929509163
1761336333790961200,8.744961181640624,0.009534351527690887,0.06174543872475624,-0.010213637724518776
1761336333801027000,8.755027099609375,0.01580769382417202,0.0402662418782711,-0.02685599774122238
1761336333811094000,8.765093994140624,0.011293178424239159,0.028275977820158005,-0.04085448384284973
1761336333821160200,8.77516015625,0.0024663975927978754,0.014084791764616966,-0.0554233081638813
1761336333831226000,8.78522607421875,-0.00785787869244814,0.010722016915678978,-0.06089770048856735
1761336333841293000,8.79529296875,-0.01309898030012846,0.02560562640428543,-0.05871204286813736
1761336333851359200,8.805359130859374,-0.008508684113621712,0.04417655989527702,-0.03875350207090378
1761336333861426200,8.81542626953125,0.0004856106825172901,0.06544323265552521,-0.027946924790740013
1761336333871492000,8.8254921875,-0.0007320065051317215,0.06842897832393646,-0.024606317281723022
1761336333881558000,8.83555810546875,-0.011005681939423084,0.05094265565276146,-0.021371107548475266
1761336333891625000,8.845625,-0.019658975303173065,0.027585603296756744,-0.025307774543762207
1761336333901691000,8.85569091796875,-0.028093472123146057,0.010448693297803402,-0.01767755299806595
1761336333911757800,8.8657578125,-0.034637656062841415,0.0046423617750406265,-0.010240796953439713
1761336333921824000,8.875823974609375,-0.034636322408914566,0.01001395657658577,0.007929684594273567
1761336333931890000,8.885889892578126,-0.029951581731438637,0.02514054998755455,0.0231269970536232
1761336333941957000,8.89595703125,-0.03147304803133011,0.033467452973127365,0.045488499104976654
1761336333952023000,8.90602294921875,-0.035482559353113174,0.027754003182053566,0.05818808451294899
1761336333962090000,8.916090087890625,-0.05067402869462967,0.021891584619879723,0.06484677642583847
1761336333972156200,8.92615625,-0.07866266369819641,0.030427532270550728,0.06271549314260483
1761336333982223000,8.93622314453125,-0.12431164085865021,0.05294588953256607,0.07303711026906967
1761336333992289000,8.9462890625,-0.20335030555725098,0.11021585762500763,0.09389422833919525
1761336334002355200,8.956355224609375,-0.3381616771221161,0.1240919902920723,0.11865123361349106
1761336334012422100,8.966422119140624,-0.5107141733169556,0.13544414937496185,0.15714804828166962
1761336334022488000,8.976488037109375,-0.7608670592308044,0.06864488124847412,0.21843165159225464
1761336334032555000,8.986554931640624,-1.0034164190292358,0.08043690770864487,0.2815902829170227
1761336334042621200,8.99662109375,-1.2564737796783447,0.1264835000038147,0.3432251214981079
1761336334052686800,9.006686767578126,-1.5523715019226074,0.09748867899179459,0.445819616317749
1761336334062754000,9.016754150390625,-1.8059227466583252,0.07944469898939133,0.5701532959938049
1761336334072820000,9.026820068359376,-1.9057724475860596,0.02907668426632881,0.7212916612625122
1761336334082887000,9.036886962890625,-1.9054659605026245,-0.02598710171878338,0.8313041925430298
1761336334092953000,9.046953125,-1.8388440608978271,-0.07336284965276718,0.8857341408729553
1761336334103019000,9.05701904296875,-1.7741070985794067,-0.08634815365076065,0.8583094477653503
1761336334113086000,9.0670859375,-1.7370845079421997,-0.037572719156742096,0.7421083450317383
1761336334123152100,9.077152099609375,-1.725554347038269,0.04063766449689865,0.5448790788650513
1761336334133219000,9.087218994140626,-1.7109050750732422,0.09116838872432709,0.3210604786872864
1761336334143285000,9.097284912109375,-1.6641952991485596,0.1384512186050415,0.13900786638259888
1761336334153352000,9.10735205078125,-1.5411781072616577,0.2341332584619522,-0.009409698657691479
1761336334163418000,9.117418212890625,-1.3205658197402954,0.2820126414299011,-0.09798642992973328
1761336334173484000,9.127484130859376,-1.0412988662719727,0.24408769607543945,-0.11928063631057739
1761336334183551000,9.137551025390625,-0.7704213261604309,0.1471656709909439,-0.0996137261390686
1761336334193617200,9.1476171875,-0.5634447336196899,0.04639913886785507,-0.0608801394701004
1761336334203684000,9.15768408203125,-0.41721591353416443,-0.02425052784383297,-0.009086184203624725
1761336334213750000,9.16775,-0.2872544527053833,0.00456966832280159,0.05752373859286308
1761336334223816200,9.177816162109375,-0.13353517651557922,0.1827995926141739,0.16105465590953827
1761336334233883100,9.187883056640626,-0.017652451992034912,0.5022925734519958,0.2412954568862915
1761336334243949000,9.197948974609375,-0.00034376978874206543,0.8684865236282349,0.24309414625167847
1761336334254016300,9.208016357421876,-0.016174299642443657,1.089693307876587,0.20910611748695374
1761336334264082000,9.21808203125,-0.1769389510154724,1.2841325998306274,0.7412310242652893
1761336334274148000,9.228148193359376,-0.5165199041366577,0.7727411985397339,0.7300190925598145
1761336334284215000,9.238215087890625,-0.9039602875709534,0.505466103553772,0.5072685480117798
1761336334294281000,9.248281005859376,-1.0823373794555664,0.08761245012283325,0.24549664556980133
1761336334304348000,9.258347900390625,-1.0977404117584229,-0.2764139473438263,-0.014243853278458118
1761336334314414000,9.2684140625,-1.03635835647583,-0.3350084722042084,-0.15137261152267456
1761336334324481000,9.27848095703125,-0.9660821557044983,-0.1288691610097885,-0.19022732973098755
1761336334334547000,9.288546875,-0.8639832139015198,0.04996369779109955,-0.22528411448001862
1761336334344613000,9.298613037109375,-0.7186891436576843,0.0927918553352356,-0.26386401057243347
1761336334354680000,9.30868017578125,-0.549399197101593,0.13559044897556305,-0.22535637021064758
