time,seconds_elapsed,z,y,x
1761338333971523600,0.077523681640625,-0.580225653797388,0.38866847819685935,0.5521789052907378
1761338333981588500,0.08758837890625,-0.3712590782344341,0.35442798961661753,0.5016752276411279
1761338333991654700,0.097654541015625,-0.22913433432281016,0.17231522644869982,0.4466699277233332
1761338334001720600,0.107720458984375,-0.10364216078221797,-0.13394998608864844,0.42900801430456337
1761338334011785700,0.11778564453125,0.15570084932148456,-0.332668322022818,0.3716892132800072
1761338334021851600,0.1278515625,0.5220248092412948,-0.5162374214788898,0.2177201196545735
1761338334031916500,0.13791650390625,0.8194587728083134,-0.812996810252592,0.09429345467588864
1761338334041982700,0.147982666015625,0.9977882180452347,-1.0229572922237218,0.012690255636174697
1761338334052048600,0.158048583984375,1.2029302668839692,-1.081543555900827,0.013124575949809513
1761338334062113500,0.168113525390625,1.3668044857889412,-1.1021131003946065,0.1287357768380083
1761338334072179500,0.178179443359375,1.3888023825854061,-1.0268473584648221,0.33851580594200636
1761338334082244600,0.18824462890625,1.235413317337632,-0.8803106433298439,0.5706618893014267
1761338334092310800,0.198310791015625,1.007052889996767,-0.736173390552029,0.7455728678643703
1761338334102376700,0.208376708984375,0.6792126822501421,-0.6671226506795733,0.8411029607962817
1761338334112441600,0.218441650390625,0.3480313473820686,-0.6104818585144356,0.822896272976324
1761338334122507500,0.228507568359375,0.08894201977849006,-0.6593143880814314,0.739093588847667
1761338334132573700,0.23857373046875,-0.12412614588439463,-0.8154607161480933,0.6290061974488198
1761338334142638600,0.248638671875,-0.36060908940434455,-0.9137643654465675,0.43847986273337153
1761338334152704800,0.258704833984375,-0.5515145230978727,-0.8945543458029628,0.317898476783745
1761338334162769700,0.268769775390625,-0.5443535454273224,-0.9018512978781014,0.4511883184632286
1761338334172835600,0.278835693359375,-0.5284294155865907,-0.9908553500421344,0.6782726979862899
1761338334182901500,0.288901611328125,-0.5146440513402223,-1.0079029309548437,0.8617156137794255
1761338334192966700,0.298966552734375,-0.5449708005428314,-0.9955720033004879,0.940738881611824
1761338334203032800,0.30903271484375,-0.6176566820472479,-1.0125897735968232,0.8874183564431964
1761338334213097500,0.319097412109375,-0.724413175457716,-1.0640198819089681,0.7610382941521704
1761338334223163600,0.32916357421875,-0.9107698598057031,-1.1402378099970518,0.6555665798552334
1761338334233229600,0.3392294921875,-1.1234399660617111,-1.1968022855229674,0.622414105707407
1761338334243294700,0.349294677734375,-1.424991301819682,-1.223918548246473,0.6180372057974338
1761338334253360600,0.359360595703125,-1.7054548413634298,-1.1807404277119784,0.6150970606923103
1761338334263425500,0.369425537109375,-1.8435101438790558,-1.044884315741062,0.6368135832641273
1761338334273491700,0.37949169921875,-1.8569594080388545,-0.8885993829213082,0.6687973789587617
1761338334283557600,0.3895576171875,-1.746003709372878,-0.764057495842874,0.7382957164682448
1761338334293622800,0.399622802734375,-1.4662094473928213,-0.685628394511342,0.7658362690184265
1761338334303688400,0.4096884765625,-1.154520748502016,-0.6211452548153699,0.7776557400193065
1761338334313753600,0.419753662109375,-0.8777642467826604,-0.5940551494464278,0.7975616329725831
1761338334323819500,0.429819580078125,-0.5901759699255228,-0.7009658105053007,0.7616290265869349
1761338334333885700,0.4398857421875,-0.31531390365064144,-0.5680384819952771,0.3604080869395286
1761338334343950800,0.449950927734375,-0.0006049801558256149,-0.2729620048072189,-0.28168672466315325
1761338334354016500,0.4600166015625,0.21610358783602712,-0.28095742400791496,-0.6317391295440494
1761338334364081700,0.47008154296875,0.015801380243897437,-0.5293908444972708,-0.6727373487561941
1761338334374147600,0.480147705078125,-0.5545458536177873,-0.5875919447816909,-0.5455396134067326
1761338334384213800,0.4902138671875,-1.1688082170516252,-0.33685295076370236,-0.2579155345838517
1761338334394278400,0.5002783203125,-1.863273413491249,-0.030934615435265003,0.13714388675913214
1761338334404344600,0.510344482421875,-2.5297552089840174,0.2799430958662182,0.5922131748415529
1761338334414409700,0.52040966796875,-2.8639298804491755,0.6118629741419106,1.1057098097123206
1761338334424475600,0.5304755859375,-2.7185809137940407,0.9003918197847902,1.5671464408695697
1761338334434541800,0.540541748046875,-2.2226281189203263,1.0868203272599726,1.855873074106872
1761338334444606500,0.5506064453125,-1.4920336244791745,1.1258722347099333,1.955533471776545
1761338334454672600,0.560672607421875,-0.638272184574604,1.0957580322794616,1.8868363676473496
1761338334464737500,0.570737548828125,0.21334464451670646,1.0713914335902779,1.7020315889164805
1761338334474803700,0.5808037109375,0.8692197057992219,1.0515307680182158,1.540508317051828
1761338334484869600,0.59086962890625,1.3442846109449862,1.0381791190139948,1.3289625386506319
1761338334494934500,0.6009345703125,1.8117384565651415,1.0223836570542306,1.0674708260804413
1761338334505000700,0.611000732421875,2.163054232445359,0.962887219729647,0.7492004837770014
1761338334515065600,0.621065673828125,2.458079965826869,0.8538296828351915,0.38251791967786847
1761338334525131800,0.6311318359375,2.7388118009179827,0.6610398966997861,0.142617934256047
1761338334535197700,0.64119775390625,2.8403566971600056,0.4576724928507581,-0.04430142547599971
1761338334545262600,0.6512626953125,2.7614427349209785,0.28303963710945096,-0.18538067892268298
1761338334555328500,0.66132861328125,2.4512036503165957,0.08091529212407768,-0.3414579603411257
1761338334565393700,0.6713935546875,1.955382372868061,-0.12150770701430737,-0.36028321845084427
1761338334575459800,0.6814599609375,1.2924749287307262,-0.4041602810349315,-0.1335590140096843
1761338334585525800,0.69152587890625,0.6113052671939134,-0.6263431157194077,0.155441759993881
1761338334595590700,0.701590576171875,-0.09885317294001579,-0.6800416073549539,0.37293928640633817
1761338334605656600,0.711656494140625,-0.846272545453906,-0.6860850522376597,0.5573949594385922
1761338334615721700,0.7217216796875,-1.4909066662758588,-0.5691003025405108,0.677624682406336
1761338334625787600,0.73178759765625,-1.8248422682881353,-0.30707886700779197,0.8385207622833549
1761338334635853600,0.741853515625,-1.9160563246518372,-0.03356576765645295,1.1164683734834193
1761338334645918700,0.751918701171875,-2.0676900706648826,0.23870681184818968,1.4059778276614845
1761338334655984600,0.761984619140625,-2.122121333554387,0.5124318551834672,1.7997401218660174
1761338334666049800,0.7720498046875,-1.9122662847191094,0.7556254753232002,2.073084330923855
1761338334676115700,0.78211572265625,-1.428385620433092,0.7547478157058358,2.1517989711984993
1761338334686181600,0.792181640625,-0.8480974227935075,0.5604349481889978,2.0218308212876317
1761338334696246500,0.80224658203125,-0.25085049156844613,0.2647288678605109,1.6461074571207164
1761338334706312700,0.812312744140625,0.21727087804973125,-0.06086779874302446,1.0803320612192153
1761338334716377900,0.8223779296875,0.46956046251058575,-0.42827458546347913,0.5155376391790807
1761338334726443500,0.832443603515625,0.6590753186285495,-0.7828848728444426,0.04741802312657237
1761338334736509400,0.842509521484375,0.8589631002008914,-1.0100945227149873,-0.3257715847790241
1761338334746574600,0.85257470703125,1.1332640254616737,-1.1993532851800321,-0.6154752463549376
1761338334756640800,0.862640869140625,1.4182353978186846,-1.446668296098709,-0.8190374786563217
1761338334766706700,0.872706787109375,1.6562573874741793,-1.7130962960273026,-0.9765081141293048
1761338334776771600,0.882771484375,1.7184750664561985,-1.910359282054007,-1.1129695715822279
1761338334786837500,0.89283740234375,1.6011591851085423,-2.085698459433764,-1.2030346040412783
1761338334796902700,0.902902587890625,1.491637318637967,-2.2071493947595355,-1.1594139273710549
1761338334806968600,0.912968505859375,1.2776935391843318,-2.218258525533974,-0.9962658307835459
1761338334817033500,0.923033447265625,0.8099082696527242,-2.1099168087586757,-0.7817332916565239
1761338334827099600,0.933099609375,0.3614426176190376,-2.00165005691573,-0.47642727954015135
1761338334837165600,0.94316552734375,-0.0835726016998291,-1.9133891512691974,-0.23484774353355167
1761338334847230700,0.953230712890625,-0.5171013813644647,-1.843897974152863,-0.1460331495270133
1761338334857296600,0.963296630859375,-0.8766694372832775,-1.8184359083771704,-0.11211422105133532
1761338334867361500,0.973361572265625,-1.1693132439643144,-1.766721064839512,-0.07130377949625254
1761338334877427500,0.983427490234375,-1.332970020726323,-1.5408973163694142,0.013546148663014172
1761338334887493600,0.99349365234375,-1.3205465924829243,-1.2701385937601326,0.16280746645629404
1761338334897558800,1.003558837890625,-1.2192594703942536,-1.050249569101259,0.3799481422550976
1761338334907624700,1.013624755859375,-1.0664870757400988,-0.9053716540239751,0.5864750695809722
1761338334917691000,1.02369091796875,-0.9026146104007959,-0.7910767279326916,0.7161730242483317
1761338334927755300,1.03375537109375,-0.7844850745826959,-0.6351088982380926,0.760588650688529
1761338334937821400,1.043821533203125,-0.7441501415848731,-0.4739017796505242,0.7899410019010304
1761338334947886600,1.053886474609375,-0.785301651662588,-0.3019951705353334,0.8251581534937024
1761338334957952500,1.063952392578125,-0.9421996018141507,-0.1793009936828166,0.821865249428153
1761338334968017700,1.074017578125,-1.1397469577401875,-0.3540283958397806,0.675834291858226
1761338334978083300,1.084083251953125,-1.090402204334736,-0.3393589787678793,0.3242904063105583
1761338334988149500,1.0941494140625,-0.8751023340970278,-0.32165523550137876,-0.12712971161454914
1761338334998214400,1.10421435546875,-0.3246159850031137,-0.08546182211306877,-0.49983402022123335
1761338335008280600,1.114280517578125,0.4747440026283264,0.5062966403640806,-0.6906899156846106
1761338335018346500,1.124346435546875,1.0393985778063535,1.070136830419302,-0.653925096258521
1761338335028411400,1.134411376953125,1.1312906795620918,0.8917140078105031,-0.3915782281637192
1761338335038477300,1.144477294921875,0.8426672144383192,0.3159530783370137,-0.010334200879186392
1761338335048542500,1.15454248046875,0.27408114503026004,0.01366064531308948,0.46576004731431603
1761338335058608600,1.164608642578125,-0.7740741552054882,0.024738482475187628,0.704751174262911
1761338335068674600,1.174674560546875,-2.106497647964954,0.1619390495913103,0.7006909390866756
1761338335078739500,1.184739501953125,-3.2340175768166777,0.2858583295256831,0.8109389278747141
1761338335088805400,1.194805419921875,-3.829782745051384,0.3788990350609645,1.2643389675706624
1761338335098870500,1.20487060546875,-3.914726050582528,0.5176180621823295,1.7121728975720703
1761338335108936400,1.2149365234375,-3.4306010561466214,0.7970172238975762,1.8261163798771798
1761338335119002600,1.225002685546875,-2.4447084430783987,0.9961439579695462,1.7804633205965161
1761338335129067500,1.235067626953125,-1.1949486204802988,1.2777191120170055,1.7333271831512451
1761338335139133400,1.245133544921875,-0.080126260638237,1.2408061162918806,1.782480359507352
1761338335149198600,1.255198486328125,0.9536737665086984,1.135973576681316,1.7584812058910726
1761338335159264500,1.265264404296875,1.875166680380702,1.263283174907416,1.505193842564523
1761338335169329400,1.275329345703125,2.6294857492804526,1.357918584021926,1.1454363284882156
1761338335179395300,1.285395263671875,3.209960409402847,1.3198653322204947,0.869496988370642
1761338335189461500,1.29546142578125,3.660515727192163,1.1665155030045657,0.8063637289136648
1761338335199526700,1.305526611328125,4.002483829012513,0.8689569632098079,0.7421625479642301
1761338335209592600,1.315592529296875,4.073860381484032,0.5996713453603908,0.38184557337425645
1761338335219658500,1.325658447265625,3.7754870912402865,0.5701925912892446,0.01616751014254987
1761338335229723400,1.335723388671875,3.0861586731672284,0.586365837052837,-0.07557027783431113
1761338335239789600,1.34578955078125,2.0700398486614224,0.5179190544229001,-0.002021203629299998
1761338335249854500,1.3558544921875,0.975847604393959,0.4272579922994599,0.0410123208027333
1761338335259920400,1.36592041015625,-0.1522299583405256,0.477073176228255,-0.01612915089353919
1761338335269986300,1.375986328125,-1.288945001038909,0.5972871171049773,-0.0044415626440197226
1761338335280051500,1.386051513671875,-2.245846497422457,0.7822812809281051,0.18659283119142053
1761338335290117400,1.396117431640625,-2.907852024284005,0.9930044909000396,0.501722025924921
1761338335300182500,1.4061826171875,-3.3310575628548857,1.151441779448092,0.8244823000587522
1761338335310248400,1.41624853515625,-3.320781083512306,1.1841645569417625,1.1237867336727678
1761338335320313300,1.426313232421875,-2.8763620765209197,1.0786742110095917,1.244990416239202
1761338335330379500,1.436379638671875,-2.0418109485208986,0.8544839089602232,1.1636807179700583
1761338335340445400,1.446445556640625,-0.9770096339106559,0.6029325756460427,1.0318503543838857
1761338335350510300,1.45651025390625,0.02227145304083824,0.29653102337792514,0.8757604326795786
1761338335360576500,1.466576416015625,0.7450514743387698,-0.11957133212424814,0.7558751392353326
1761338335370641400,1.476641357421875,1.1375625994384289,-0.4382291393753141,0.7161303541503846
1761338335380707600,1.48670751953125,1.1674012728631495,-0.5587403826981783,0.6740261464577167
1761338335390773500,1.4967734375,1.044183473995328,-0.5033293149910867,0.660228872577846
1761338335400838400,1.50683837890625,0.8654267432570457,-0.5304981116194277,0.6997136915523559
1761338335410904300,1.516904296875,0.714476303333044,-0.7486096782770008,0.716112818493694
1761338335420969500,1.526969482421875,0.5959598140239715,-0.9492337382346391,0.557554680044949
1761338335431035400,1.537035400390625,0.547533929029107,-1.0738195375200361,0.2651374486614019
1761338335441101600,1.5471015625,0.5641366887837648,-1.166160332891345,-0.03426233508586883
1761338335451166500,1.55716650390625,0.5580366183429956,-1.2312823550127445,-0.07060264548957347
1761338335461232400,1.567232421875,0.4731266305595636,-1.3758473316833375,-0.05175636285813525
1761338335471297500,1.577297607421875,0.5204676429271697,-1.547659942372143,-0.11682422537319362
1761338335481363500,1.587363525390625,0.6175561442822217,-1.617489849923551,-0.2603983095766045
1761338335491429600,1.5974296875,0.6758662944316863,-1.7221116693928837,-0.4081595067389309
1761338335501494500,1.60749462890625,0.7257388711035251,-1.8681364894829688,-0.48962395717836915
1761338335511560400,1.617560546875,0.7104261511594057,-2.0055515943989155,-0.5172698332665487
1761338335521625600,1.62762548828125,0.5580559075653553,-2.0483611008167264,-0.6084149160472676
1761338335531691500,1.63769140625,0.1985942346304655,-1.9584356229588389,-0.7470444017216563
1761338335541757700,1.6477578125,-0.20324644435048103,-1.7524609226882457,-0.6990254900924862
1761338335551822300,1.657822265625,-0.7177981412321329,-1.4221686456143856,-0.5056500860888511
1761338335561888500,1.667888427734375,-1.12290162140131,-1.1162043887849897,-0.22787045186683536
1761338335571953400,1.677953369140625,-1.3576882823973893,-0.9188323163606226,0.14606054899059234
1761338335582019600,1.68801953125,-1.4807535210520029,-0.7800343787841498,0.4452746374400332
1761338335592085200,1.698085205078125,-1.5717442900538443,-0.5575418205633759,0.6718854081019758
1761338335602150400,1.708150390625,-1.6316770729690788,-0.4353317374333739,0.9645569065075367
1761338335612216600,1.718216552734375,-1.5299316857188938,-0.5029357856288552,1.3143623508900404
1761338335622281500,1.728281494140625,-1.4250912550628185,-0.6570338028635829,1.4846931985884904
1761338335632347600,1.73834765625,-1.431114168614149,-0.8310239767871797,1.427825940723717
1761338335642413300,1.748413330078125,-1.3567951329499481,-0.9066870474714785,1.1084254984118043
1761338335652478500,1.758478515625,-1.2759855662226676,-0.9598918373059481,0.7624648198239505
1761338335662544400,1.76854443359375,-1.453680805209279,-0.9918062210261821,0.6399225821301341
1761338335672609500,1.778609619140625,-1.7263211037814616,-0.974876494339481,0.8431669806540012
1761338335682675500,1.788675537109375,-2.011401781731844,-0.9109274615202099,1.139187058835104
1761338335692741400,1.798741455078125,-2.1784218974471092,-0.8309423629183321,1.0835020695574582
1761338335702806500,1.808806640625,-2.111453224545717,-0.7425408066920935,0.6271064282421023
1761338335712872400,1.81887255859375,-1.781200110438466,-0.6768286366578191,0.048830885599181056
1761338335722937600,1.8289375,-1.2803887696176766,-0.7793587445449084,-0.5173051603082567
1761338335733003300,1.839003173828125,-0.7968833683848381,-0.8310103866532444,-0.9557459696728735
1761338335743069400,1.8490693359375,-0.3968406787365675,-0.7223585079502314,-1.0653990613076836
1761338335753134600,1.859134521484375,-0.15155425103604792,-0.8137854033470153,-0.8725628056820481
1761338335763200500,1.869200439453125,-0.04390519270002842,-0.5782799265570938,-0.2946511279154569
1761338335773265400,1.879265380859375,-0.13164192834198474,-0.16195611032396554,0.476581739449501
1761338335783331300,1.889331298828125,-0.33499007950127124,0.2884445283602923,1.1407607378926128
1761338335793397500,1.8993974609375,-0.6336942091345786,0.6435745287664234,1.7121660294398664
1761338335803462400,1.90946240234375,-0.9396130924522876,1.0737960835792124,2.125453254456073
1761338335813528600,1.919528564453125,-1.0404828659117222,1.257760904354602,2.2912372525051237
1761338335823593500,1.929593505859375,-0.9355150094836949,1.2049973554816096,2.272803770191967
1761338335833659400,1.939659423828125,-0.5787731169015169,1.0606322122320533,2.196779099653661
1761338335843725600,1.9497255859375,-0.11626140385866164,0.931501024601981,1.9956676215052604
1761338335853790500,1.95979052734375,0.2991296615689993,0.8077149243269115,1.710166087794304
1761338335863856600,1.969856689453125,0.7644026560187339,0.8359642827335745,1.5136908911444247
1761338335873921300,1.97992138671875,1.161701015394926,0.7855433514639735,1.5211711638972163
1761338335883987500,1.989987548828125,1.3905799136519432,0.8959178892411291,1.6981909878402948
1761338335894053400,2.000053466796875,1.5697802965044974,1.1673899477515368,1.9193128422297536
1761338335904118500,2.010118408203125,1.6423481045871973,1.3748089285463094,2.0079685924127695
1761338335914184400,2.020184326171875,1.6304671126574277,1.359361768567562,1.9350263980597255
1761338335924249300,2.030249267578125,1.5877812326192855,1.14335141197294,1.779057253190875
1761338335934315500,2.0403154296875,1.4098498467892409,0.9655653528977185,1.5679600953400135
1761338335944381400,2.05038134765625,0.8683855930626392,0.9968202497959137,1.4350982698142527
1761338335954446600,2.060446533203125,0.24992986959218977,0.9382423886209725,1.357075411196053
1761338335964512500,2.070512451171875,-0.2703366978049278,0.9024537207506597,1.384143012472242
1761338335974577400,2.080577392578125,-0.7381213828146457,1.0452359787229448,1.450584592759609
1761338335984643600,2.0906435546875,-1.0372820240437983,1.1627147955473511,1.3989612268976865
1761338335994708500,2.10070849609375,-1.1522148096472025,1.1412812546353786,1.1428982613779604
1761338336004774700,2.110774658203125,-1.028545175358653,1.0990698602411895,0.7466521144684404
1761338336014840300,2.12084033203125,-0.75555124104321,1.1130788771755993,0.424364864673838
1761338336024905500,2.130905517578125,-0.4328630092322826,1.106063153194636,0.18364296840988098
1761338336034971400,2.140971435546875,-0.01618891825675964,0.9867538330074399,-0.11750453578755259
1761338336045036500,2.15103662109375,0.38924306321442126,0.8197833285875618,-0.5379617985635996
1761338336055102500,2.1611025390625,0.7787403934508562,0.8245646445799618,-0.9382811862614006
1761338336065168400,2.17116845703125,1.199413198673725,1.1414918286461382,-0.8911793894771486
1761338336075233500,2.181233642578125,1.6481027225911615,0.8957656943541019,-0.8726667775131761
1761338336085299500,2.191299560546875,1.8387398607373238,0.7905344377495348,-0.7501018165308981
1761338336095364600,2.201364501953125,1.7868290562361477,0.7658958902511745,-0.37098121114112437
1761338336105430300,2.21143017578125,1.6840274379312992,0.7130177020225673,0.1918082277521491
1761338336115496400,2.221496337890625,1.4642191503584383,0.5360545767027884,0.6668766400292515
1761338336125561600,2.2315615234375,1.0661199959933758,0.28958272034367544,0.9171583187337964
1761338336135627500,2.24162744140625,0.6970394308418035,0.13434279393167234,0.9183561502162366
1761338336145692700,2.251692626953125,0.5233890833318233,0.061740412292513064,0.8462420041851699
1761338336155758300,2.26175830078125,0.43175183311998844,-0.11864516632319427,0.9312716728255153
1761338336165824500,2.271824462890625,0.2608054838716984,-0.24455120876114814,1.0426290110949425
1761338336175889400,2.281889404296875,0.12697802818417547,-0.3841127511212602,1.186031373726949
1761338336185955600,2.29195556640625,0.04964695122241974,-0.4918628952115774,1.3751681172475219
1761338336196020500,2.3020205078125,-0.05051204361915588,-0.532156546350941,1.5104403649158775
1761338336206086400,2.31208642578125,-0.16402794816195965,-0.5531709850680083,1.5688627432681619
1761338336216152300,2.32215234375,-0.34169922175109385,-0.4926427204776555,1.5240323985472322
1761338336226217500,2.332217529296875,-0.6126145962268114,-0.3420850427309051,1.484783507220447
1761338336236283600,2.34228369140625,-0.7380646841913461,-0.1874667279491201,1.6787679099678992
1761338336246348300,2.352348388671875,-0.8580793031036853,0.02953391832448542,2.0288515137046574
1761338336256414500,2.36241455078125,-1.052369118538499,0.24406225620042532,2.4053692431196567
1761338336266480400,2.37248046875,-1.2123895846247672,0.5657367809241637,2.690306420946121
1761338336276545500,2.382545654296875,-1.3488508959472179,1.0422547709550707,2.833351202312112
1761338336286611500,2.392611572265625,-1.3740192394733428,1.396137840040028,2.8645503504350778
1761338336296676400,2.40267626953125,-1.245118718793988,1.472765152646601,2.667890883259475
1761338336306742500,2.412742431640625,-1.0207593437880278,1.3731255055040121,2.03758397847563
1761338336316808400,2.422808349609375,-0.746306442835927,1.1334944732166825,0.7714730327963829
1761338336326873600,2.43287353515625,-0.3194423817574978,0.47743689497411246,-1.0288925274915992
1761338336336939500,2.442939453125,0.3421621630877256,-0.4537372357610613,-3.3116856306478377
1761338336347004400,2.45300439453125,0.9548615149885415,-0.28475508099151775,-4.540775297921896
1761338336357070300,2.4630703125,0.9471142618626356,0.4718731598997488,-3.2596061915814873
1761338336367136500,2.473136474609375,0.4705874674707651,0.21740213974658398,-0.7320864865645765
1761338336377201700,2.48320166015625,0.0870364784181118,0.4286053152551874,1.457965789052099
1761338336387267600,2.493267578125,-0.16599369527697563,0.8245466705318539,3.13190452529788
1761338336397332500,2.50333251953125,-0.42027825294733046,1.0842089026525616,3.6909395070284603
1761338336407398400,2.5133984375,-0.6767004071682691,1.4465604518100619,3.509270980496704
1761338336417464600,2.523464599609375,-0.9091215080767869,1.7874097787335514,3.334725145451724
1761338336427529500,2.533529541015625,-1.0203063393235206,1.777969750215113,3.3267370693072675
1761338336437595400,2.543595458984375,-1.1095184082150458,1.5507456334277987,3.1595705308586357
1761338336447660500,2.55366064453125,-0.98379067235291,1.063191175999865,2.555559512326121
1761338336457726500,2.5637265625,-0.6430109035342931,0.5198732572305947,1.7068451266780496
1761338336467792400,2.57379248046875,-0.35402620388269423,0.03108184188622981,0.9419224653732031
1761338336477857500,2.583857421875,-0.1593108565121889,-0.22689769784454256,0.5784019455015659
1761338336487923500,2.59392333984375,-0.023411855247616766,-0.3763059863604605,0.48596510587725783
1761338336497988400,2.60398828125,0.08310673775374888,-0.5050354247892275,0.5298713214905932
1761338336508054500,2.614054443359375,0.08442600365877151,-0.6826468214172869,0.6633376522481441
1761338336518120400,2.624120361328125,0.01158405480980873,-0.8406086744733154,0.85185093010813
1761338336528185300,2.634185302734375,-0.15268237828314304,-0.889910392454639,1.1553517924986778
1761338336538251500,2.64425146484375,-0.40407939781844615,-0.9942606284409761,1.516296543598175
1761338336548316400,2.65431640625,-0.5933925938844681,-1.1145130016319453,1.7584503723613918
1761338336558382600,2.664382568359375,-0.5618225666224956,-1.2370488095849752,1.762597555168718
1761338336568448500,2.674448486328125,-0.4522358182221651,-1.39024542100057,1.6228756346151232
1761338336578513400,2.684513427734375,-0.33019173930883405,-1.6143115121483802,1.5004934097886085
1761338336588579300,2.694579345703125,-0.10340309132933616,-1.908070878855884,1.2461682278469204
1761338336598644500,2.70464453125,0.2037882961422205,-2.1435070898018775,0.8469980832494794
1761338336608710400,2.71471044921875,0.49377778892219065,-2.1941452440187335,0.5963934562008828
1761338336618775300,2.724775390625,0.7357768655151128,-2.271189612993598,0.5092964797671884
1761338336628841500,2.734841552734375,1.0792366671979428,-2.1713079737886787,0.5298190433140844
1761338336638907400,2.744907470703125,1.2774597304284572,-1.4551033853583037,0.6313618206642567
1761338336648972500,2.75497265625,1.091212936195731,-2.2258833213239906,1.1033930572025477
1761338336659038500,2.76503857421875,1.1344593727260828,-2.533289520590007,1.4512107618339358
1761338336669103400,2.775103271484375,1.3856962332636118,-1.8716523886494338,0.9924543096713722
1761338336679169500,2.78516943359375,1.2713836253851651,-1.4801343662403523,0.7132831480257212
1761338336689235500,2.7952353515625,0.7204892800122499,-1.5361422307968138,1.170937484165281
1761338336699300600,2.805300537109375,0.24961656585931777,-1.3995457487873733,1.9479155441187321
1761338336709366500,2.815366455078125,-0.10477847133576869,-0.938415114839375,2.2783787938453255
1761338336719431400,2.825431396484375,-0.5485013127565384,-0.4213143179967999,2.490204412101209
1761338336729497300,2.835497314453125,-1.053446976903081,0.14244959195181728,2.386266190981865
1761338336739563500,2.8455634765625,-1.3595873940169811,0.6002605434251949,1.7845856612235307
1761338336749628400,2.85562841796875,-1.4050240340679883,0.5003370013073086,0.5388072729444131
1761338336759694600,2.865694580078125,-1.3914245477825402,0.004765606966614723,-0.5816293465828523
1761338336769759500,2.875759521484375,-1.3262006727218627,-0.6885733619220554,-0.9732823570158332
1761338336779825400,2.885825439453125,-1.1327087296664715,-1.356258541855216,-1.0238746993295849
1761338336789891600,2.8958916015625,-0.9553700490325688,-1.4772319227971136,-1.0494603914849459
1761338336799956500,2.90595654296875,-0.6117185241699218,-2.0587255507037043,-1.4833581505924462
1761338336810022700,2.916022705078125,-0.3981716350793838,-2.127277547273785,-1.3805604778103528
1761338336820087600,2.926087646484375,-0.31702129209041596,-2.074479438544065,-0.8685989435523748
1761338336830153500,2.936153564453125,-0.18983926576673985,-1.9315740656487643,-0.1490934138804674
1761338336840219400,2.946219482421875,-0.08559680100381374,-1.5240242152407764,0.4677547647954896
1761338336850284500,2.956284423828125,0.00881692818403244,-0.998056951984018,0.7196601357117295
1761338336860350500,2.9663505859375,0.08208616253435612,-0.6758182175062596,0.6567098316062241
1761338336870415400,2.976415283203125,0.22099252892136573,-0.5283430159447714,0.33594569972567256
1761338336880481500,2.9864814453125,0.5266390250384807,-0.5074545416949316,-0.24521902502011506
1761338336890547500,2.99654736328125,0.7893681704491377,-0.8397780688680708,-0.7331919635884463
1761338336900612600,3.006612548828125,0.6299561916500329,-1.4674904271140694,-0.6570418400395661
1761338336910678300,3.01667822265625,0.18953706794977188,-1.7978912791289388,-0.20201295703276992
1761338336920743400,3.026743408203125,-0.20965923400223255,-1.8180773041978477,0.359462111326307
1761338336930809900,3.036809814453125,-0.6357049644351005,-1.913891840094328,1.1446505849380046
1761338336940875800,3.046875732421875,-1.1661579948037861,-2.043419114369899,2.0487515614390372
1761338336950941000,3.05694091796875,-1.9614017792880534,-1.860845309561491,2.728831674173474
1761338336961006800,3.0670068359375,-3.1562738274008035,-1.0168578793700784,3.120626759958267
1761338336971072000,3.077072021484375,-4.133509671282768,0.3065841788260266,3.2810748038068414
1761338336981137700,3.0871376953125,-4.338866239655018,1.5522528231203556,3.680589670188725
1761338336991203800,3.097203857421875,-3.6859108652114867,2.342766071951389,3.640204468308389
1761338337001268700,3.107268798828125,-2.3934230769991873,2.4303704133853317,2.711446824130416
1761338337011335000,3.1173349609375,-0.7885176910996436,1.7737753672651946,1.0216894642449914
1761338337021399800,3.12739990234375,0.7555740373969078,0.9954344945259391,-0.848978881803155
1761338337031465700,3.1374658203125,1.9085428802818059,0.23468217770829797,-2.1441654075801373
1761338337041532000,3.147531982421875,2.582568515282869,-0.2575379882420413,-2.6427248778209087
1761338337051596800,3.1575966796875,2.9160984591037034,-0.19254227764774112,-2.296774720627069
1761338337061663000,3.1676630859375,2.918259436529875,0.005908785652369261,-1.4799182392716408
1761338337071727900,3.177727783203125,2.7039269500195977,-0.22800975073967128,-0.9514159045793116
1761338337081793800,3.187793701171875,2.41009130320549,-0.5285515806615352,-0.7959121852651238
1761338337091859000,3.19785888671875,1.8251368673205375,-0.4530594095647335,-0.6798628897871821
1761338337101924900,3.2079248046875,1.0607412255644797,-0.2536706635557115,-0.43730866352953013
1761338337111991000,3.217990966796875,0.3393219712257385,-0.06554822991052642,-0.20513614882091058
1761338337122055700,3.2280556640625,-0.22567688734531402,0.07580494054013397,-0.08431563861947507
1761338337132121900,3.238121826171875,-0.795137986022234,0.24741450750408692,0.015655697296047582
1761338337142187000,3.24818701171875,-1.3073007419407368,0.4363498284347355,0.1658452815159224
1761338337152253000,3.2582529296875,-1.818954963815212,0.6476215391349047,0.461320128638111
1761338337162318800,3.26831884765625,-2.31590904468596,0.7377998957753181,0.7660380752008408
1761338337172383700,3.2783837890625,-2.488134327828884,0.7887376905258745,0.982788071181625
1761338337182450000,3.288449951171875,-2.3496342041552065,0.9886703341532498,0.9336571066573262
1761338337192514800,3.298514892578125,-1.8656430652320384,1.169474572005868,0.6494258851431309
1761338337202581000,3.3085810546875,-1.1999193946301936,1.1076602131277322,0.36390911733042447
1761338337212647000,3.31864697265625,-0.4833230304032564,0.885611160890758,0.18317697659963741
1761338337222711800,3.3287119140625,0.2401648469030857,0.9253232858151197,0.27964139123959464
1761338337232777700,3.33877783203125,0.9065852675974369,0.869182296398282,0.37215588094368574
1761338337242843000,3.3488427734375,1.373009770169854,0.5711122999500483,0.3382147406361997
1761338337252909000,3.358908935546875,1.6212597238510846,0.3118806777989492,0.1756281321226619
1761338337262974700,3.368974609375,1.6985422854959964,0.2300938635373488,0.037791038934979586
1761338337273040000,3.379039794921875,1.5694839439064263,0.22134568974059074,-0.004873898779833689
1761338337283105800,3.389105712890625,1.3862117815703152,0.22237864951752126,0.05782696974240243
1761338337293171000,3.3991708984375,1.1368073971569537,0.3499808009494096,0.2917588588063605
1761338337303236900,3.40923681640625,0.8829080394119023,0.5151883508173749,0.6967245196737348
1761338337313302800,3.419302734375,0.6180003809183836,0.570406928159669,1.0224806146226824
1761338337323368000,3.429367919921875,0.3199450705826282,0.5570395335970446,1.1937692014373837
1761338337333433900,3.439433837890625,0.03728372873365879,0.6231098328866064,1.1973803776718674
1761338337343499000,3.4494990234375,-0.06935001507997512,0.6269908390384167,1.1213439436305315
1761338337353564700,3.459564697265625,0.059039048945903776,0.4044562683068216,1.0408647779013962
1761338337363630800,3.469630859375,0.1973912885814905,0.07549611205297987,0.8892534629158675
1761338337373695700,3.47969580078125,0.27075463095605373,-0.18635681221215053,0.6017720074340701
1761338337383762000,3.489761962890625,0.35568449248373507,-0.3196626734446734,0.269324762549717
1761338337393827000,3.4998271484375,0.5094558350473642,-0.2791978304568678,0.16074859769772737
1761338337403892700,3.509892822265625,0.6425929703831672,-0.1495699453510344,0.22264183049835262
1761338337413959000,3.519958984375,0.7493623232752085,-0.08940499764773994,0.18827126753134651
1761338337424023800,3.53002392578125,0.8280132506638764,-0.07496159418432508,-0.038810079784411936
1761338337434090000,3.540090087890625,0.7868190704882144,-0.19082897092383352,-0.4909707686774432
1761338337444154600,3.550154541015625,0.5455494772136211,-0.5992070888495072,-1.1623850521363317
1761338337454220800,3.560220703125,0.2503454646557569,-1.1210639576453716,-1.9906329883389173
1761338337464286700,3.57028662109375,0.1344108085334301,-1.5442882739819586,-2.7967861432418224
1761338337474351900,3.580351806640625,0.10153437484800815,-1.8069274030216038,-3.567650104229152
1761338337484417800,3.590417724609375,0.0537614008039236,-2.0656679171875116,-4.097461621823907
1761338337494482700,3.600482666015625,-0.09200959065556526,-2.2740077391542495,-4.372868170239031
1761338337504548900,3.610548828125,-0.4077367512822151,-2.3422743429116903,-4.6254941470474
1761338337514613800,3.62061376953125,-0.8978297142118215,-2.208955421268195,-4.798556465536356
1761338337524680000,3.630679931640625,-1.4585025262773037,-1.7483575790226458,-4.436760796695947
1761338337534745900,3.640745849609375,-1.9465286198049783,-1.1511076521228998,-3.2951755176126953
1761338337544810800,3.650810791015625,-2.2479788332760333,-0.8301672868926078,-1.8883517406463621
1761338337554877000,3.660876953125,-2.3651982685118913,-0.9695515729896723,-0.9348756886668502
1761338337564941800,3.67094189453125,-2.3549089296877384,-1.3837984368182719,-0.5218577455786988
1761338337575008000,3.681008056640625,-2.260769341266155,-1.3766552870653568,-0.5258125841517001
1761338337585074000,3.691073974609375,-2.0338100128948686,-0.1493986804373562,-0.06789101647727656
1761338337595138800,3.701138916015625,-1.5845038183838127,0.8596238291319459,1.0109937365770338
1761338337605204700,3.711204833984375,-1.1258189701527357,0.7603457818433642,1.9212321198545395
1761338337615270000,3.721269775390625,-0.4591501276552677,1.1782982221916318,2.2743249884098766
1761338337625335800,3.731335693359375,0.027796938464045524,1.5240315217643976,2.2893248430125412
1761338337635402000,3.741402099609375,0.08500234224200248,1.540966874474287,2.3339831921674308
1761338337645467000,3.751466796875,0.10767769990861416,1.1863026649489998,2.2810218557000157
1761338337655532800,3.76153271484375,0.19317980836629867,0.8576288559224456,2.0452863695465027
1761338337665598000,3.771597900390625,0.2821592375457287,0.5813771619200706,1.7573790898680686
1761338337675664000,3.781663818359375,0.2287532260507345,0.21089111388474702,1.611151732943207
1761338337685729800,3.791729736328125,-0.1522965938359499,-0.015324702642858028,1.7099512759998439
1761338337695795000,3.801794921875,-0.9701736504107713,0.08339012127239256,1.7467007517263293
1761338337705860900,3.81186083984375,-2.141095498615503,0.3302582286737859,1.3232356854364276
1761338337715926000,3.821926025390625,-3.1556168247967955,0.7051369587101042,0.4377656135167926
1761338337725992000,3.831991943359375,-3.513834050628543,1.0837182695914058,-0.4401593037202954
1761338337736057900,3.842057861328125,-3.0760131267279385,1.4307900512263179,-1.0323926445670426
1761338337746122800,3.852122802734375,-1.953224318051338,1.722366520936787,-1.114983541753143
1761338337756189000,3.86218896484375,-0.4879232176750898,1.9460224238485098,-0.5644667244557291
1761338337766253800,3.87225390625,1.0145236642688513,2.0099116893045603,0.3779429764451459
1761338337776319700,3.88231982421875,2.1982424502044915,2.072312177507579,1.2113125299777834
1761338337786385700,3.8923857421875,2.8708044423937795,2.0471753981634975,1.589315018057823
1761338337796450800,3.902450927734375,3.2977491674929857,1.9875380910634994,1.824139672976732
1761338337806517000,3.91251708984375,3.6485347820192575,1.7908267475701867,1.8810276813685893
1761338337816582000,3.922581787109375,3.8773949755758044,1.576855349457264,1.7369821985274552
1761338337826647800,3.932647705078125,4.02445834493339,1.4465749187268315,1.4710016501054166
1761338337836713000,3.942712890625,3.9890696361660956,1.3424614871710538,1.2189732738640158
1761338337846779000,3.95277880859375,3.753988376137614,1.194892506378889,1.0480344503350556
1761338337856844800,3.9628447265625,3.361749053716659,1.1564169375121593,0.9293961612772196
1761338337866909700,3.97290966796875,2.942188593649864,1.1947953296147287,0.8056217514399439
1761338337876975900,3.982975830078125,2.4531553689062595,1.1866418337754905,0.7163863747380673
1761338337887040800,3.993040771484375,1.8643343207210301,1.2060508831225334,0.7344758659191429
1761338337897107000,4.00310693359375,0.8273200077027082,1.2529856527768075,0.7567392087187618
1761338337907171800,4.013171875,-0.4514198256641626,1.272406684822589,0.8075238587342202
1761338337917237800,4.02323779296875,-1.587311861541867,1.2151062231723218,0.9622469490647315
1761338337927303000,4.033302978515625,-2.4806629690349102,1.175711201373115,0.9921887175377457
1761338337937367600,4.043367431640625,-2.98865282318294,1.0923054806727914,0.8866880694072693
1761338337947432400,4.053432373046875,-3.018648732995987,0.9948722575332969,0.670953168753162
1761338337957498600,4.06349853515625,-2.622756148764491,0.9029561903800815,0.3516211885675788
1761338337967564500,4.073564453125,-2.0916344253540036,0.6834707780860364,0.001980177499167621
1761338337977629700,4.083629638671875,-1.494513166335225,0.34347587603479623,-0.3375655560124665
1761338337987695600,4.093695556640625,-0.903951411962509,-0.0693241865189746,-0.6541251488752663
1761338337997760500,4.103760498046875,-0.31867256642878056,-0.41093825073726475,-0.9459629729356617
1761338338007826700,4.11382666015625,0.2778226696461439,-0.6035860345860943,-1.143019403539598
1761338338017892600,4.123892578125,0.8309732695132493,-0.7348469642538576,-1.1253118974134326
1761338338027957800,4.133957763671875,1.2066507487118243,-0.8424513797305524,-0.9313114933792501
1761338338038023700,4.144023681640625,1.406464296004176,-0.8918496168889105,-0.7502263196934014
1761338338048088600,4.154088623046875,1.462351018399,-0.8391244272649288,-0.643307840654254
1761338338058154500,4.164154541015625,1.4234820663005112,-0.8060729292735457,-0.6238720494307577
1761338338068220700,4.174220703125,1.205724281516671,-0.8651707957345992,-0.6477415122527629
1761338338078285600,4.18428564453125,0.8255535825520753,-0.97905582585074,-0.7890567664124071
1761338338088351500,4.1943515625,0.5925584811478853,-1.0340280637491495,-0.8006147369328885
1761338338098416600,4.204416748046875,0.4561082757413387,-1.055326799300313,-0.8474864512883126
1761338338108482600,4.214482666015625,0.34485271734595296,-1.10595085192658,-0.8387236644443125
1761338338118547700,4.224547607421875,0.26700609207749365,-1.1454762221071868,-0.7355619075901806
1761338338128613600,4.234613525390625,0.2747860784292221,-0.8722741979990154,-0.605260580202192
1761338338138679600,4.244679443359375,0.23525135589838025,-1.1082659970011561,-0.5358793662663549
1761338338148744700,4.25474462890625,-0.08426642918288707,-1.231107875228673,-0.5421369288237765
1761338338158810600,4.264810546875,-0.37364100493490693,-0.9717112352415919,-0.743436513422802
1761338338168875800,4.274875732421875,-0.4611100295513868,-1.009167324867472,-0.8399068828795104
1761338338178941400,4.28494140625,-0.567097876676917,-1.1206453669071197,-0.9344861778926103
1761338338189007600,4.295007568359375,-0.7017857485860586,-1.164372718822211,-1.0137358748920262
1761338338199072500,4.305072509765625,-0.856554285493493,-1.197894464673847,-0.9077329032626003
1761338338209138700,4.315138671875,-1.0041343722015619,-1.211107874251157,-0.6963774598017335
1761338338219203600,4.32520361328125,-1.3461620952546596,-1.0429963100373745,-0.4015859005022794
1761338338229269500,4.33526953125,-1.7676929786115885,-0.7502646789424121,-0.2154201356165111
1761338338239335400,4.34533544921875,-1.859375821530819,-0.6895802739422768,-0.16279846116593108
1761338338249400600,4.355400634765625,-1.7837386890053748,-0.8676135857768357,-0.4702615234520286
1761338338259466800,4.365466796875,-1.684467582914233,-1.0959958596233277,-0.9657372023332863
1761338338269531400,4.375531494140625,-1.584197528913617,-1.0560922307148575,-1.4157865433618426
1761338338279597600,4.38559765625,-1.5188076496362686,-0.7156275191947817,-1.6171749387554823
1761338338289663500,4.39566357421875,-1.526902693286538,-0.5054224513454363,-1.3459443608507513
1761338338299729700,4.405729736328125,-1.3924036219477653,-0.11074819339513778,-0.5230402698941529
1761338338309794600,4.415794677734375,-1.3285334995836018,0.22995982536152004,0.6130874013703316
1761338338319860700,4.42586083984375,-1.5190841284900902,0.24002726506330072,1.7901228370845317
1761338338329926400,4.435926513671875,-1.8992817154616117,0.22397910698410123,2.6944141485258934
1761338338339991600,4.445991455078125,-2.306997423955798,0.4345607895934954,3.091704032334685
1761338338350057700,4.4560576171875,-2.5557582497686147,0.7719578937038779,3.1191473350554704
1761338338360122600,4.46612255859375,-2.6477877141684294,1.03785025238581,3.0317338400185108
1761338338370188800,4.476188720703125,-2.477680738353729,1.2579027970433234,3.0702728295102713
1761338338380254500,4.48625439453125,-2.0690864934593436,1.3736309708081185,3.1484929642662403
1761338338390319600,4.496319580078125,-1.513905264547467,1.338713386683911,3.1069863571405407
1761338338400385500,4.506385498046875,-0.9226894301801919,1.2445347814261913,2.770274276152253
1761338338410450700,4.51645068359375,-0.36055122173726556,1.1383080840434878,2.1855257381029425
1761338338420516600,4.5265166015625,0.1988777277469635,1.025162254922092,1.4770330392241477
1761338338430582500,4.53658251953125,0.7896352969527244,0.9581651596438139,0.7823802843231707
1761338338440647700,4.546647705078125,1.445778653782606,0.9021635786976665,0.19221012308392674
1761338338450713600,4.556713623046875,2.1465964341193438,0.8226568381972611,-0.31150117696207014
1761338338460778800,4.56677880859375,2.7613158936709166,0.8312044479206204,-0.6498769168462604
1761338338470844400,4.576844482421875,3.13406784081161,0.8482920685827732,-0.8247541027374565
1761338338480910600,4.58691064453125,3.225166161841154,0.7363294578965753,-0.8187792661115527
1761338338490975700,4.596975830078125,3.0742151373952624,0.5220177584460005,-0.6674085549488663
1761338338501041700,4.607041748046875,2.7817081088364124,0.2653240938073024,-0.449114580929093
1761338338511106600,4.6171064453125,2.425531448921561,0.029191023170948027,-0.1594763492722064
1761338338521172500,4.62717236328125,1.8712690884202718,-0.19655366871356963,0.20066859321910888
1761338338531237600,4.637237548828125,1.0701333232879637,-0.3106539124829694,0.5441062926679849
1761338338541303600,4.647303466796875,0.058825113934278486,-0.1850820430359803,0.8340499004796147
1761338338551369700,4.65736962890625,-1.0961632520794868,0.11757959205145016,1.113253795351088
1761338338561434600,4.6674345703125,-2.0672271293282507,0.29192842495329674,1.370256964330375
1761338338571500500,4.67750048828125,-2.5520173096746204,-0.08002833495540544,0.9877888020783662
1761338338581565700,4.687565673828125,-2.8987884278625247,-0.30502788929473607,-0.09814195593073964
1761338338591631600,4.697631591796875,-3.2901866232842205,0.15506974834371356,-0.5767611925572157
1761338338601697800,4.70769775390625,-3.195596368485689,0.1393531237738207,-0.4857451795162633
1761338338611762400,4.717762451171875,-2.371931376159191,0.3331477761028334,-0.3382788919135928
1761338338621828600,4.72782861328125,-1.1724509574681519,0.6032670317647978,-0.2131282983522862
1761338338631893800,4.737893798828125,0.07598901470303535,0.5691032251499593,0.0442723089793697
1761338338641959700,4.747959716796875,1.1370219166904687,0.46250144737716764,0.3098061000145972
1761338338652025600,4.758025634765625,1.9287527246177196,0.4069744982054457,0.48636784145925194
1761338338662090500,4.768090576171875,2.4888193874835967,0.297662511625886,0.6697532183788717
1761338338672156700,4.77815673828125,2.816429293605685,0.10935441008233465,0.7838147741056978
1761338338682221600,4.7882216796875,2.9130414096206425,-0.10332365115126595,0.8002921539150178
1761338338692287700,4.798287841796875,2.7907126685470343,-0.3167984065873548,0.7037266535207629
1761338338702353700,4.808353759765625,2.4516513940840956,-0.4584324443725869,0.49089112756997344
1761338338712418600,4.81841845703125,2.0558155084758996,-0.5422902196893468,0.25454978447780013
1761338338722484500,4.828484375,1.670612660562992,-0.6492435143135488,0.058367506359890096
1761338338732549600,4.838549560546875,1.2059253570467232,-0.7073817419622093,-0.12747538324706256
1761338338742615800,4.84861572265625,0.5786474446952342,-0.6320891120254993,-0.2962942920126021
1761338338752681500,4.858681396484375,0.0881429783552885,-0.380693407664448,-0.3368996394496411
1761338338762746600,4.86874658203125,-0.35124446420967576,-0.1785579384968616,-0.13530688059031962
1761338338772812500,4.8788125,-0.7222919455200433,-0.1384471879100427,0.18654818833209574
1761338338782877700,4.888877685546875,-0.9908119492918253,-0.1226147001418285,0.36174086991325016
1761338338792943600,4.898943603515625,-1.145070783111453,-0.1412785388784483,0.28318660783208904
1761338338803009500,4.909009521484375,-1.170671672835946,-0.28579445224292577,0.12023228025101125
1761338338813074700,4.91907470703125,-1.0230407327234745,-0.4422173322286457,0.029307196896523235
1761338338823140600,4.929140625,-0.7739011367261409,-0.521438460720703,-0.011578209590911865
1761338338833205800,4.939205810546875,-0.48721653071045873,-0.583508694056049,-0.040742710081115366
1761338338843271400,4.949271484375,-0.19408347920775412,-0.6685037297744304,-0.10761471767500043
1761338338853337600,4.959337646484375,-0.00036298809349536896,-0.6150633045531809,-0.10045505517870187
1761338338863402500,4.969402587890625,0.01469020413160324,-0.7268387221042066,-0.3512842116981745
1761338338873468700,4.97946875,-0.16602701302468775,-1.5353198084980249,-1.3845439944885671
1761338338883533800,4.989533935546875,-0.4379167854905128,-2.8317104493677614,-3.3315395011529323
1761338338893599500,4.999599609375,-0.913916341137886,-3.1114450901150703,-4.892358784827589
1761338338903665700,5.009665771484375,-1.6352344731897115,-2.9229221676439043,-5.251394925826788
1761338338913730600,5.01973046875,-2.3200088812202213,-2.4002862407669423,-4.486350172512233
1761338338923796700,5.029796630859375,-2.7322593105345963,-1.5842168181359766,-3.104306324276328
1761338338933861600,5.039861572265625,-2.852399601653218,-0.7444900410637258,-1.624060168224573
1761338338943927800,5.049927734375,-2.6300340308129786,0.6440369586464018,-0.025053192713856694
1761338338953993700,5.05999365234375,-2.2689468025028705,1.3393234814062713,1.4692431160002946
1761338338964059000,5.070058837890625,-1.6967717686921358,1.3996695212975143,2.510422732004523
1761338338974124800,5.080124755859375,-0.7301029115319252,1.8756649852916598,2.947079872822761
1761338338984189700,5.090189697265625,0.13779226766526698,1.8808567087158559,2.9237706011667846
1761338338994256000,5.100255859375,0.6990747360616922,1.1482323158822954,2.585896198400855
1761338339004320800,5.11032080078125,0.9532990879774093,0.3525286222686991,2.0939237053349613
1761338339014387000,5.120386962890625,1.0633324111014604,0.09206427998486906,1.5354852281928062
1761338339024452900,5.130452880859375,1.0293442167818545,0.1310367289904505,1.1423352206677198
1761338339034517800,5.140517822265625,0.8444751406431198,0.07335314977411181,1.1234341208428145
1761338339044583700,5.150583740234375,0.6593658260077238,0.05899630578272044,1.3208230713367461
1761338339054648800,5.16064892578125,0.3395926048606634,0.38764662433583286,1.3059784072957932
1761338339064715000,5.170715087890625,-0.3654711424827575,0.8998460224702953,1.0786319793030619
1761338339074781000,5.180781005859375,-1.3263093937933443,1.0898517308451234,0.5221129624487831
1761338339084845800,5.190845703125,-1.8600719871014355,1.165370497687906,-0.1746772428723052
1761338339094911700,5.200911865234375,-1.8322955069035292,1.4703871714688836,-0.5510711632445454
1761338339104977000,5.210976806640625,-1.2559627688914536,1.8433901707611977,-0.7105906940713524
1761338339115042800,5.221042724609375,-0.3557522970229387,2.085796220719814,-0.46969219913147386
1761338339125109000,5.23110888671875,0.5354325723469257,2.048467629931122,0.19004647877663372
1761338339135174000,5.241173828125,1.3494950390696525,1.9909332864597438,0.6954551573250443
1761338339145239800,5.25123974609375,1.8874539150238037,1.9620165501855313,0.9357485259786248
1761338339155305000,5.261304931640625,2.2642986844360826,1.9503784271009266,1.1045613703295587
1761338339165371000,5.271370849609375,2.6916946604341265,1.9457788243509828,1.1547001967221497
1761338339175436800,5.281436767578125,3.0880542776554822,1.7771378294356166,0.9747150932326912
1761338339185501700,5.291501708984375,3.350851812127232,1.5229624312281607,0.6655361121404916
1761338339195567900,5.30156787109375,3.439924764809012,1.1937709550030529,0.18092293232884257
1761338339205633000,5.311633056640625,3.411457379737496,0.7891485363490879,-0.4002501218538731
1761338339215699000,5.321698974609375,3.2833360267370937,0.3658641603883356,-0.8946269726477563
1761338339225763800,5.331763916015625,2.969154926508665,0.10109569116979837,-1.1216802629128098
1761338339235829800,5.341829833984375,2.2000568061500787,-0.08890493917111307,-1.0109905217066406
1761338339245896000,5.35189599609375,1.112104917576909,-0.2014458246693015,-0.6079720676505938
1761338339255960800,5.3619609375,-0.17763561775386333,-0.049666642303578555,-0.15607483373302966
1761338339266026800,5.37202685546875,-1.6373293996423481,0.36678149442896246,0.21699534904398024
1761338339276092000,5.382091796875,-3.031706952011585,0.8413888650655746,0.4871172715870663
1761338339286157800,5.39215771484375,-4.029333257493376,1.1362106003075838,0.557605606514588
1761338339296224000,5.40222412109375,-4.370210056945681,1.0520258580587805,0.3253208453368395
1761338339306289000,5.412288818359375,-3.895469561448693,0.8078507526010275,-0.04193323503993451
1761338339316354800,5.422354736328125,-2.968136104854941,0.808207895475626,-0.03163454386554658
1761338339326419700,5.432419677734375,-1.879472853142023,0.7621035852961242,0.28972967280000445
1761338339336486000,5.44248583984375,-0.6661018562644719,0.5034059604238719,0.5779916842002422
1761338339346551800,5.4525517578125,0.5173223306387662,0.2494737233225256,0.7188568565048277
1761338339356616700,5.46261669921875,1.4192939669609068,-0.03814062869078479,0.6819174111641944
1761338339366683000,5.472682861328125,1.9471844533652065,-0.2724347295301035,0.5316116623518988
1761338339376747800,5.482747802734375,2.2832009533047675,-0.39991635985486207,0.3469850166669115
1761338339386814000,5.49281396484375,2.464299863255024,-0.4789094517447054,0.2582682022127323
1761338339396880000,5.5028798828125,2.4139953249067068,-0.5784286143127828,0.25577054017810147
1761338339406944800,5.51294482421875,2.300333874413371,-0.6927380073208361,0.3053156019286252
1761338339417010700,5.5230107421875,2.1621540687352416,-0.7572430665876716,0.3632767742436379
1761338339427075800,5.533075927734375,1.8407465243846177,-0.6926795551318675,0.3852001444991678
1761338339437142000,5.54314208984375,1.331878718358278,-0.4900044809285551,0.3415756684366613
1761338339447208000,5.5532080078125,0.8343237489849329,-0.2782423746292479,0.324152020753175
1761338339457272800,5.56327294921875,0.3580564823120832,-0.09044878934593871,0.32226865469198673
1761338339467338800,5.5733388671875,-0.23425123894512653,0.07692746459692716,0.4114767049955204
1761338339477404000,5.58340380859375,-0.917387232118845,0.20059972923398017,0.5166327409394085
1761338339487469800,5.5934697265625,-1.7197849800109861,0.2974542757026851,0.5833933240480721
1761338339497536000,5.603535888671875,-2.4373703552752732,0.38185419507212937,0.5381964841023087
1761338339507601000,5.613600830078125,-2.842209631550312,0.3855758459437638,0.49018860532380637
1761338339517666800,5.623666748046875,-2.9094080215543507,0.3223690097939223,0.4233536783372983
1761338339527732000,5.63373193359375,-2.7138614840567112,0.23614333630204198,0.34400618351921436
1761338339537798000,5.6437978515625,-2.3978759647548196,-0.2127360841643065,0.02204926165752113
1761338339547862800,5.65386279296875,-1.9553899716526268,-1.5883794907733797,-1.1284334635000675
1761338339557928700,5.6639287109375,-1.361178462600708,-2.206308413890749,-3.107359282106161
1761338339567995000,5.673994873046875,-0.7306698977649212,-1.1553440475836396,-4.7063525213524695
1761338339578060000,5.68406005859375,-0.286679345318675,-0.9570698386877775,-5.005874689370393
1761338339588126000,5.6941259765625,0.22447569486200808,-1.5806845523566007,-4.155693738301098
1761338339598190800,5.70419091796875,0.982882325336337,-0.9521017679516226,-2.833895684452355
1761338339608256800,5.7142568359375,1.4551590610682963,-0.18680983494296668,-1.4731133815623818
1761338339618323000,5.724322998046875,1.3329168292343616,-0.31313239489309486,-0.5758646821089088
1761338339628387800,5.734387939453125,1.046270217141509,-0.7241277826450765,-0.30886512937005606
1761338339638454000,5.7444541015625,0.8847913689404725,-0.9211659469399601,-0.32923414632305503
1761338339648519000,5.754518798828125,0.7349830847889185,-1.0082191572971642,-0.39905309408903117
1761338339658584800,5.764584716796875,0.49821197197735306,-1.1743402783460914,-0.43942097950838505
1761338339668650800,5.774650634765625,0.2055395237237215,-1.0608145830616353,-0.5829707512544468
1761338339678716000,5.7847158203125,0.01688625287115574,-0.16332440300248563,-0.541653273492679
1761338339688781800,5.79478173828125,-0.3792372175067663,0.28546430697310715,0.16708384686755015
1761338339698846700,5.8048466796875,-1.1102426308363675,-0.12429554763454943,1.0048547954306006
1761338339708913000,5.814912841796875,-1.9962877992302177,-0.16548223862349987,1.558648661637306
1761338339718978800,5.824978759765625,-2.835903809404373,0.08745441156923771,1.8147750477820634
1761338339729044000,5.8350439453125,-3.6752263895899056,0.39315782550536094,1.8618917498745022
1761338339739109600,5.845109619140625,-4.326390788963437,0.6261485429953784,2.1802914907112716
1761338339749174800,5.8551748046875,-4.717096325945854,0.6979838720850646,2.6456740830153227
1761338339759241000,5.865240966796875,-4.881127196717262,0.5647835353199392,3.1372371184974908
1761338339769307000,5.875306884765625,-4.781652677008509,0.4798141454994678,3.147833331313729
1761338339779371800,5.885371826171875,-4.141158140209317,0.6162007841505109,2.2757615970842537
1761338339789437700,5.895437744140625,-2.809378206050396,0.5805705217123032,0.7043039419520646
1761338339799502800,5.9055029296875,-1.312190267547965,0.4950344013871625,-0.7363038850639015
1761338339809568800,5.91556884765625,0.1013274540990591,0.9170143071532249,-1.1347765489164738
1761338339819635000,5.925635009765625,1.2866495835781098,1.0521039647962898,-0.23305998333394526
1761338339829699800,5.935699951171875,2.185138053959608,1.0957201844871043,1.14487569893077
1761338339839765800,5.945765869140625,2.6777818704158065,0.990710315548256,1.8604270841494202
1761338339849831000,5.955830810546875,2.841030650898814,0.9859736424151807,1.801570552163571
1761338339859896800,5.965896728515625,2.902109681239724,1.0528837900623678,1.2570260142087937
1761338339869961700,5.975961669921875,2.984563508042693,1.0070380577538163,0.6792254686664789
1761338339880027600,5.986027587890625,3.0992636539340017,0.8750441741690039,0.35052930167764423
1761338339890093800,5.99609375,3.196726833820343,0.6026210985440761,0.27106406223140656
1761338339900159000,6.006158935546875,3.2720752125322816,0.3786838944729417,0.2674560278020799
1761338339910225000,6.016224853515625,3.1983833688557146,0.17938109144801273,0.28172588762976225
1761338339920289800,6.026289794921875,2.913675031349063,-0.033283754110988224,0.33545528586022555
1761338339930356000,6.03635595703125,2.370719662281871,-0.009414715980668552,0.48953562130779027
1761338339940422100,6.046422119140625,1.5148130270421505,0.21141829783031715,0.6282461728617549
1761338339950486800,6.05648681640625,0.6157160693734884,0.5181473467534408,0.9101679483897983
1761338339960553000,6.066552978515625,-0.13578911114931105,0.8942822508633136,1.4009008166581391
1761338339970618000,6.0766181640625,-0.7957897279292344,1.226324732605368,1.9909090288013218
1761338339980684000,6.08668408203125,-1.432738554945588,1.4643866158798335,2.6348048984766006
1761338339990750000,6.09675,-2.0017174230635164,1.6936311325788498,3.194892019608617
1761338340000814800,6.10681494140625,-2.397308978521824,1.8114492643602191,3.43431569275558
1761338340010881000,6.116881103515625,-2.493831662687659,1.6662024429053066,3.2266035011678933
1761338340020946000,6.12694580078125,-2.3149603656589983,0.8358918020192533,2.228778019852191
1761338340031012000,6.13701220703125,-1.9844161596506833,-0.6338370516713708,0.10855411741696297
1761338340041078000,6.147078125,-1.3861650198191404,-1.3947677207306026,-2.6969313920438287
1761338340051143000,6.157142822265625,-0.7791442980766295,-1.2732765995249151,-4.956567929887771
1761338340061209000,6.167208984375,-0.27226503551900383,-1.0101310553330927,-5.372769142654538
1761338340071274000,6.17727392578125,0.3890852423042059,-0.36944077676609155,-3.766634799481928
1761338340081340200,6.187340087890625,0.9016232612758874,0.009041165393963456,-1.7040749313123522
1761338340091405800,6.19740576171875,1.0127531474649905,0.008092815160565078,-0.4138232315890491
1761338340101471000,6.207470947265625,0.8948112431734799,0.049216596981137985,0.08101597601957619
1761338340111537000,6.217536865234375,0.7672685668438672,-0.059715815696306525,0.18540325608067212
1761338340121602000,6.22760205078125,0.6915408334255219,-0.3134827792333439,0.30171098329909146
1761338340131668000,6.23766796875,0.6523889727324247,-0.5189850031539798,0.49465595999620854
1761338340141734000,6.24773388671875,0.6003571722000837,-0.6171025552958249,0.6794619077708571
1761338340151799000,6.257799072265625,0.6122375796079635,-0.6695831225089729,0.7417051595855504
1761338340161865000,6.267864990234375,0.6867021612226962,-0.7301043728366494,0.707046518658474
1761338340171930000,6.27793017578125,0.7272159579187631,-0.7780813450202345,0.6481564497292042
1761338340181995800,6.287995849609375,0.657962973472476,-0.7249776774726807,0.613403627712652
1761338340192061000,6.29806103515625,0.5310644402652979,-0.7016029393650591,0.6922389717575163
1761338340202127000,6.308127197265625,0.5230038834065198,-0.6800847158443182,0.809472216323018
1761338340212193000,6.318193115234375,0.5740460883796215,-0.6339311596956103,0.9186440272469073
1761338340222258200,6.328258056640625,0.5793377650469541,-0.638026466185227,1.0252854429103433
1761338340232323800,6.33832373046875,0.5032072960466146,-0.7350311617143451,1.0722684356205165
1761338340242389000,6.348388916015625,0.40040684678554533,-0.806011700605601,1.0332868169277907
1761338340252455000,6.358454833984375,0.2868354126632213,-0.8369562894456088,0.8821844743777066
1761338340262521000,6.36852099609375,0.14217384375035763,-1.0061426432840526,0.6623961336143315
1761338340272586000,6.3785859375,-0.02837912226617336,-1.2820889976643026,0.2884076304160058
1761338340282652000,6.38865185546875,-0.22203999214768408,-1.6205696957603095,-0.3222152805369347
1761338340292717000,6.398717041015625,-0.3755634974300861,-2.3334572685971855,-1.3577949576422572
1761338340302783000,6.408782958984375,-0.6309814430445432,-3.043491790090501,-2.75114521279037
1761338340312849200,6.41884912109375,-1.0763140577495098,-3.1432670463114976,-4.112775803072751
1761338340322913800,6.428913818359375,-1.6799205871343612,-2.5217200788274408,-4.668937275193631
1761338340332980000,6.43897998046875,-2.269225619444251,-1.7695086497314274,-3.9591196113213893
1761338340343045000,6.449045166015625,-2.5252882927030322,-0.8619279413558543,-2.187927684678137
1761338340353111000,6.459111083984375,-2.557476744124293,0.02554578027008101,0.05762881682179868
1761338340363177000,6.469177001953125,-2.587610016581416,0.5443573448196053,2.1504224221482873
1761338340373241900,6.479241943359375,-2.3867156883150336,1.462210294754058,3.6601761199742553
1761338340383308000,6.48930810546875,-1.7735136475890874,1.9708719106838106,4.15192240306884
1761338340393373000,6.499373046875,-0.9664175127476453,1.8270299875907599,3.664537237793207
1761338340403439000,6.509439208984375,-0.3752355806499719,1.5933210388287902,2.9287819995880127
1761338340413505000,6.519505126953125,0.02625204710960388,0.9559732756227254,2.309818472725898
1761338340423570000,6.52956982421875,0.4163590336769819,0.4621314815536141,1.9480672275491058
1761338340433635800,6.5396357421875,0.7231962008833884,0.33081483964323993,1.7072713892661033
1761338340443701000,6.549700927734375,0.7683493478178978,0.28402232800386845,1.5309224503219128
1761338340453767200,6.55976708984375,0.5846791260749101,0.24570651627611367,1.5333746657796203
1761338340463831800,6.569831787109375,0.24572365007400512,0.4257173752613365,1.7985224166393279
1761338340473898000,6.57989794921875,-0.19992928262650966,0.8096510800212621,2.2703725975222886
1761338340483964000,6.5899638671875,-0.6518313388496637,1.3183178105175495,2.765717928022146
1761338340494029000,6.600029052734375,-1.0119476763010025,1.8319344185061752,3.084745591498911
1761338340504095000,6.610094970703125,-1.2145967392802237,2.1797588451392946,3.147893537068367
1761338340514159900,6.620159912109375,-1.1697007819771765,2.105746537336707,2.9180113069877027
1761338340524226000,6.63022607421875,-0.8437421501934528,1.3948524764046073,1.784837736288458
1761338340534292000,6.6402919921875,-0.5055979905754328,0.5750540598457679,-0.09691687111519276
1761338340544357000,6.650357177734375,-0.13324585640728473,1.1536362207524478,-1.6844611531734466
1761338340554422800,6.6604228515625,0.3878156607598066,2.1396746720321476,-1.7354012129463254
1761338340564488000,6.670488037109375,1.0993991652607917,1.9826802757687865,-0.5168463106248528
1761338340574553900,6.680553955078125,1.7851152380555868,1.5870336291223763,0.6561402880899607
1761338340584620000,6.6906201171875,2.0675211438387633,1.366893040855229,1.45744629522264
1761338340594685200,6.700685302734375,2.074610225316882,1.064216354329139,1.6251796737737954
1761338340604750800,6.710750732421875,2.092600055515766,0.7626547894380986,1.2850456555128096
1761338340614816000,6.72081591796875,2.1164730985343456,0.791479974971339,0.6772431357428431
1761338340624882000,6.7308818359375,1.9721715951055288,0.7151285566966981,0.08878237223736941
1761338340634948000,6.740947998046875,1.837661417850852,0.42408100623115896,-0.16009407931175082
1761338340645012700,6.7510126953125,1.8195920926749705,0.15970606637485324,-0.03412606842033565
1761338340655079000,6.761078857421875,1.788531183978915,-0.10385112735778093,0.33244434054121375
1761338340665144000,6.77114404296875,1.4424743515402079,-0.17285620145760475,0.7697275773685425
1761338340675210000,6.7812099609375,0.663489043417573,0.0473432773899287,1.0736714342862368
1761338340685276000,6.79127587890625,-0.376831909930706,0.37270335875861343,1.275448536736518
1761338340695340800,6.8013408203125,-1.590312796923518,0.5910297737432644,1.4441945994615555
1761338340705407000,6.811406982421875,-2.726203663757443,0.737369760729745,1.5948761593163012
1761338340715472000,6.821471923828125,-3.4156028089791532,0.8146548796579242,1.7625167450174688
1761338340725538000,6.8315380859375,-3.599094167023897,0.7543883347436785,1.92104931063354
1761338340735603000,6.84160302734375,-3.4401889687031506,0.5271131453562528,2.0316049040660262
1761338340745668900,6.8516689453125,-2.995757102230191,0.12501731343730352,1.9785840924963354
1761338340755735000,6.861735107421875,-2.298593168225884,-0.1937427942776121,1.8433042460434137
1761338340765800000,6.871800048828125,-1.3446218800753353,-0.34145953124370426,1.7131852894850075
1761338340775866000,6.8818662109375,-0.2866109562575817,-0.45242315748780965,1.624362658302486
1761338340785930800,6.8919306640625,0.6997732397198677,-0.5930172577660531,1.64614749687016
1761338340795997000,6.901996826171875,1.4967448709100484,-0.7670413339592516,1.662823467991501
1761338340806062800,6.912062744140625,2.071581232884526,-1.5787936240434646,1.2607779140882194
1761338340816128000,6.9221279296875,2.47641057228744,-2.950581158941984,-0.11786792573984711
1761338340826194000,6.93219384765625,2.8020342730283736,-2.092777604039758,-1.8042036771461367
1761338340836258800,6.9422587890625,2.7731413560211657,-1.347188077301532,-2.4466870496749875
1761338340846325000,6.952324951171875,2.3510136758148668,-2.5839880266919732,-1.7130999492891132
1761338340856391000,6.962390869140625,1.8837667509436606,-2.6656147550210356,-0.5859766916047782
1761338340866456000,6.9724560546875,1.3334487441539764,-1.908924134684354,0.11422421720894053
1761338340876522000,6.98252197265625,0.5608645352452993,-1.4977742139577865,0.8448217621237039
1761338340886587000,6.9925869140625,-0.3226303641438484,-1.2804628577671944,1.5225862913921475
1761338340896653000,7.002653076171875,-1.1737088485747575,-1.3191687282584608,1.8286948520630597
1761338340906719000,7.012718994140625,-1.8756769679903984,-1.3069209488429128,1.7629909384004772
1761338340916784000,7.0227841796875,-2.3587369635432958,-1.2622579235129057,1.6011344890587031
1761338340926850000,7.03285009765625,-2.5502865403592585,-1.4345615325890482,1.3222643561862408
1761338340936915200,7.042915283203125,-2.416421675270796,-1.6878838210985063,0.9313838279630988
1761338340946981000,7.052981201171875,-2.0902268966436384,-1.9200512395069003,0.4618619438972324
1761338340957047000,7.063047119140625,-1.7304665330231188,-1.9595219568908213,0.07214265973949804
1761338340967112200,7.0731123046875,-1.3615712613105773,-1.5615956748746334,0.045026963271573184
1761338340977178000,7.08317822265625,-1.0188462036430834,-1.099346266029775,0.17673402927163986
1761338340987243300,7.0932431640625,-0.7627841149061918,-0.7171363163225353,0.32686420232132074
1761338340997309200,7.10330908203125,-0.503435844105482,-0.20960253537893295,0.5832913615109399
1761338341007375000,7.113375,-0.30965339367091654,-0.18344682478327304,0.7941196027599274
1761338341017440000,7.12343994140625,-0.2140051542520523,-0.6675239980220794,0.7746326658710837
1761338341027506200,7.133506103515625,-0.2480073770970106,-0.9734658238239586,0.7564337960314005
1761338341037571000,7.143571044921875,-0.4165542639881372,-1.1937354452982545,0.897264262348786
1761338341047637000,7.153636962890625,-0.6633195320695638,-1.3328104462504387,1.2396008321553469
1761338341057702100,7.1637021484375,-0.8074065159648657,-1.2986246835321187,1.8145206346295772
1761338341067768000,7.17376806640625,-0.893942059123516,-1.125216766475886,2.5511943028539417
1761338341077834200,7.183834228515625,-1.0387088419765234,-0.7025804060950875,3.3141254250153898
1761338341087899100,7.193899169921875,-1.4105068493932484,0.06061250880770385,3.9443338378608224
1761338341097965000,7.203965087890625,-2.0430401980549098,0.9308158918820321,4.308232616460323
1761338341108030200,7.2140302734375,-2.4946885717779397,1.7147756274163721,4.473368818125128
1761338341118096100,7.22409619140625,-2.2474019101709124,2.3726526761710645,4.1087066539376975
1761338341128162000,7.234162109375,-1.3010218078017235,2.634699392275512,3.272853795689344
1761338341138227000,7.24422705078125,0.12864099296033382,2.226450307556987,2.184643402310461
1761338341148293000,7.254293212890625,1.7331231850117443,1.553591085986793,1.1897208028294146
1761338341158358000,7.26435791015625,3.0210370894372462,0.9645430971778929,0.6038182724393903
1761338341168424200,7.274424072265625,3.7083179273307323,0.38258199789002534,0.400417806570977
1761338341178490000,7.284489990234375,3.7234441847920414,0.1800995967146009,0.4571775124080479
1761338341188555000,7.294554931640625,3.0729677676826714,0.40111251083686944,0.6363438468605279
1761338341198621000,7.304620849609375,2.258919329485297,0.23285057836696504,1.1074519772045313
1761338341208686000,7.31468603515625,1.5220225200295447,-0.0726608018620871,1.7504563048675654
1761338341218752300,7.324752197265625,0.862345143854618,-0.33010800654813643,2.2920025377891955
1761338341228818200,7.334818115234375,0.1504085881322622,-0.5078860649799928,2.6207050614535805
1761338341238883000,7.344883056640625,-0.6616805326908827,-0.46266832837667315,2.7213708367735148
1761338341248949000,7.354948974609375,-1.4673054259359837,-0.15284197102533653,2.8685443885073063
1761338341259014100,7.36501416015625,-2.026865892845392,0.2491827044866979,3.1790842096239325
1761338341269080000,7.375080078125,-2.2205197484642265,0.5735263753544538,3.4885517253339287
1761338341279146200,7.385146240234375,-2.0971797845214604,0.8523262194696813,3.523874675388634
1761338341289211100,7.395211181640625,-1.6405997996151447,1.110897076157108,3.3288679438561197
1761338341299277000,7.405277099609375,-0.8617717278808354,1.1598987882785499,2.838452909365296
1761338341309342200,7.41534228515625,0.01167816283404827,0.8476007253177463,1.9391618904292582
1761338341319408000,7.425408203125,0.6384744291484356,0.5630008896868676,0.922108926878497
1761338341329474300,7.435474365234375,0.9769061735361814,0.37591987311970443,0.09501227960288525
1761338341339539000,7.4455390625,1.0473533362030982,0.059378162973467256,-0.399182638752833
1761338341349605000,7.455605224609375,0.9179407743483782,-0.27713430378949266,-0.6222131032425909
1761338341359670300,7.465670166015625,0.5119038127213716,-0.4915167121224105,-0.7730238424349576
1761338341369736200,7.475736083984375,-0.051370121753215786,-0.6322524858936667,-0.90763090419285
1761338341379801000,7.485801025390625,-0.815994311568141,-0.7431045780546963,-0.9908131183356046
1761338341389867000,7.495866943359375,-1.8374837231963872,-0.6666157971359788,-0.7225584875017405
1761338341399933200,7.50593310546875,-2.7664538410812614,-0.5188889223683625,-0.08693374869599937
1761338341409998000,7.515998046875,-3.3553052844047544,-0.308244403655827,0.541685495261848
1761338341420064300,7.526064208984375,-3.388900680014491,-0.1395483906175941,0.9872032572753727
1761338341430129200,7.536129150390625,-2.8577386245936154,-0.04317658616453409,1.3504217985257505
1761338341440195000,7.546195068359375,-1.970958712184429,-0.0731890817862004,1.6248082101128996
1761338341450261000,7.556260986328125,-0.9124754946798086,-0.1511112199762836,1.8129153913900256
1761338341460326100,7.566326171875,0.046781040397286415,-0.20244784131869673,1.9601351203531026
1761338341470392000,7.57639208984375,0.6631833384692668,-0.3406924558613449,2.0348659516885874
1761338341480457000,7.58645703125,1.0478285524994135,-0.46554519898723806,2.3395336659014223
1761338341490523100,7.596523193359375,1.4185469479858874,-0.4732547504512593,2.4998171668380498
1761338341500589000,7.606589111328125,1.6426532250136137,-0.29415143476501104,2.514570791594684
1761338341510654200,7.616654296875,1.6333599114894866,-0.06810620729764923,2.5192975278556347
1761338341520720100,7.62672021484375,1.5346359178870916,0.013847780224401503,2.471550565035641
1761338341530785000,7.636784912109375,1.3189648762494326,0.07666417401824147,2.412383651926368
1761338341540851200,7.646851318359375,0.8825292692273855,-0.005811864616535604,2.2704104453146456
1761338341550917000,7.656917236328125,0.3900064488023519,-0.15866309666056186,2.0128119407907126
1761338341560982000,7.66698193359375,-0.06867956847250462,-0.27619824678208676,1.6643294886402784
1761338341571048000,7.6770478515625,-0.42668636642396446,-0.3779921493491158,1.3609119206190108
1761338341581113000,7.687113037109375,-0.6446931575328111,-0.4608209469443187,1.2192233761675655
1761338341591179000,7.697178955078125,-0.7384890470832586,-0.3674694036278873,1.0865220019005237
1761338341601245200,7.7072451171875,-0.844483908471465,-0.24491109158210456,1.0205610447369515
1761338341611310000,7.71731005859375,-1.0349433519631623,-0.30734738175086673,1.108731714816764
1761338341621376000,7.7273759765625,-1.2133645671367645,-0.30577720982469614,1.2486635517939924
1761338341631441200,7.737441162109375,-1.3384294551759957,-0.27628303898870943,1.3147190553732215
1761338341641507000,7.747507080078125,-1.3899240800917148,-0.24212789060436188,1.3668413106679915
1761338341651573200,7.7575732421875,-1.2363187417447565,-0.20451675654724238,1.3932580468200146
1761338341661638100,7.76763818359375,-0.8977700929790735,-0.18094949154220522,1.2973432654194532
1761338341671704000,7.7777041015625,-0.39988720682561396,-0.2265375227626413,1.0415995949819683
1761338341681769200,7.787769287109375,0.1691752479225397,-0.4832320641841739,0.5429331937680021
1761338341691835100,7.797835205078125,0.745465315836668,-1.0623352898228913,-0.332168227013573
1761338341701900000,7.807900146484375,1.1918594222933054,-1.8210729788824915,-1.5345859412655234
1761338341711966000,7.817966064453125,1.4238479770034551,-2.0893607813335953,-2.3557731453016397
1761338341722032000,7.8280322265625,1.4328531212359665,-1.717795267498493,-2.145718628371507
1761338341732097000,7.838096923828125,1.3951795164018868,-1.3106905305095016,-1.0877174952954054
1761338341742163200,7.8481630859375,1.3374644095361232,-1.1454017686314881,-0.00452971585150808
1761338341752228000,7.85822802734375,1.143431199210882,-1.454464064541459,0.44353236034996807
1761338341762294000,7.8682939453125,0.6990367421388626,-1.8244725581929087,0.48371904398351906
1761338341772360200,7.878360107421875,0.18299919061362743,-1.7463930009514093,0.6107123428020625
1761338341782425000,7.888425048828125,-0.1863064154654741,-1.0004223659411071,1.3577961266860366
1761338341792491300,7.8984912109375,-0.4412292710393667,-0.47826311666518445,2.3974551089942455
1761338341802556200,7.90855615234375,-0.6560130084484815,-0.3779005620755255,3.1150755555719134
1761338341812622000,7.9186220703125,-0.7139712764203549,-0.04226260399161838,3.398186687014997
1761338341822688000,7.92868798828125,-0.599571574780345,-0.1269300334571395,3.3400147762924433
1761338341832753200,7.938753173828125,-0.5542892485082149,-0.39554106738008554,3.1727672815620895
1761338341842819300,7.9488193359375,-0.47908524670302866,0.11592226243163459,2.8724215222015976
1761338341852884000,7.958884033203125,-0.2684106981784105,0.611001900333166,2.471483929540217
1761338341862950100,7.9689501953125,-0.12060440149903297,0.44035332845505326,2.213538072883338
1761338341873016000,7.97901611328125,-0.12749474553465842,-0.08241078224568628,1.9531471611618993
1761338341883081200,7.989081298828125,-0.2270277174323797,-0.4355613449381664,1.6629560083299875
1761338341893147000,7.99914697265625,-0.4606389049082994,-0.44571693784743543,1.6489122854083775
1761338341903212000,8.0092119140625,-0.6600023703455925,-0.4086212059665471,1.9825698011316357
1761338341913277200,8.019277099609376,-0.7631383351713419,-0.29799055627016346,2.4914421372026205
1761338341923343000,8.029343017578125,-0.463922164362669,0.9511335805065929,3.3760011586919423
1761338341933409500,8.039409423828126,-2.6399878540724515,0.41753728367611764,3.9130344442337748
1761338341943474400,8.049474365234374,-4.100520424872636,0.0035185112486593425,3.836483703994751
1761338341953540600,8.05954052734375,-4.167036677831411,1.289051822414249,3.341623088271916
1761338341963605500,8.06960546875,-3.275644887712598,2.2632176112011075,2.563020349726081
1761338341973671400,8.07967138671875,-1.7681483211636542,2.368516307018697,2.099989288984239
1761338341983737300,8.0897373046875,-0.16126432866752147,2.1131386934146286,1.8100960961855947
1761338341993802500,8.099802490234374,1.1660422594696283,1.9156546119831501,1.4546172092765568
1761338342003868700,8.10986865234375,2.0772546023458243,1.7231825134947896,1.090801871176809
1761338342013933300,8.119933349609376,2.5740228052556513,1.4513567461758852,0.8042135651424527
1761338342023999500,8.12999951171875,2.6587439924687146,1.1244852373309433,0.6116591951981186
1761338342034064600,8.140064697265625,2.5130495733767746,0.8062580765821039,0.5936218360630795
1761338342044130600,8.150130615234374,2.3601643659979104,0.728798039478436,0.7755792990714311
1761338342054196500,8.160196533203125,2.2105922286897894,0.9331407546330243,0.9371313586391508
1761338342064261400,8.170261474609376,1.9554080918312071,1.1631651696633547,1.0652859563220292
1761338342074327600,8.18032763671875,1.4714046779483556,1.2619624476976692,1.1276664977155626
1761338342084392400,8.190392333984375,0.8464332889735698,1.287443656565249,1.112863626989722
1761338342094458600,8.200458740234374,0.09897767610251904,1.3130419159412383,1.050764240625128
1761338342104524300,8.210524169921875,-0.5185170933812856,1.3162500643327832,0.9952098919898271
1761338342114589400,8.22058935546875,-0.9099217185437679,1.3041142208591103,1.0552427012134342
1761338342124655400,8.2306552734375,-1.071246252965927,1.4105511269263922,1.1502615566875785
1761338342134720500,8.240720458984375,-1.040563529932499,1.5303189314708112,1.2793920136652885
1761338342144786400,8.250786376953124,-0.9903530996084212,1.501393281237781,1.3318730192698538
1761338342154852400,8.260852294921875,-0.9480079958319664,1.3482375863544642,1.3657881483532488
1761338342164917500,8.27091748046875,-0.7592816597431897,1.1162968163087963,1.217861220968887
1761338342174983400,8.2809833984375,-0.4626689494311809,0.900773658709228,0.9927820803210139
1761338342185048600,8.291048583984375,-0.03412380339801311,0.7339264153428375,0.8710067353464662
1761338342195114500,8.301114501953125,0.4327911130398512,0.592674837536551,0.8280166116647422
1761338342205180400,8.311180419921875,0.8528688749790191,0.3351926894012838,0.814027906865999
1761338342215245600,8.32124560546875,1.077093225428462,0.0038076121220365165,0.719073567995429
1761338342225311500,8.3313115234375,1.1553688897639511,-0.2571759499966167,0.5344124355189502
1761338342235376400,8.34137646484375,1.1095260069996118,-0.5082832841366529,0.34834698920249935
1761338342245442300,8.3514423828125,1.012595911076665,-0.7331620068415999,0.27840580329634246
1761338342255508500,8.361508544921875,0.9989110845953225,-0.8567515616312622,0.30806846256703135
1761338342265573400,8.371573486328124,1.0071960978597403,-0.9012818274270743,0.38426016023531556
1761338342275639600,8.3816396484375,1.051907930767536,-0.9448495318010449,0.4315369482602924
1761338342285704400,8.391704345703126,1.0875064828932284,-1.124492397724092,0.40423962988145645
1761338342295770400,8.401770263671875,1.1139648662298918,-1.4489626906462012,0.06499057776145636
1761338342305836500,8.41183642578125,0.9571686228871344,-1.6316477007441221,-0.7342685067787766
1761338342315901400,8.4219013671875,0.6201718797385692,-1.8805016116678714,-1.523679201195389
1761338342325967600,8.431967529296875,0.11352350332736968,-2.14078453297019,-2.020493435204029
1761338342336032500,8.442032470703126,-0.3681096742928028,-2.2592878705367445,-2.37305190462172
1761338342346098400,8.452098388671875,-0.8102560601770877,-2.2872207103401423,-2.311517970120162
1761338342356164400,8.462164306640625,-1.2536556609928606,-2.1898113064676523,-1.8892434287890791
1761338342366229500,8.4722294921875,-1.7715332874268293,-1.8499014523513615,-1.463251035978645
1761338342376295700,8.482295654296875,-2.2297966953754425,-1.4475702133744954,-1.1598854173403232
1761338342386360300,8.4923603515625,-2.604671041497588,-1.3669620144382117,-0.8741260364107787
1761338342396426500,8.502426513671875,-2.735340909937024,-1.4653468392141162,-0.6592143617730587
1761338342406491400,8.512491455078125,-2.6861837880581616,-1.4748825831919907,-0.3558844720352441
1761338342416557600,8.5225576171875,-2.5338036075919863,-1.3193036066845059,0.1777175786825828
1761338342426623500,8.53262353515625,-2.2946581668645143,-1.123481174854934,0.930426308042556
1761338342436688400,8.5426884765625,-1.906895697596669,-0.7773395867422223,1.571143547681719
1761338342446754600,8.552754638671875,-1.3919056092977522,-0.36376514228247103,1.8777360924772917
1761338342456819500,8.5628193359375,-0.8210510104358196,0.033702874572202564,1.88256526619941
1761338342466885600,8.5728857421875,-0.323028423550725,0.06826371768061071,1.8335596816204487
1761338342476951300,8.582951416015625,0.009384498938918113,-0.1744253504704684,1.8969108946770428
1761338342487016400,8.593016357421876,0.14550035782456397,-0.24259550811611114,2.1635069446489212
1761338342497082400,8.603082275390625,-0.10781447803080081,-0.49845009158216413,2.4717452108249067
1761338342507147500,8.6131474609375,-0.5214671753585338,-0.8289097611121833,2.4945509168729183
1761338342517213700,8.623213623046874,-0.9668313542455435,-0.7870569708973169,2.229364733698964
1761338342527279400,8.633279296875,-1.4382225393146275,-0.6075283059384673,1.9917820122435688
1761338342537344500,8.643344482421876,-1.9380857856303453,-0.6061028031799942,2.045560948704183
1761338342547410400,8.653410400390625,-2.3435890787720677,-0.45241037107147275,2.3639064751356837
1761338342557475600,8.6634755859375,-2.3667846609205005,-0.13971717131324113,2.717827757339179
1761338342567541200,8.673541259765624,-1.7552777336746452,0.02665880127958953,2.8370138164728878
1761338342577607400,8.683607421875,-0.6459750140368938,0.3467769999394193,2.8034777498349546
1761338342587672600,8.693672607421876,0.6530272706359624,0.7935391725234687,2.815295905661583
1761338342597738500,8.703738525390625,1.693533517423272,1.2982745549201964,3.1325285024151204
1761338342607803600,8.7138037109375,2.3357599925816057,1.9254561672903596,3.3636209850683807
1761338342617869300,8.723869384765624,2.5163509530097246,2.4960671666547656,3.353609001880884
1761338342627935500,8.733935546875,2.368995322707295,2.8702871405214068,3.1515041287809606
1761338342638000400,8.74400048828125,2.0349159283101557,2.982588408577442,2.723820860274136
1761338342648066600,8.754066650390625,1.9140251110851763,2.605804721702635,1.942368285255134
1761338342658131500,8.76413134765625,1.8494664219349621,2.086473389329016,1.130667944553867
1761338342668197400,8.774197265625,1.6566583694905042,1.352407127124071,0.4319521049324423
1761338342678263600,8.784263671875,1.4099527226418256,0.14638351560095325,-0.28284626996181905
1761338342688328400,8.794328369140626,0.9115835142761468,-1.18746790933609,-1.0578442620139568
1761338342698394600,8.80439453125,0.06058627838790416,-1.8950334103673696,-1.862752896748483
1761338342708459300,8.814459228515625,-1.1165794326424598,-2.215469625467807,-2.3095126216471193
1761338342718525400,8.824525390625,-2.7625895668685434,-1.9660978281497954,-1.7396318362534045
1761338342728591400,8.83459130859375,-4.120850680717826,-0.6417411758594215,-0.056461161281913516
1761338342738656500,8.844656494140626,-4.471801714938879,0.5354042961005121,1.387756672924757
1761338342748722400,8.854722412109375,-4.20435664692223,1.0044983832083643,2.1415027642421425
1761338342758787300,8.864787353515625,-3.5664702467948195,1.014254345808178,2.3244332735337316
1761338342768853500,8.874853515625,-2.564357151287794,0.7877686262980103,1.9058622628957032
1761338342778919400,8.88491943359375,-1.5519482872158288,0.7673150363340974,1.528163507002592
1761338342788984600,8.894984619140626,-0.6085083299517631,0.764970007577911,1.2752104901969432
1761338342799050500,8.905050537109375,0.28857436528503894,0.5778471611630172,1.0854130908105522
1761338342809115400,8.915115478515625,1.1251344950199127,0.37829862148240206,1.0750415535956621
1761338342819181600,8.925181640625,1.8621423636347054,0.3031505145829171,1.1878740059189499
1761338342829247500,8.93524755859375,2.414839374515414,0.23273736378345636,1.2404301225863397
1761338342839312600,8.945312744140624,2.6908582096099853,0.18112934162113814,1.286613343220949
1761338342849378600,8.955378662109375,2.759634224194288,0.06324709509499371,1.1991267098825424
1761338342859443500,8.965443359375,2.6843518964558837,-0.009252689252793789,1.0721442977841942
1761338342869509400,8.97550927734375,2.425723756623268,-0.08612385708522051,0.909059841017425
1761338342879574500,8.985574462890625,1.8963123442620038,-0.14736070833634585,0.740006465908885
1761338342889640400,8.995640380859374,1.3489613705843686,-0.1330946113683283,0.6047557724852115
1761338342899706400,9.005706298828125,0.8480266956448554,-0.06604140198864042,0.5506611942041665
1761338342909771500,9.015771484375,0.2784112831890583,0.07426146025806665,0.45064095024615525
1761338342919837400,9.02583740234375,-0.15689385849833487,0.2165212287262082,0.38367892628125844
1761338342929902600,9.035902587890625,-0.35117373706102367,0.1664958726454526,0.4022158689688891
1761338342939968000,9.045968017578126,-0.39998423745930195,0.04072568588107824,0.38418285721540446
1761338342950034200,9.0560341796875,-0.3328191652029753,-0.04380750447921455,0.31644962968230245
1761338342960099300,9.066099365234376,-0.2259562888085842,-0.1316214700758457,0.20396328738294542
1761338342970165200,9.076165283203125,-0.20206629465520382,-0.26026472805850204,0.0743900550737977
1761338342980230100,9.086230224609375,-0.22971125742793083,-0.3724517951503396,-0.07007409157082438
1761338342990296000,9.096296142578124,-0.20726620138585566,-0.37339411750175056,-0.21001301587596535
1761338343000362200,9.1063623046875,-0.08957038080990314,-0.24165369722135363,-0.3142490508981049
1761338343010427100,9.11642724609375,-0.0014168810606002807,-0.16799977440237998,-0.3428106901243329
1761338343020493000,9.1264931640625,-0.004903554132580757,-0.2179275153275579,-0.30180626036711033
1761338343030558200,9.13655810546875,0.02687514744400978,-0.2862713490396738,-0.2786147698719054
1761338343040624000,9.1466240234375,0.08043897984921931,-0.3301171397026628,-0.33237850876338776
1761338343050690000,9.15668994140625,0.11009177531301975,-0.39853951854370534,-0.4350927410457283
1761338343060755200,9.166755126953126,0.04657996486723423,-0.3758772395543754,-0.5131695218082517
1761338343070821000,9.176821044921875,-0.1760427956044674,-0.19197876201346514,-0.4195014964211732
1761338343080886000,9.186885986328125,-0.48350306314527985,-0.06167692316882312,-0.2057650030426681
1761338343090952200,9.1969521484375,-0.7228484103590249,-0.04752959374226629,-0.044282355449348686
1761338343101018000,9.20701806640625,-0.9339584276914596,-0.08899879146702587,-0.034018443327397105
1761338343111083000,9.2170830078125,-1.020769865182042,-0.14697795609645545,-0.13739873830303548
1761338343121149200,9.227149169921875,-1.0370938079953194,-0.3259394156266004,-0.2093256181336939
1761338343131214000,9.237214111328125,-1.0572679964959621,-0.6105230307750403,-0.34551154658086597
1761338343141280300,9.2472802734375,-1.0029548070281744,-0.6472880693968385,-0.6347252326827496
1761338343151346200,9.25734619140625,-0.8198784595251083,-0.5927282116916031,-0.9446968985226005
1761338343161411000,9.2674111328125,-0.38929976183772086,-0.6085371176548302,-1.1540627756014465
1761338343171477000,9.27747705078125,0.09146189364492893,-0.434643828234449,-1.3658417782366274
1761338343181542100,9.287542236328125,0.42902211589515205,-2.021544990083575,-2.3024301160402594
1761338343191608000,9.297608154296874,0.8653308816671371,-4.492482976178825,-4.721965101025998
1761338343201674200,9.30767431640625,1.164369942343235,-1.3239454411409795,-5.642174697089195
1761338343211739100,9.3177392578125,0.6737544168442487,0.4260601242844015,-4.022399951098859
1761338343221805000,9.32780517578125,-0.10160393295288085,-0.4861841189227998,-0.6567709141436964
1761338343231870200,9.3378701171875,-0.7592559407800435,-0.4516829335797578,2.0233049854934215
1761338343241936100,9.34793603515625,-1.5103741678118705,-0.19422960968017577,3.324341698603332
1761338343252002300,9.358002197265625,-2.2482038742035626,-0.06334405266344546,3.5957530399024487
1761338343262067200,9.368067138671876,-2.809116340243816,0.20677038069292902,3.178690241870284
1761338343272133000,9.378133056640625,-2.8677345334291457,0.45389220712706446,2.693210325694084
1761338343282198300,9.3881982421875,-2.647334709703922,0.36033399879001077,2.5879537154525516
1761338343292264200,9.39826416015625,-2.284751105356216,0.07905636638440192,2.6302856674864885
1761338343302330400,9.408330322265625,-1.7316946135133504,-0.0569612928237766,2.4085692082047463
1761338343312395000,9.41839501953125,-1.0343962394744157,0.038726365290023386,2.0111635890617965
1761338343322461200,9.428461181640625,-0.28763679217398164,0.11342691108509897,1.534094358356297
1761338343332526000,9.438526123046875,0.4658241985917091,0.04365962044112384,1.2303582259051502
1761338343342592300,9.44859228515625,1.0726777470737696,-0.026565971896983682,1.1725126975927502
1761338343352657200,9.4586572265625,1.5126310068279505,-0.02649425836764276,1.1444696754131465
1761338343362723000,9.46872314453125,1.8235200797736644,0.0600950608048588,1.0036868476297707
1761338343372789200,9.478789306640625,2.1074352210760114,0.2047672972422093,0.8539537476062774
1761338343382854100,9.488854248046875,2.355569439423084,0.3355969593532383,0.7704191398292779
1761338343392920300,9.49892041015625,2.5111995615959164,0.39513482466675337,0.7103676989704371
1761338343402985200,9.508985107421875,2.6348697804063557,0.4244896966299042,0.6460557511229068
1761338343413051100,9.519051025390626,2.7068437142491337,0.41063612598553295,0.5720797567427158
1761338343423117000,9.529116943359375,2.5723984189242124,0.43614955662228166,0.6016074645221233
1761338343433182200,9.53918212890625,2.107000336790085,0.485695166362077,0.7859801354460417
1761338343443248000,9.549248046875,1.4484534259498119,0.6055518182337284,0.9327708984073251
1761338343453313000,9.55931298828125,0.7293518009036779,0.8080066007498651,0.9721205466948449
1761338343463379200,9.569379150390626,0.04672667986154556,0.9354763579737394,1.0427506647132336
1761338343473445000,9.579445068359375,-0.5829769983321428,0.9438662198521196,1.1020372586794196
1761338343483510300,9.58951025390625,-1.2341186013519763,0.8275443179778754,1.2345162223674355
1761338343493576000,9.599575927734374,-1.819247809281945,0.5998507205152884,1.3280962772101164
1761338343503641000,9.60964111328125,-2.2433768924385307,0.441219334167242,1.232815702059865
1761338343513707300,9.619707275390626,-2.427912791100144,0.4578479590155184,1.0218085605800151
1761338343523773200,9.629773193359375,-2.1198639100164174,0.489034393787384,0.8007444277271628
1761338343533838000,9.639838134765625,-1.4301082064419983,0.5305700078118593,0.7138743919171392
1761338343543904000,9.649904052734374,-0.808825150591135,0.497593328622356,0.7447144974693656
1761338343553969200,9.65996923828125,-0.22993220670223236,0.42842583050243555,0.7968268889572471
1761338343564035000,9.67003515625,0.32339901042878627,0.35355537150055166,0.8931041469946503
1761338343574101200,9.680101318359375,0.7672621371030807,0.24760252262316643,1.0124662202823906
1761338343584166100,9.690166259765626,1.2422592377096413,0.16714922198764978,1.0639972316857427
1761338343594232000,9.700232177734375,1.6550690544724465,0.09622808513343334,1.021498690913245
1761338343604297200,9.710297119140625,1.954565211266279,0.028976211376488207,0.9596819208823144
1761338343614363100,9.720363037109376,2.1997212905853987,-0.08001447082683444,0.9251924259770661
1761338343624429300,9.73042919921875,2.3151053270876405,-0.3419169561550021,0.9042324939262122
1761338343634494000,9.740493896484375,2.2813696462243795,-0.6303308701813221,0.8668930164173245
1761338343644560100,9.75056005859375,1.9700982959628104,-0.7551413450680673,0.7736703236449509
1761338343654625300,9.760625244140625,1.480227451351285,-0.7686202737137675,0.549122586460039
1761338343664691200,9.770691162109374,0.9886234993368387,-0.9315371188286692,0.4383143334407359
1761338343674757000,9.780757080078125,0.5154617974638939,-1.1512309131763874,0.4019527610532939
1761338343684822000,9.790822021484376,0.08121230230927468,-1.3788804157689214,0.16780834348350762
1761338343694888200,9.80088818359375,-0.29109891532659526,-1.589836557713896,-0.18121625271961092
1761338343704953000,9.810953125,-0.6041624097019433,-1.8176748608767985,-0.5364386075843125
1761338343715019300,9.821019287109374,-0.9503940141856669,-2.0828619208335875,-0.8351159222759306
1761338343725084200,9.831084228515625,-1.272172729936242,-2.3458752900131046,-1.0173861410278826
1761338343735150000,9.841150146484376,-1.6435463744610548,-2.5300714353263376,-1.1292239562906323
1761338343745216300,9.85121630859375,-1.9641034394621848,-2.6263600184753537,-1.214507453561574
1761338343755281200,9.86128125,-2.1923130601555108,-2.7510022971883417,-1.2396586998224257
1761338343765347300,9.871347412109374,-2.355415125644207,-2.9017490312337872,-1.3025801431596278
1761338343775412000,9.881411865234375,-2.322775423324108,-2.9130320572704074,-1.2592533348694444
1761338343785478100,9.89147802734375,-2.2001760486155746,-2.6414856914147733,-0.9691045598745346
1761338343795544000,9.9015439453125,-2.2211112846165895,-2.1520736964866516,-0.5258555465105921
1761338343805609200,9.911609130859375,-2.2941057936787606,-1.6662557805277407,-0.15853081205040215
1761338343815675100,9.921675048828124,-2.1133517516434193,-1.2062307697340846,0.1132036237232387
1761338343825740000,9.931739990234375,-1.731594660270214,-0.7128885957501828,0.26908180237300694
1761338343835806200,9.94180615234375,-1.2860925342172385,-0.29794461650289594,0.41093510893210766
1761338343845872000,9.9518720703125,-0.9156225605338811,-0.07580109091550111,0.47753918630480763
1761338343855937300,9.961937255859375,-0.5304851790726185,0.10674904075637459,0.28747677930668
1761338343866003000,9.9720029296875,-0.05213876803815364,0.4053508059937507,-0.31042854276187715
1761338343876068000,9.982068115234375,0.4037690166950226,0.4517477424442768,-1.098714397867024
1761338343886134300,9.99213427734375,0.6533633707225323,0.17009287422411143,-1.4945258796863257
1761338343896200200,10.0022001953125,0.4750871169775724,0.03168174400813877,-1.6210180240496992
1761338343906265300,10.012265380859375,0.12174071205258369,0.17695172714293003,-1.1880281735673546
1761338343916331000,10.0223310546875,-0.4415963507860899,0.4337762516196817,-0.3847963860038668
1761338343926396200,10.032396240234375,-1.0757850654393435,0.7381877260491252,0.41495004366189236
1761338343936462300,10.04246240234375,-1.7192098104715345,1.224342765007913,1.0801749709613622
1761338343946528500,10.052528564453125,-2.4888322469651696,1.7004866975620387,1.4832760252669452
1761338343956593400,10.062593505859375,-3.4202012426853177,2.2021705834336576,1.6645198966458439
1761338343966659600,10.07265966796875,-4.354748283919692,2.5654472846120595,1.6371353383749723
1761338343976724700,10.082724853515625,-4.819035774463415,2.5929244896024466,1.4212082761496305
1761338343986790400,10.092790283203126,-4.589053883400559,2.2758016368336973,1.0805636780180037
1761338343996856600,10.102856689453125,-3.6281893286049365,1.762784017651528,0.26195903782099483
1761338344006921500,10.11292138671875,-2.396896306067705,1.1898930906563996,-0.6178424138776958
1761338344016987600,10.122987548828124,-1.266781100025773,1.0230080725628883,-1.147200123290345
1761338344027052300,10.13305224609375,-0.43219314714670176,1.1332668019406498,-1.2986537634961306
1761338344037118500,10.143118408203126,-0.26702479677796365,1.010681163496524,-1.2749968474462627
1761338344047184400,10.153184326171875,0.27550211774408817,0.4531538098499179,-1.4441566055387258
1761338344057249500,10.16324951171875,1.4691834947675466,0.46393235696312035,-1.4670176950357854
1761338344067315500,10.1733154296875,2.261812128317356,1.0329295279227197,-1.0801401919089257
1761338344077380400,10.18338037109375,2.301352111545205,1.0851089932974427,-0.8974336275663226
1761338344087446500,10.193446533203126,1.9985206728488205,1.1105680633984505,-0.9646614628605544
1761338344097512400,10.203512451171875,1.5948627153128385,1.580058091021329,-1.043018667999655
1761338344107577600,10.21357763671875,1.207071019950509,2.0145820192031563,-0.666521908307448
1761338344117643500,10.2236435546875,0.8096756299406289,2.148668125826865,-0.1432241565208882
1761338344127708400,10.23370849609375,0.3418067737787962,2.231102517277002,-0.07100939965955913
