time,seconds_elapsed,z,y,x
1761338333971523600,0.077523681640625,0.1254030019044876,-0.23151974380016327,-0.32114410400390625
1761338333981588500,0.08758837890625,0.17856182157993317,-0.09483566880226135,-0.31921836733818054
1761338333991654700,0.097654541015625,0.22243373095989227,-0.00023260712623596191,-0.30257418751716614
1761338334001720600,0.107720458984375,0.2587973177433014,0.06519193947315216,-0.26485475897789
1761338334011785700,0.11778564453125,0.27854055166244507,0.08690338581800461,-0.21959638595581055
1761338334021851600,0.1278515625,0.25712794065475464,0.039286866784095764,-0.20852535963058472
1761338334031916500,0.13791650390625,0.20691625773906708,-0.027608415111899376,-0.22525246441364288
1761338334041982700,0.147982666015625,0.15561498701572418,-0.07146135717630386,-0.25575125217437744
1761338334052048600,0.158048583984375,0.10667940229177475,-0.12204302847385406,-0.30539098381996155
1761338334062113500,0.168113525390625,0.07604373246431351,-0.1856214702129364,-0.3874216675758362
1761338334072179500,0.178179443359375,0.07341643422842026,-0.2452620416879654,-0.48116037249565125
1761338334082244600,0.18824462890625,0.10167044401168823,-0.27233949303627014,-0.5616818070411682
1761338334092310800,0.198310791015625,0.13258329033851624,-0.2763727903366089,-0.6252040266990662
1761338334102376700,0.208376708984375,0.16351963579654694,-0.2747080326080322,-0.6637122631072998
1761338334112441600,0.218441650390625,0.17987941205501556,-0.26818355917930603,-0.6779926419258118
1761338334122507500,0.228507568359375,0.17040707170963287,-0.23540858924388885,-0.6606929898262024
1761338334132573700,0.23857373046875,0.14545035362243652,-0.19167529046535492,-0.6245858669281006
1761338334142638600,0.248638671875,0.11680619418621063,-0.14781463146209717,-0.557828962802887
1761338334152704800,0.258704833984375,0.09799912571907043,-0.1338811218738556,-0.47792714834213257
1761338334162769700,0.268769775390625,0.08617255836725235,-0.18025554716587067,-0.40332984924316406
1761338334172835600,0.278835693359375,0.09321451932191849,-0.2775037884712219,-0.355063259601593
1761338334182901500,0.288901611328125,0.10988963395357132,-0.36667147278785706,-0.32693547010421753
1761338334192966700,0.298966552734375,0.13922642171382904,-0.4277624785900116,-0.31811821460723877
1761338334203032800,0.30903271484375,0.16602261364459991,-0.4582016170024872,-0.3293261229991913
1761338334213097500,0.319097412109375,0.18385376036167145,-0.4518652558326721,-0.3382183909416199
1761338334223163600,0.32916357421875,0.19258785247802734,-0.4269716441631317,-0.34644198417663574
1761338334233229600,0.3392294921875,0.1881706565618515,-0.38375037908554077,-0.34185725450515747
1761338334243294700,0.349294677734375,0.17672838270664215,-0.3165905177593231,-0.30775412917137146
1761338334253360600,0.359360595703125,0.15777793526649475,-0.23125754296779633,-0.2396651655435562
1761338334263425500,0.369425537109375,0.14829576015472412,-0.16376319527626038,-0.15234757959842682
1761338334273491700,0.37949169921875,0.15220347046852112,-0.13906329870224,-0.05523572489619255
1761338334283557600,0.3895576171875,0.17175906896591187,-0.1662355363368988,0.04966991767287254
1761338334293622800,0.399622802734375,0.1975477635860443,-0.2360694855451584,0.1495957225561142
1761338334303688400,0.4096884765625,0.2501446604728699,-0.3177659213542938,0.23354893922805786
1761338334313753600,0.419753662109375,0.3196461796760559,-0.3916827440261841,0.29325762391090393
1761338334323819500,0.429819580078125,0.38202619552612305,-0.44407111406326294,0.3287844657897949
1761338334333885700,0.4398857421875,0.39263224601745605,-0.4649328589439392,0.31683027744293213
1761338334343950800,0.449950927734375,0.347581684589386,-0.5351537466049194,0.2457478791475296
1761338334354016500,0.4600166015625,0.25438064336776733,-0.6672689914703369,0.11967357248067856
1761338334364081700,0.47008154296875,0.1374841034412384,-0.7514176964759827,-0.026500679552555084
1761338334374147600,0.480147705078125,0.01816411316394806,-0.6999655961990356,-0.16899952292442322
1761338334384213800,0.4902138671875,-0.09388306736946106,-0.4884003698825836,-0.28910329937934875
1761338334394278400,0.5002783203125,-0.16340889036655426,-0.18949900567531586,-0.33398523926734924
1761338334404344600,0.510344482421875,-0.17294487357139587,0.15477608144283295,-0.272506445646286
1761338334414409700,0.52040966796875,-0.13110226392745972,0.46671396493911743,-0.1203385591506958
1761338334424475600,0.5304755859375,-0.020577892661094666,0.6031263470649719,0.09802013635635376
1761338334434541800,0.540541748046875,0.12854628264904022,0.5957935452461243,0.34976479411125183
1761338334444606500,0.5506064453125,0.261395663022995,0.5239555835723877,0.5869137048721313
1761338334454672600,0.560672607421875,0.37485039234161377,0.36587709188461304,0.7783286571502686
1761338334464737500,0.570737548828125,0.47031140327453613,0.1574764847755432,0.9331120848655701
1761338334474803700,0.5808037109375,0.5683078765869141,-0.020344214513897896,1.07313072681427
1761338334484869600,0.59086962890625,0.676502525806427,-0.1479003131389618,1.1824966669082642
1761338334494934500,0.6009345703125,0.7892552614212036,-0.2798635959625244,1.2482993602752686
1761338334505000700,0.611000732421875,0.8720366954803467,-0.4200361371040344,1.265244722366333
1761338334515065600,0.621065673828125,0.908007800579071,-0.547294020652771,1.2180018424987793
1761338334525131800,0.6311318359375,0.9065859913825989,-0.7148579359054565,1.0922422409057617
1761338334535197700,0.64119775390625,0.877857506275177,-0.889807939529419,0.8936656713485718
1761338334545262600,0.6512626953125,0.8237143754959106,-1.000388741493225,0.6451065540313721
1761338334555328500,0.66132861328125,0.7323306798934937,-1.0576369762420654,0.3560011684894562
1761338334565393700,0.6713935546875,0.6251115798950195,-1.0598589181900024,0.04469521716237068
1761338334575459800,0.6814599609375,0.5022644400596619,-0.996359646320343,-0.2729852497577667
1761338334585525800,0.69152587890625,0.37789827585220337,-0.871374249458313,-0.5794472098350525
1761338334595590700,0.701590576171875,0.25194835662841797,-0.6462532877922058,-0.8413448929786682
1761338334605656600,0.711656494140625,0.13838185369968414,-0.29905346035957336,-1.0275400876998901
1761338334615721700,0.7217216796875,0.08261243999004364,0.07137766480445862,-1.1140828132629395
1761338334625787600,0.73178759765625,0.0946427434682846,0.35939109325408936,-1.1043667793273926
1761338334635853600,0.741853515625,0.19508622586727142,0.5253047943115234,-0.9985390901565552
1761338334645918700,0.751918701171875,0.37028226256370544,0.6011455059051514,-0.813703179359436
1761338334655984600,0.761984619140625,0.5991065502166748,0.6112467050552368,-0.5957307815551758
1761338334666049800,0.7720498046875,0.8365672826766968,0.5625894665718079,-0.3825753629207611
1761338334676115700,0.78211572265625,1.058984398841858,0.4495275616645813,-0.19571898877620697
1761338334686181600,0.792181640625,1.227481722831726,0.2695945203304291,-0.03792162984609604
1761338334696246500,0.80224658203125,1.3149577379226685,0.059615105390548706,0.08928091078996658
1761338334706312700,0.812312744140625,1.3423693180084229,-0.11299128830432892,0.18923494219779968
1761338334716377900,0.8223779296875,1.3146846294403076,-0.21657195687294006,0.2657114267349243
1761338334726443500,0.832443603515625,1.2501275539398193,-0.24057051539421082,0.3081853687763214
1761338334736509400,0.842509521484375,1.1644679307937622,-0.21556797623634338,0.30591869354248047
1761338334746574600,0.85257470703125,1.056058645248413,-0.1967274397611618,0.25680893659591675
1761338334756640800,0.862640869140625,0.942148745059967,-0.19993257522583008,0.16907614469528198
1761338334766706700,0.872706787109375,0.8281105756759644,-0.20928506553173065,0.04954228922724724
1761338334776771600,0.882771484375,0.7044496536254883,-0.20652036368846893,-0.06653738766908646
1761338334786837500,0.89283740234375,0.5682190656661987,-0.20362870395183563,-0.16719795763492584
1761338334796902700,0.902902587890625,0.4310411214828491,-0.21982552111148834,-0.2578129768371582
1761338334806968600,0.912968505859375,0.325662761926651,-0.26834750175476074,-0.3191857933998108
1761338334817033500,0.923033447265625,0.2634983956813812,-0.30592986941337585,-0.3452919125556946
1761338334827099600,0.933099609375,0.24362272024154663,-0.32856595516204834,-0.3352544605731964
1761338334837165600,0.94316552734375,0.23219695687294006,-0.3292753994464874,-0.2891937792301178
1761338334847230700,0.953230712890625,0.21698631346225739,-0.2856096923351288,-0.21276476979255676
1761338334857296600,0.963296630859375,0.1899016946554184,-0.21682219207286835,-0.11277982592582703
1761338334867361500,0.973361572265625,0.17038126289844513,-0.1135040745139122,-0.003005126491189003
1761338334877427500,0.983427490234375,0.1734660565853119,0.010219680145382881,0.0956641286611557
1761338334887493600,0.99349365234375,0.2145029753446579,0.10959367454051971,0.16657744348049164
1761338334897558800,1.003558837890625,0.2855924665927887,0.1835939586162567,0.2264190912246704
1761338334907624700,1.013624755859375,0.3555297553539276,0.18257290124893188,0.27984821796417236
1761338334917691000,1.02369091796875,0.41337794065475464,0.13437721133232117,0.3229900002479553
1761338334927755300,1.03375537109375,0.47000792622566223,0.0788407102227211,0.37230828404426575
1761338334937821400,1.043821533203125,0.5336322784423828,0.046749960631132126,0.42819538712501526
1761338334947886600,1.053886474609375,0.6159133315086365,0.04214002937078476,0.5056979060173035
1761338334957952500,1.063952392578125,0.7275407910346985,0.04815903678536415,0.6599636673927307
1761338334968017700,1.074017578125,0.7941173911094666,0.07131628692150116,0.8477002382278442
1761338334978083300,1.084083251953125,0.8016880750656128,0.14052410423755646,1.0300147533416748
1761338334988149500,1.0941494140625,0.784412682056427,0.2715606987476349,1.133549451828003
1761338334998214400,1.10421435546875,0.7469783425331116,0.37815484404563904,1.0679428577423096
1761338335008280600,1.114280517578125,0.7095680832862854,0.4216628968715668,0.8438624739646912
1761338335018346500,1.124346435546875,0.6783822774887085,0.3103322386741638,0.5700263381004333
1761338335028411400,1.134411376953125,0.6581518054008484,-0.011213860474526882,0.27143430709838867
1761338335038477300,1.144477294921875,0.6819238662719727,-0.4503633379936218,-0.09296270459890366
1761338335048542500,1.15454248046875,0.6759517192840576,-0.7904040217399597,-0.4445524215698242
1761338335058608600,1.164608642578125,0.6198939681053162,-0.8455278873443604,-0.6745836734771729
1761338335068674600,1.174674560546875,0.5271866917610168,-0.5864393711090088,-0.7545424103736877
1761338335078739500,1.184739501953125,0.4828616678714752,-0.06986568868160248,-0.6934062242507935
1761338335088805400,1.194805419921875,0.5199459195137024,0.5152912735939026,-0.4857342541217804
1761338335098870500,1.20487060546875,0.5860822796821594,1.0210001468658447,-0.1908833533525467
1761338335108936400,1.2149365234375,0.6620172262191772,1.387882113456726,0.12849169969558716
1761338335119002600,1.225002685546875,0.7355294227600098,1.6259675025939941,0.44005587697029114
1761338335129067500,1.235067626953125,0.8728957772254944,1.6515254974365234,0.7715759873390198
1761338335139133400,1.245133544921875,1.0679800510406494,1.435752272605896,1.0408735275268555
1761338335149198600,1.255198486328125,1.2678265571594238,1.0700017213821411,1.246239185333252
1761338335159264500,1.265264404296875,1.4017566442489624,0.70369553565979,1.3629230260849
1761338335169329400,1.275329345703125,1.477120280265808,0.39708027243614197,1.3646644353866577
1761338335179395300,1.285395263671875,1.536905288696289,0.17456771433353424,1.2035266160964966
1761338335189461500,1.29546142578125,1.5682737827301025,0.02415052242577076,0.8767184019088745
1761338335199526700,1.305526611328125,1.5480540990829468,-0.13052590191364288,0.4443703293800354
1761338335209592600,1.315592529296875,1.4824029207229614,-0.30247020721435547,-0.024902623146772385
1761338335219658500,1.325658447265625,1.4095453023910522,-0.48419666290283203,-0.493503212928772
1761338335229723400,1.335723388671875,1.3403230905532837,-0.661048173904419,-0.9017018675804138
1761338335239789600,1.34578955078125,1.2462893724441528,-0.7887700796127319,-1.2123304605484009
1761338335249854500,1.3558544921875,1.1178030967712402,-0.8587464690208435,-1.407963514328003
1761338335259920400,1.36592041015625,0.9779974222183228,-0.8247551321983337,-1.476696491241455
1761338335269986300,1.375986328125,0.8519138097763062,-0.6573746204376221,-1.4236857891082764
1761338335280051500,1.386051513671875,0.7619532346725464,-0.36720412969589233,-1.2695814371109009
1761338335290117400,1.396117431640625,0.7333945631980896,-0.023329857736825943,-1.0347143411636353
1761338335300182500,1.4061826171875,0.7718909382820129,0.3492797315120697,-0.7493332624435425
1761338335310248400,1.41624853515625,0.8624570369720459,0.6682595610618591,-0.4341862201690674
1761338335320313300,1.426313232421875,0.9560848474502563,0.8502365350723267,-0.14578567445278168
1761338335330379500,1.436379638671875,1.024977684020996,0.9084833264350891,0.07592301070690155
1761338335340445400,1.446445556640625,1.0915510654449463,0.8701261281967163,0.20842227339744568
1761338335350510300,1.45651025390625,1.145470142364502,0.7863670587539673,0.26548662781715393
1761338335360576500,1.466576416015625,1.1807762384414673,0.6767007112503052,0.2626362442970276
1761338335370641400,1.476641357421875,1.201286792755127,0.5677691698074341,0.23791572451591492
1761338335380707600,1.48670751953125,1.2118185758590698,0.5235007405281067,0.20546504855155945
1761338335390773500,1.4967734375,1.2279388904571533,0.4996156692504883,0.18110856413841248
1761338335400838400,1.50683837890625,1.256255030632019,0.4545994997024536,0.1662639081478119
1761338335410904300,1.516904296875,1.287994623184204,0.38526037335395813,0.1508236974477768
1761338335420969500,1.526969482421875,1.2901184558868408,0.3091456890106201,0.1326911896467209
1761338335431035400,1.537035400390625,1.2646586894989014,0.2512134313583374,0.10591445118188858
1761338335441101600,1.5471015625,1.2308967113494873,0.1852993220090866,0.07122795283794403
1761338335451166500,1.55716650390625,1.192967176437378,0.09762219339609146,0.027136920019984245
1761338335461232400,1.567232421875,1.1507266759872437,0.028389181941747665,-0.014971163123846054
1761338335471297500,1.577297607421875,1.104054570198059,-0.030521802604198456,-0.06309022009372711
1761338335481363500,1.587363525390625,1.0419851541519165,-0.07768791168928146,-0.12780646979808807
1761338335491429600,1.5974296875,0.9726183414459229,-0.11602278798818588,-0.20467489957809448
1761338335501494500,1.60749462890625,0.911191999912262,-0.14073656499385834,-0.28335535526275635
1761338335511560400,1.617560546875,0.8537726402282715,-0.1731051504611969,-0.3444719910621643
1761338335521625600,1.62762548828125,0.7878618240356445,-0.23081502318382263,-0.36686596274375916
1761338335531691500,1.63769140625,0.711227536201477,-0.25059300661087036,-0.33917227387428284
1761338335541757700,1.6477578125,0.6339311599731445,-0.28357213735580444,-0.2814536392688751
1761338335551822300,1.657822265625,0.5749408006668091,-0.31313320994377136,-0.17273114621639252
1761338335561888500,1.667888427734375,0.5471193790435791,-0.33510690927505493,-0.048188529908657074
1761338335571953400,1.677953369140625,0.5454631447792053,-0.36230364441871643,0.07744129747152328
1761338335582019600,1.68801953125,0.5467782020568848,-0.39504319429397583,0.1674136072397232
1761338335592085200,1.698085205078125,0.5585211515426636,-0.4027993679046631,0.21580803394317627
1761338335602150400,1.708150390625,0.6075730323791504,-0.3762562572956085,0.21327166259288788
1761338335612216600,1.718216552734375,0.6778296232223511,-0.33584892749786377,0.15775594115257263
1761338335622281500,1.728281494140625,0.745291531085968,-0.2637695372104645,0.08214184641838074
1761338335632347600,1.73834765625,0.7946665287017822,-0.15439990162849426,0.006062252447009087
1761338335642413300,1.748413330078125,0.8028131723403931,-0.04853968694806099,-0.05097949504852295
1761338335652478500,1.758478515625,0.7634559869766235,-0.016179082915186882,-0.0827302411198616
1761338335662544400,1.76854443359375,0.744020938873291,-0.06497534364461899,-0.05039139837026596
1761338335672609500,1.778609619140625,0.8006452918052673,-0.20953944325447083,0.07530021667480469
1761338335682675500,1.788675537109375,0.8914190530776978,-0.3869569003582001,0.2607117295265198
1761338335692741400,1.798741455078125,0.9506882429122925,-0.5368151068687439,0.48007816076278687
1761338335702806500,1.808806640625,0.9565978646278381,-0.6083058714866638,0.6559343934059143
1761338335712872400,1.81887255859375,0.8965396285057068,-0.5961597561836243,0.7560913562774658
1761338335722937600,1.8289375,0.7650266885757446,-0.5338035821914673,0.7490069270133972
1761338335733003300,1.839003173828125,0.6117865443229675,-0.3957887589931488,0.6487074494361877
1761338335743069400,1.8490693359375,0.45385271310806274,-0.260855108499527,0.5076258182525635
1761338335753134600,1.859134521484375,0.3396763503551483,-0.21003535389900208,0.35799235105514526
1761338335763200500,1.869200439453125,0.31377550959587097,-0.226396843791008,0.23138493299484253
1761338335773265400,1.879265380859375,0.36646321415901184,-0.23893314599990845,0.16556543111801147
1761338335783331300,1.889331298828125,0.4659596085548401,-0.24311277270317078,0.18864530324935913
1761338335793397500,1.8993974609375,0.6314406991004944,-0.18486252427101135,0.2757146954536438
1761338335803462400,1.90946240234375,0.8080517053604126,-0.11318674683570862,0.41657888889312744
1761338335813528600,1.919528564453125,0.9723035097122192,0.006670151837170124,0.5776183605194092
1761338335823593500,1.929593505859375,1.1122899055480957,0.1478206068277359,0.6925379037857056
1761338335833659400,1.939659423828125,1.1943904161453247,0.26138046383857727,0.782771110534668
1761338335843725600,1.9497255859375,1.2152775526046753,0.3897255063056946,0.8363513350486755
1761338335853790500,1.95979052734375,1.2668282985687256,0.30686336755752563,0.9115417003631592
1761338335863856600,1.969856689453125,1.2954857349395752,0.12270226329565048,0.9598544836044312
1761338335873921300,1.97992138671875,1.3061085939407349,-0.04011009261012077,0.9430145621299744
1761338335883987500,1.989987548828125,1.3451555967330933,-0.07474999874830246,0.8437976241111755
1761338335894053400,2.000053466796875,1.4166451692581177,-0.06686944514513016,0.6582181453704834
1761338335904118500,2.010118408203125,1.5132148265838623,-0.0304701030254364,0.40587013959884644
1761338335914184400,2.020184326171875,1.6078739166259766,0.04889209568500519,0.1271626204252243
1761338335924249300,2.030249267578125,1.6745808124542236,0.10028336942195892,-0.12941749393939972
1761338335934315500,2.0403154296875,1.7140291929244995,0.10122320055961609,-0.31708940863609314
1761338335944381400,2.05038134765625,1.7343459129333496,0.08153471350669861,-0.39547207951545715
1761338335954446600,2.060446533203125,1.7591875791549683,0.05138533562421799,-0.38496673107147217
1761338335964512500,2.070512451171875,1.8097795248031616,0.014234395697712898,-0.31461527943611145
1761338335974577400,2.080577392578125,1.8797056674957275,-0.013212674297392368,-0.1877441555261612
1761338335984643600,2.0906435546875,1.951556921005249,-0.031237106770277023,-0.03135521709918976
1761338335994708500,2.10070849609375,2.001270294189453,-0.035577528178691864,0.1415710151195526
1761338336004774700,2.110774658203125,2.038048505783081,-0.019273366779088974,0.29003435373306274
1761338336014840300,2.12084033203125,2.0640242099761963,-0.00823642686009407,0.4082842767238617
1761338336024905500,2.130905517578125,2.083554983139038,-0.030049186199903488,0.49026817083358765
1761338336034971400,2.140971435546875,2.064732551574707,-0.05816364660859108,0.5580655932426453
1761338336045036500,2.15103662109375,2.0188019275665283,-0.08003801852464676,0.5849941968917847
1761338336055102500,2.1611025390625,2.004648208618164,-0.054198164492845535,0.5568970441818237
1761338336065168400,2.17116845703125,1.9698275327682495,-0.02113787829875946,0.47765088081359863
1761338336075233500,2.181233642578125,1.9282792806625366,-0.024219423532485962,0.3578794598579407
1761338336085299500,2.191299560546875,1.907538652420044,-0.039951179176568985,0.2307301014661789
1761338336095364600,2.201364501953125,1.9257408380508423,-0.07674487680196762,0.10003360360860825
1761338336105430300,2.21143017578125,1.9773955345153809,-0.1293056309223175,-0.035861000418663025
1761338336115496400,2.221496337890625,2.007145404815674,-0.16036954522132874,-0.15089836716651917
1761338336125561600,2.2315615234375,2.0221874713897705,-0.15123914182186127,-0.20308558642864227
1761338336135627500,2.24162744140625,2.0530097484588623,-0.1631232351064682,-0.2202102392911911
1761338336145692700,2.251692626953125,2.0532045364379883,-0.1024266928434372,-0.2581869065761566
1761338336155758300,2.26175830078125,2.0642752647399902,-0.055242929607629776,-0.27227795124053955
1761338336165824500,2.271824462890625,2.069423198699951,0.009422674775123596,-0.2801048159599304
1761338336175889400,2.281889404296875,2.0577328205108643,0.05411611124873161,-0.27334678173065186
1761338336185955600,2.29195556640625,2.0419275760650635,0.07481127977371216,-0.27125033736228943
1761338336196020500,2.3020205078125,2.0345206260681152,0.10476890951395035,-0.2834303081035614
1761338336206086400,2.31208642578125,2.0340466499328613,0.15451160073280334,-0.2769262194633484
1761338336216152300,2.32215234375,2.0411760807037354,0.2289232611656189,-0.24724476039409637
1761338336226217500,2.332217529296875,2.070788621902466,0.3017267882823944,-0.18808072805404663
1761338336236283600,2.34228369140625,2.1267101764678955,0.3448635935783386,-0.126072496175766
1761338336246348300,2.352348388671875,2.2327234745025635,0.3735003173351288,-0.05949665606021881
1761338336256414500,2.36241455078125,2.362351894378662,0.4188272953033447,0.0072623989544808865
1761338336266480400,2.37248046875,2.5110654830932617,0.46357861161231995,0.07024790346622467
1761338336276545500,2.382545654296875,2.6873435974121094,0.5079047679901123,0.13748739659786224
1761338336286611500,2.392611572265625,2.913050651550293,0.5213401913642883,0.21826007962226868
1761338336296676400,2.40267626953125,3.1859569549560547,0.44631895422935486,0.33169451355934143
1761338336306742500,2.412742431640625,3.473426342010498,0.2602274417877197,0.48326393961906433
1761338336316808400,2.422808349609375,3.7965199947357178,-0.0013695191591978073,0.6591588258743286
1761338336326873600,2.43287353515625,3.9322402477264404,-0.19225455820560455,0.7320691347122192
1761338336336939500,2.442939453125,3.551057815551758,-0.23654025793075562,0.6611161231994629
1761338336347004400,2.45300439453125,3.011242628097534,-0.2004491686820984,0.6109753251075745
1761338336357070300,2.4630703125,2.698432445526123,-0.09822745621204376,0.5589092373847961
1761338336367136500,2.473136474609375,2.7053298950195312,0.05111413449048996,0.44482699036598206
1761338336377201700,2.48320166015625,2.986257791519165,0.1670338213443756,0.325357586145401
1761338336387267600,2.493267578125,3.2772178649902344,0.1517174243927002,0.20788680016994476
1761338336397332500,2.50333251953125,3.461575984954834,0.10775609314441681,0.14610278606414795
1761338336407398400,2.5133984375,3.5537736415863037,0.0984954684972763,0.1260284185409546
1761338336417464600,2.523464599609375,3.6380720138549805,0.07446496933698654,0.12216871231794357
1761338336427529500,2.533529541015625,3.766378879547119,0.048178140074014664,0.12630969285964966
1761338336437595400,2.543595458984375,3.8667104244232178,-0.011471610516309738,0.1387285441160202
1761338336447660500,2.55366064453125,3.8862106800079346,-0.08182045817375183,0.1770986169576645
1761338336457726500,2.5637265625,3.7995126247406006,-0.17448808252811432,0.2300981730222702
1761338336467792400,2.57379248046875,3.6473472118377686,-0.2343795746564865,0.28768599033355713
1761338336477857500,2.583857421875,3.4711780548095703,-0.24089552462100983,0.3327653110027313
1761338336487923500,2.59392333984375,3.3031857013702393,-0.21558380126953125,0.3442213535308838
1761338336497988400,2.60398828125,3.1793417930603027,-0.15583471953868866,0.3136562705039978
1761338336508054500,2.614054443359375,3.094043493270874,-0.06600320339202881,0.24491725862026215
1761338336518120400,2.624120361328125,3.065258026123047,-0.041550587862730026,0.1512134075164795
1761338336528185300,2.634185302734375,3.065603256225586,-0.02564062550663948,0.05251738056540489
1761338336538251500,2.64425146484375,3.0653605461120605,0.017824560403823853,-0.023658346384763718
1761338336548316400,2.65431640625,3.0168163776397705,0.04827914014458656,-0.07898871600627899
1761338336558382600,2.664382568359375,2.937046766281128,0.06047242507338524,-0.11123666167259216
1761338336568448500,2.674448486328125,2.8447537422180176,0.09092940390110016,-0.11032480001449585
1761338336578513400,2.684513427734375,2.734769105911255,0.14801213145256042,-0.09873659163713455
1761338336588579300,2.694579345703125,2.5895509719848633,0.23126007616519928,-0.07878061383962631
1761338336598644500,2.70464453125,2.4153599739074707,0.3137909173965454,-0.05347232520580292
1761338336608710400,2.71471044921875,2.230217695236206,0.33588600158691406,-0.03206385299563408
1761338336618775300,2.724775390625,2.0381860733032227,0.28337618708610535,-0.015142394229769707
1761338336628841500,2.734841552734375,1.8933783769607544,0.0715591162443161,-0.06134747713804245
1761338336638907400,2.744907470703125,1.8131000995635986,0.14919692277908325,-0.06499973684549332
1761338336648972500,2.75497265625,1.7829713821411133,0.29079705476760864,-0.058649733662605286
1761338336659038500,2.76503857421875,1.7342519760131836,0.2089296132326126,-0.10727053135633469
1761338336669103400,2.775103271484375,1.6734869480133057,0.07704214751720428,-0.2101910561323166
1761338336679169500,2.78516943359375,1.6286240816116333,0.024695586413145065,-0.2980511486530304
1761338336689235500,2.7952353515625,1.6378616094589233,0.02622910402715206,-0.3534095883369446
1761338336699300600,2.805300537109375,1.6675068140029907,-0.05013065040111542,-0.37600651383399963
1761338336709366500,2.815366455078125,1.8173692226409912,-0.14722156524658203,-0.37571850419044495
1761338336719431400,2.825431396484375,2.195981740951538,-0.20434556901454926,-0.37112748622894287
1761338336729497300,2.835497314453125,2.683304786682129,-0.15900278091430664,-0.3722405433654785
1761338336739563500,2.8455634765625,2.841240644454956,-0.043317459523677826,-0.3295231759548187
1761338336749628400,2.85562841796875,2.7021706104278564,0.04108598455786705,-0.19924607872962952
1761338336759694600,2.865694580078125,2.5038554668426514,-0.04615890607237816,-0.05315518006682396
1761338336769759500,2.875759521484375,2.3269107341766357,-0.24944230914115906,0.0855749323964119
1761338336779825400,2.885825439453125,2.1605207920074463,-0.45917797088623047,0.2739102244377136
1761338336789891600,2.8958916015625,1.884299635887146,-0.5814700126647949,0.44714468717575073
1761338336799956500,2.90595654296875,1.6170854568481445,-0.6322959065437317,0.5529640316963196
1761338336810022700,2.916022705078125,1.4090670347213745,-0.5556179285049438,0.5674617290496826
1761338336820087600,2.926087646484375,1.284089207649231,-0.40842077136039734,0.497848242521286
1761338336830153500,2.936153564453125,1.2427730560302734,-0.32854902744293213,0.3807113766670227
1761338336840219400,2.946219482421875,1.2644591331481934,-0.3168598711490631,0.2876751720905304
1761338336850284500,2.956284423828125,1.2967997789382935,-0.3253212571144104,0.24713733792304993
1761338336860350500,2.9663505859375,1.3218777179718018,-0.38034164905548096,0.2539505064487457
1761338336870415400,2.976415283203125,1.2681827545166016,-0.47907909750938416,0.2891967296600342
1761338336880481500,2.9864814453125,1.0481691360473633,-0.5818080902099609,0.3299417495727539
1761338336890547500,2.99654736328125,0.7667694091796875,-0.5541434288024902,0.3273247480392456
1761338336900612600,3.006612548828125,0.5099540948867798,-0.3536801040172577,0.23343873023986816
1761338336910678300,3.01667822265625,0.271138072013855,-0.10761965066194534,0.03059610351920128
1761338336920743400,3.026743408203125,0.10972867161035538,0.04000468924641609,-0.23167012631893158
1761338336930809900,3.036809814453125,0.05836240202188492,0.07990086823701859,-0.4760899841785431
1761338336940875800,3.046875732421875,0.09074217081069946,0.06800585985183716,-0.6221256852149963
1761338336950941000,3.05694091796875,0.179731547832489,0.05033364146947861,-0.5765210390090942
1761338336961006800,3.0670068359375,0.35155925154685974,0.11772174388170242,-0.2982103228569031
1761338336971072000,3.077072021484375,0.6725895404815674,0.19796426594257355,0.1946873813867569
1761338336981137700,3.0871376953125,1.061060905456543,0.20793461799621582,0.7432178258895874
1761338336991203800,3.097203857421875,1.351955533027649,0.1553039401769638,1.2119375467300415
1761338337001268700,3.107268798828125,1.4978359937667847,0.20894479751586914,1.4368982315063477
1761338337011335000,3.1173349609375,1.4688853025436401,0.18448445200920105,1.4478381872177124
1761338337021399800,3.12739990234375,1.2870433330535889,0.15301334857940674,1.3306442499160767
1761338337031465700,3.1374658203125,1.0343849658966064,0.15507207810878754,1.1283987760543823
1761338337041532000,3.147531982421875,0.7912695407867432,0.18969397246837616,0.8717678785324097
1761338337051596800,3.1575966796875,0.624974250793457,0.29496443271636963,0.5652914047241211
1761338337061663000,3.1676630859375,0.5121358633041382,0.4364784061908722,0.20587334036827087
1761338337071727900,3.177727783203125,0.395418256521225,0.5296145677566528,-0.1619446575641632
1761338337081793800,3.187793701171875,0.30964475870132446,0.5013232827186584,-0.4526899456977844
1761338337091859000,3.19785888671875,0.25017356872558594,0.439497709274292,-0.6506907343864441
1761338337101924900,3.2079248046875,0.21153296530246735,0.4165348708629608,-0.7437863349914551
1761338337111991000,3.217990966796875,0.1725548505783081,0.44386371970176697,-0.7683961987495422
1761338337122055700,3.2280556640625,0.13544155657291412,0.47843101620674133,-0.734554648399353
1761338337132121900,3.238121826171875,0.12657786905765533,0.5271055698394775,-0.6248911023139954
1761338337142187000,3.24818701171875,0.14543411135673523,0.5370389223098755,-0.45224687457084656
1761338337152253000,3.2582529296875,0.2182333767414093,0.5146726369857788,-0.21219077706336975
1761338337162318800,3.26831884765625,0.33703166246414185,0.472701758146286,0.06562565267086029
1761338337172383700,3.2783837890625,0.45863720774650574,0.39081114530563354,0.3269321024417877
1761338337182450000,3.288449951171875,0.581641674041748,0.3371551036834717,0.5177731513977051
1761338337192514800,3.298514892578125,0.6832810640335083,0.3468913435935974,0.623978853225708
1761338337202581000,3.3085810546875,0.7293494939804077,0.34062811732292175,0.6565299034118652
1761338337212647000,3.31864697265625,0.7654973268508911,0.26970374584198,0.6151002049446106
1761338337222711800,3.3287119140625,0.7786445617675781,0.1606406420469284,0.5060954093933105
1761338337232777700,3.33877783203125,0.7639581561088562,0.02036733366549015,0.37341898679733276
1761338337242843000,3.3488427734375,0.7371369004249573,-0.0999460220336914,0.220384418964386
1761338337252909000,3.358908935546875,0.7135653495788574,-0.175997793674469,0.0653415247797966
1761338337262974700,3.368974609375,0.6897345781326294,-0.20790380239486694,-0.06486015021800995
1761338337273040000,3.379039794921875,0.6540806293487549,-0.18871861696243286,-0.1574677675962448
1761338337283105800,3.389105712890625,0.6337414979934692,-0.10325004905462265,-0.22797761857509613
1761338337293171000,3.3991708984375,0.6545580625534058,-0.019487734884023666,-0.29601386189460754
1761338337303236900,3.40923681640625,0.7130237817764282,0.03631747141480446,-0.35713979601860046
1761338337313302800,3.419302734375,0.8034296631813049,0.11133948713541031,-0.3982955813407898
1761338337323368000,3.429367919921875,0.903693675994873,0.18954187631607056,-0.3925202488899231
1761338337333433900,3.439433837890625,1.0021001100540161,0.23691913485527039,-0.34255078434944153
1761338337343499000,3.4494990234375,1.0878052711486816,0.2090422362089157,-0.2674645483493805
1761338337353564700,3.459564697265625,1.1506105661392212,0.12333937734365463,-0.19225990772247314
1761338337363630800,3.469630859375,1.1971712112426758,0.0366862453520298,-0.1279435157775879
1761338337373695700,3.47969580078125,1.2087244987487793,-0.02161438763141632,-0.0654277428984642
1761338337383762000,3.489761962890625,1.2046324014663696,-0.0372609905898571,-0.02407151460647583
1761338337393827000,3.4998271484375,1.2255204916000366,-0.04284230247139931,-0.03302396088838577
1761338337403892700,3.509892822265625,1.2736390829086304,-0.03249911963939667,-0.10580708831548691
1761338337413959000,3.519958984375,1.3510572910308838,0.0169659573584795,-0.22877074778079987
1761338337424023800,3.53002392578125,1.4106096029281616,0.07621303200721741,-0.3677739202976227
1761338337434090000,3.540090087890625,1.4052619934082031,0.02237936481833458,-0.42310455441474915
1761338337444154600,3.550154541015625,1.3461872339248657,-0.04295703023672104,-0.3977890610694885
1761338337454220800,3.560220703125,1.2705682516098022,-0.03621033579111099,-0.37465912103652954
1761338337464286700,3.57028662109375,1.1417373418807983,-0.014618759974837303,-0.35978829860687256
1761338337474351900,3.580351806640625,0.951964795589447,-0.011853929609060287,-0.35557442903518677
1761338337484417800,3.590417724609375,0.744848906993866,-0.04604305699467659,-0.34737133979797363
1761338337494482700,3.600482666015625,0.5061564445495605,-0.08908697962760925,-0.3216082751750946
1761338337504548900,3.610548828125,0.219397634267807,-0.08123145997524261,-0.2630206048488617
1761338337514613800,3.62061376953125,-0.08368416875600815,-0.026491496711969376,-0.13698863983154297
1761338337524680000,3.630679931640625,-0.302289754152298,0.012766960076987743,0.04716096073389053
1761338337534745900,3.640745849609375,-0.39448705315589905,0.02787773683667183,0.25574666261672974
1761338337544810800,3.650810791015625,-0.409989595413208,-0.013161043636500835,0.4896496832370758
1761338337554877000,3.660876953125,-0.39232349395751953,-0.12025660276412964,0.7344895601272583
1761338337564941800,3.67094189453125,-0.41813886165618896,-0.3195297420024872,1.0102119445800781
1761338337575008000,3.681008056640625,-0.5529513359069824,-0.5017259120941162,1.2782998085021973
1761338337585074000,3.691073974609375,-0.6232736706733704,-0.3999902606010437,1.3823766708374023
1761338337595138800,3.701138916015625,-0.5328066945075989,-0.027651749551296234,1.3011791706085205
1761338337605204700,3.711204833984375,-0.37803205847740173,0.4645635187625885,1.0518354177474976
1761338337615270000,3.721269775390625,-0.19228821992874146,0.9986038208007812,0.6901407837867737
1761338337625335800,3.731335693359375,0.01589774899184704,1.2668213844299316,0.4104531705379486
1761338337635402000,3.741402099609375,0.1892823427915573,1.2946470975875854,0.2533956468105316
1761338337645467000,3.751466796875,0.31481707096099854,1.1865651607513428,0.1198839396238327
1761338337655532800,3.76153271484375,0.39470726251602173,0.9713433384895325,-0.07360471040010452
1761338337665598000,3.771597900390625,0.4388720393180847,0.6975359916687012,-0.34085291624069214
1761338337675664000,3.781663818359375,0.4954162836074829,0.4172274172306061,-0.6196994781494141
1761338337685729800,3.791729736328125,0.5864048004150391,0.0931854397058487,-0.7587396502494812
1761338337695795000,3.801794921875,0.6486143469810486,-0.22312763333320618,-0.6144202351570129
1761338337705860900,3.81186083984375,0.6637855768203735,-0.3679482042789459,-0.2192058265209198
1761338337715926000,3.821926025390625,0.5935493111610413,-0.49822619557380676,0.42589694261550903
1761338337725992000,3.831991943359375,0.4087403118610382,-0.5357293486595154,1.120171070098877
1761338337736057900,3.842057861328125,0.16313062608242035,-0.476267546415329,1.6551965475082397
1761338337746122800,3.852122802734375,-0.05583261325955391,-0.32712146639823914,1.9463088512420654
1761338337756189000,3.86218896484375,-0.16088126599788666,-0.09317973256111145,1.9873414039611816
1761338337766253800,3.87225390625,-0.13018566370010376,0.16978025436401367,1.8045779466629028
1761338337776319700,3.88231982421875,-0.010001995600759983,0.45113861560821533,1.4715428352355957
1761338337786385700,3.8923857421875,0.18288064002990723,0.6546571254730225,1.1145564317703247
1761338337796450800,3.902450927734375,0.3785831332206726,0.7840242385864258,0.7664745450019836
1761338337806517000,3.91251708984375,0.5492630004882812,0.7918099761009216,0.43818747997283936
1761338337816582000,3.922581787109375,0.6514267325401306,0.6672762036323547,0.14911490678787231
1761338337826647800,3.932647705078125,0.6848006248474121,0.4383103549480438,-0.10164594650268555
1761338337836713000,3.942712890625,0.6840149164199829,0.13052363693714142,-0.32987505197525024
1761338337846779000,3.95277880859375,0.6828396916389465,-0.15723010897636414,-0.5399542450904846
1761338337856844800,3.9628447265625,0.6961324214935303,-0.3999066948890686,-0.7427492737770081
1761338337866909700,3.97290966796875,0.6992688179016113,-0.6267641186714172,-0.9368937015533447
1761338337876975900,3.982975830078125,0.6997883915901184,-0.8583731055259705,-1.1279175281524658
1761338337887040800,3.993040771484375,0.7076484560966492,-1.0791847705841064,-1.265315294265747
1761338337897107000,4.00310693359375,0.7360309958457947,-1.2009986639022827,-1.2975294589996338
1761338337907171800,4.013171875,0.7534393072128296,-1.2274938821792603,-1.2360668182373047
1761338337917237800,4.02323779296875,0.7569201588630676,-1.1775208711624146,-1.086080551147461
1761338337927303000,4.033302978515625,0.7475003004074097,-1.0050716400146484,-0.8770310282707214
1761338337937367600,4.043367431640625,0.7436965107917786,-0.7250462174415588,-0.6511377096176147
1761338337947432400,4.053432373046875,0.7471104264259338,-0.4307725429534912,-0.4616122245788574
1761338337957498600,4.06349853515625,0.7385576367378235,-0.16208413243293762,-0.3147995173931122
1761338337967564500,4.073564453125,0.6972128748893738,0.06858396530151367,-0.21522442996501923
1761338337977629700,4.083629638671875,0.6223872303962708,0.24549442529678345,-0.15590859949588776
1761338337987695600,4.093695556640625,0.5114625692367554,0.4011463224887848,-0.1362624615430832
1761338337997760500,4.103760498046875,0.3806666135787964,0.5227502584457397,-0.15687249600887299
1761338338007826700,4.11382666015625,0.25887972116470337,0.5781884789466858,-0.21902666985988617
1761338338017892600,4.123892578125,0.1628846675157547,0.5513353943824768,-0.31027957797050476
1761338338027957800,4.133957763671875,0.10465651005506516,0.47599780559539795,-0.4045557379722595
1761338338038023700,4.144023681640625,0.0666588619351387,0.3949950337409973,-0.4809379577636719
1761338338048088600,4.154088623046875,0.034068167209625244,0.31479713320732117,-0.5352155566215515
1761338338058154500,4.164154541015625,-0.0070924097672104836,0.20740367472171783,-0.5692618489265442
1761338338068220700,4.174220703125,-0.060735128819942474,0.1115354672074318,-0.5640212297439575
1761338338078285600,4.18428564453125,-0.11120099574327469,0.04877486824989319,-0.52386075258255
1761338338088351500,4.1943515625,-0.15974749624729156,-0.01969793438911438,-0.48156309127807617
1761338338098416600,4.204416748046875,-0.19630461931228638,-0.08670549839735031,-0.45087558031082153
1761338338108482600,4.214482666015625,-0.2171212136745453,-0.1441674530506134,-0.43419620394706726
1761338338118547700,4.224547607421875,-0.09509671479463577,-0.33832499384880066,-0.4033872187137604
1761338338128613600,4.234613525390625,-0.16044163703918457,-0.39145025610923767,-0.4527513086795807
1761338338138679600,4.244679443359375,-0.2934740483760834,-0.20434558391571045,-0.5436882972717285
1761338338148744700,4.25474462890625,-0.30692702531814575,-0.10786271840333939,-0.584300696849823
1761338338158810600,4.264810546875,-0.27837425470352173,-0.11941137164831161,-0.5533108115196228
1761338338168875800,4.274875732421875,-0.2801535129547119,-0.09088998287916183,-0.5152180194854736
1761338338178941400,4.28494140625,-0.31288331747055054,-0.041459113359451294,-0.5025758743286133
1761338338189007600,4.295007568359375,-0.3442380428314209,-0.04701206833124161,-0.4995785355567932
1761338338199072500,4.305072509765625,-0.35575032234191895,-0.08533698320388794,-0.47352245450019836
1761338338209138700,4.315138671875,-0.3373417556285858,-0.1640930324792862,-0.39500313997268677
1761338338219203600,4.32520361328125,-0.28766635060310364,-0.2542932629585266,-0.24135339260101318
1761338338229269500,4.33526953125,-0.22962410748004913,-0.2990463376045227,-0.048906177282333374
1761338338239335400,4.34533544921875,-0.20432978868484497,-0.3814503252506256,0.1259683221578598
1761338338249400600,4.355400634765625,-0.21385511755943298,-0.48069247603416443,0.23021483421325684
1761338338259466800,4.365466796875,-0.3152770698070526,-0.535839855670929,0.2657501697540283
1761338338269531400,4.375531494140625,-0.5428462624549866,-0.42789292335510254,0.21901676058769226
1761338338279597600,4.38559765625,-0.7845417261123657,-0.16500899195671082,0.12987087666988373
1761338338289663500,4.39566357421875,-0.9401156306266785,-0.013851960189640522,0.022207528352737427
1761338338299729700,4.405729736328125,-0.9898312091827393,-0.06330850720405579,-0.08405108749866486
1761338338309794600,4.415794677734375,-0.9294731020927429,-0.22338980436325073,-0.15381285548210144
1761338338319860700,4.42586083984375,-0.8086619973182678,-0.3682715594768524,-0.1847459077835083
1761338338329926400,4.435926513671875,-0.6766035556793213,-0.4735196828842163,-0.15085026621818542
1761338338339991600,4.445991455078125,-0.5763679146766663,-0.4633553624153137,-0.06273438036441803
1761338338350057700,4.4560576171875,-0.494274377822876,-0.33428046107292175,0.06098782643675804
1761338338360122600,4.46612255859375,-0.390455037355423,-0.1332937479019165,0.19366487860679626
1761338338370188800,4.476188720703125,-0.2515208423137665,0.05615207552909851,0.32434672117233276
1761338338380254500,4.48625439453125,-0.08167435228824615,0.17039640247821808,0.4432329535484314
1761338338390319600,4.496319580078125,0.09299306571483612,0.23393836617469788,0.5635993480682373
1761338338400385500,4.506385498046875,0.24703121185302734,0.2319319248199463,0.6908698081970215
1761338338410450700,4.51645068359375,0.3576621115207672,0.17049545049667358,0.8344538807868958
1761338338420516600,4.5265166015625,0.4082028269767761,0.08467236906290054,0.9796304702758789
1761338338430582500,4.53658251953125,0.4046379327774048,0.0037980275228619576,1.0815236568450928
1761338338440647700,4.546647705078125,0.36039793491363525,-0.041605375707149506,1.0958589315414429
1761338338450713600,4.556713623046875,0.3095507323741913,-0.0354209840297699,0.9762606024742126
1761338338460778800,4.56677880859375,0.2378273904323578,-0.0024715783074498177,0.7265763878822327
1761338338470844400,4.576844482421875,0.1524626910686493,0.03731871023774147,0.3854997456073761
1761338338480910600,4.58691064453125,0.0545913502573967,0.06162864714860916,0.02304741181433201
1761338338490975700,4.596975830078125,-0.04201614856719971,0.04440971463918686,-0.31349146366119385
1761338338501041700,4.607041748046875,-0.1298016905784607,-0.05894208699464798,-0.5961894392967224
1761338338511106600,4.6171064453125,-0.20761419832706451,-0.2930464446544647,-0.8027839064598083
1761338338521172500,4.62717236328125,-0.26876699924468994,-0.5592732429504395,-0.9386157989501953
1761338338531237600,4.637237548828125,-0.31792789697647095,-0.7680040597915649,-0.9860783815383911
1761338338541303600,4.647303466796875,-0.357014536857605,-0.8571833968162537,-0.9549921154975891
1761338338551369700,4.65736962890625,-0.28207293152809143,-0.68829345703125,-0.9006074070930481
1761338338561434600,4.6674345703125,-0.06916490942239761,-0.1621658056974411,-0.9671944379806519
1761338338571500500,4.67750048828125,0.014958228915929794,0.19855058193206787,-0.9703699946403503
1761338338581565700,4.687565673828125,-0.08889096975326538,0.20902591943740845,-0.6459581255912781
1761338338591631600,4.697631591796875,-0.1579376757144928,0.23807647824287415,-0.11987090110778809
1761338338601697800,4.70769775390625,-0.17459343373775482,0.2637208104133606,0.39479413628578186
1761338338611762400,4.717762451171875,-0.16765137016773224,0.1666019856929779,0.7583651542663574
1761338338621828600,4.72782861328125,-0.13588391244411469,0.05546973645687103,0.9190651178359985
1761338338631893800,4.737893798828125,-0.0922727957367897,0.0224931463599205,0.925615131855011
1761338338641959700,4.747959716796875,-0.03026323951780796,0.02637432888150215,0.8189167380332947
1761338338652025600,4.758025634765625,0.0444759801030159,0.02318919077515602,0.6311603784561157
1761338338662090500,4.768090576171875,0.1303611844778061,-0.014269690960645676,0.40398362278938293
1761338338672156700,4.77815673828125,0.21984338760375977,-0.09998433291912079,0.18249595165252686
1761338338682221600,4.7882216796875,0.2892462909221649,-0.208473339676857,-0.01747935637831688
1761338338692287700,4.798287841796875,0.33895283937454224,-0.3057311773300171,-0.168121337890625
1761338338702353700,4.808353759765625,0.3607751727104187,-0.37126946449279785,-0.26402077078819275
1761338338712418600,4.81841845703125,0.3581854999065399,-0.41923967003822327,-0.3258684277534485
1761338338722484500,4.828484375,0.3449222147464752,-0.46908724308013916,-0.35549426078796387
1761338338732549600,4.838549560546875,0.305220365524292,-0.4918074905872345,-0.34537583589553833
1761338338742615800,4.84861572265625,0.2452920526266098,-0.4814586043357849,-0.2958906292915344
1761338338752681500,4.858681396484375,0.18296051025390625,-0.45763424038887024,-0.24059194326400757
1761338338762746600,4.86874658203125,0.16742414236068726,-0.41008618474006653,-0.1919807493686676
1761338338772812500,4.8788125,0.1934451013803482,-0.3037205934524536,-0.15573139488697052
1761338338782877700,4.888877685546875,0.21953946352005005,-0.17460596561431885,-0.09404025226831436
1761338338792943600,4.898943603515625,0.22817502915859222,-0.051033951342105865,-0.003893580986186862
1761338338803009500,4.909009521484375,0.224278062582016,0.06816666573286057,0.08629411458969116
1761338338813074700,4.91907470703125,0.22679688036441803,0.19169259071350098,0.15888682007789612
1761338338823140600,4.929140625,0.25363054871559143,0.3194083273410797,0.176381453871727
1761338338833205800,4.939205810546875,0.29741156101226807,0.44682222604751587,0.12864668667316437
1761338338843271400,4.949271484375,0.4110528826713562,0.519767165184021,0.039379168301820755
1761338338853337600,4.959337646484375,0.5675346255302429,0.515511155128479,-0.07907530665397644
1761338338863402500,4.969402587890625,0.6220470666885376,0.4462864100933075,-0.17615175247192383
1761338338873468700,4.97946875,0.4326587915420532,0.3574953079223633,-0.2504427433013916
1761338338883533800,4.989533935546875,0.020424138754606247,0.20431385934352875,-0.2532702684402466
1761338338893599500,4.999599609375,-0.4463571608066559,0.07494628429412842,-0.16967150568962097
1761338338903665700,5.009665771484375,-0.8228231072425842,0.01872318983078003,0.00038215983659029007
1761338338913730600,5.01973046875,-1.0306810140609741,-0.008606702089309692,0.21795949339866638
1761338338923796700,5.029796630859375,-1.0986589193344116,-0.047121912240982056,0.48145604133605957
1761338338933861600,5.039861572265625,-1.111247181892395,-0.026591870933771133,0.7210845947265625
1761338338943927800,5.049927734375,-0.9660655856132507,0.14556121826171875,0.8806062936782837
1761338338953993700,5.05999365234375,-0.6541175842285156,0.457454651594162,0.9611602425575256
1761338338964059000,5.070058837890625,-0.23481032252311707,0.8100654482841492,0.8873209357261658
1761338338974124800,5.080124755859375,0.13087151944637299,0.8824096918106079,0.7754508256912231
1761338338984189700,5.090189697265625,0.3961658775806427,0.7503045797348022,0.6783190965652466
1761338338994256000,5.100255859375,0.5698359608650208,0.484470009803772,0.6021194458007812
1761338339004320800,5.11032080078125,0.6032367944717407,0.1535254716873169,0.5303794145584106
1761338339014387000,5.120386962890625,0.5237882733345032,-0.1728699505329132,0.4353381395339966
1761338339024452900,5.130452880859375,0.4191790819168091,-0.39882519841194153,0.2756408452987671
1761338339034517800,5.140517822265625,0.39215439558029175,-0.39329832792282104,-0.015478067100048065
1761338339044583700,5.150583740234375,0.4880814552307129,-0.12234514206647873,-0.45013871788978577
1761338339054648800,5.16064892578125,0.605076253414154,0.027263790369033813,-0.7154106497764587
1761338339064715000,5.170715087890625,0.5651600360870361,0.09426775574684143,-0.6349316835403442
1761338339074781000,5.180781005859375,0.47748926281929016,0.310422420501709,-0.35602498054504395
1761338339084845800,5.190845703125,0.43796446919441223,0.45079895853996277,0.012575975619256496
1761338339094911700,5.200911865234375,0.37122777104377747,0.4649163782596588,0.37226489186286926
1761338339104977000,5.210976806640625,0.2839893102645874,0.42298245429992676,0.6623733639717102
1761338339115042800,5.221042724609375,0.2826865017414093,0.39964622259140015,0.8335847854614258
1761338339125109000,5.23110888671875,0.33570605516433716,0.35945212841033936,0.8917370438575745
1761338339135174000,5.241173828125,0.41560620069503784,0.30324745178222656,0.8832434415817261
1761338339145239800,5.25123974609375,0.5296568274497986,0.23747886717319489,0.8450335264205933
1761338339155305000,5.261304931640625,0.6586412191390991,0.19088713824748993,0.7539105415344238
1761338339165371000,5.271370849609375,0.7691253423690796,0.15575897693634033,0.5853130221366882
1761338339175436800,5.281436767578125,0.8572307229042053,0.11990509182214737,0.36751413345336914
1761338339185501700,5.291501708984375,0.9109838604927063,0.07068763673305511,0.10034477710723877
1761338339195567900,5.30156787109375,0.9109761714935303,-0.0028515681624412537,-0.20046937465667725
1761338339205633000,5.311633056640625,0.8535355925559998,-0.09247097373008728,-0.5338005423545837
1761338339215699000,5.321698974609375,0.7402479648590088,-0.23848409950733185,-0.8820387125015259
1761338339225763800,5.331763916015625,0.5840318202972412,-0.4887911379337311,-1.220579981803894
1761338339235829800,5.341829833984375,0.4353552758693695,-0.7206589579582214,-1.5040254592895508
1761338339245896000,5.35189599609375,0.31963619589805603,-0.89654141664505,-1.6835572719573975
1761338339255960800,5.3619609375,0.2452024519443512,-0.9662418961524963,-1.732097864151001
1761338339266026800,5.37202685546875,0.21429625153541565,-0.89577317237854,-1.5682239532470703
1761338339276092000,5.382091796875,0.20045927166938782,-0.7133037447929382,-1.1750279664993286
1761338339286157800,5.39215771484375,0.1762598305940628,-0.5152100920677185,-0.6146769523620605
1761338339296224000,5.40222412109375,0.1394789218902588,-0.25984546542167664,-0.08255023509263992
1761338339306289000,5.412288818359375,0.14234744012355804,0.018981147557497025,0.29450011253356934
1761338339316354800,5.422354736328125,0.16552279889583588,0.2599436938762665,0.5206496119499207
1761338339326419700,5.432419677734375,0.20644384622573853,0.4788230359554291,0.6244492530822754
1761338339336486000,5.44248583984375,0.25867190957069397,0.6513290405273438,0.5996149778366089
1761338339346551800,5.4525517578125,0.3032456934452057,0.7077465057373047,0.479615181684494
1761338339356616700,5.46261669921875,0.3204542398452759,0.6865970492362976,0.3189445436000824
1761338339366683000,5.472682861328125,0.3148733973503113,0.657147228717804,0.15903176367282867
1761338339376747800,5.482747802734375,0.2906056046485901,0.5984463691711426,0.009640143252909184
1761338339386814000,5.49281396484375,0.2600926160812378,0.4911360740661621,-0.12210392951965332
1761338339396880000,5.5028798828125,0.23667968809604645,0.34891238808631897,-0.24018768966197968
1761338339406944800,5.51294482421875,0.20985788106918335,0.16944795846939087,-0.34575027227401733
1761338339417010700,5.5230107421875,0.17584559321403503,-0.04844949021935463,-0.46192723512649536
1761338339427075800,5.533075927734375,0.14886075258255005,-0.2196149080991745,-0.5598017573356628
1761338339437142000,5.54314208984375,0.13284237682819366,-0.31726449728012085,-0.6371745467185974
1761338339447208000,5.5532080078125,0.11739940196275711,-0.3869498074054718,-0.724564254283905
1761338339457272800,5.56327294921875,0.1051214337348938,-0.43924203515052795,-0.8094695806503296
1761338339467338800,5.5733388671875,0.09772232174873352,-0.43162259459495544,-0.8792371153831482
1761338339477404000,5.58340380859375,0.1041911393404007,-0.3485785722732544,-0.8868407011032104
1761338339487469800,5.5934697265625,0.12347272783517838,-0.1642720103263855,-0.8093406558036804
1761338339497536000,5.603535888671875,0.1409049779176712,0.05813842639327049,-0.6573295593261719
1761338339507601000,5.613600830078125,0.154433935880661,0.25360092520713806,-0.4730317294597626
1761338339517666800,5.623666748046875,0.16918091475963593,0.398103803396225,-0.2671408951282501
1761338339527732000,5.63373193359375,0.25372523069381714,0.4989154040813446,-0.06713760644197464
1761338339537798000,5.6437978515625,0.5268558263778687,0.5589215159416199,0.10153555870056152
1761338339547862800,5.65386279296875,0.6971707344055176,0.532889187335968,0.19710716605186462
1761338339557928700,5.6639287109375,0.42795419692993164,0.416002482175827,0.31227797269821167
1761338339567995000,5.673994873046875,-0.008921071887016296,0.3698379397392273,0.5013325810432434
1761338339578060000,5.68406005859375,-0.345748633146286,0.29909610748291016,0.6564496755599976
1761338339588126000,5.6941259765625,-0.5383330583572388,0.07551988959312439,0.6604330539703369
1761338339598190800,5.70419091796875,-0.5754402279853821,-0.05839795991778374,0.5107325315475464
1761338339608256800,5.7142568359375,-0.5311013460159302,-0.1012328490614891,0.34928566217422485
1761338339618323000,5.724322998046875,-0.458516389131546,-0.13130977749824524,0.21584664285182953
1761338339628387800,5.734387939453125,-0.37439078092575073,-0.09285415709018707,0.06719587743282318
1761338339638454000,5.7444541015625,-0.2959606945514679,-0.08715259283781052,-0.0925450548529625
1761338339648519000,5.754518798828125,-0.26255565881729126,-0.13709354400634766,-0.23688596487045288
1761338339658584800,5.764584716796875,-0.3345624506473541,-0.2118775099515915,-0.335761159658432
1761338339668650800,5.774650634765625,-0.503536581993103,-0.14586183428764343,-0.5101661682128906
1761338339678716000,5.7847158203125,-0.6193760633468628,-0.2653091549873352,-0.6513142585754395
1761338339688781800,5.79478173828125,-0.6830313205718994,-0.613716721534729,-0.6638739109039307
1761338339698846700,5.8048466796875,-0.6388729214668274,-0.9944592714309692,-0.5877591371536255
1761338339708913000,5.814912841796875,-0.5725573301315308,-1.226701259613037,-0.5158137679100037
1761338339718978800,5.824978759765625,-0.5613070726394653,-1.1328258514404297,-0.5214778184890747
1761338339729044000,5.8350439453125,-0.5939879417419434,-0.8300623893737793,-0.5654725432395935
1761338339739109600,5.845109619140625,-0.6091112494468689,-0.48174089193344116,-0.5494520664215088
1761338339749174800,5.8551748046875,-0.5623631477355957,-0.2794473469257355,-0.34908679127693176
1761338339759241000,5.865240966796875,-0.35494527220726013,-0.08222454786300659,-0.021547526121139526
1761338339769307000,5.875306884765625,-0.06721179932355881,0.09281186014413834,0.37562888860702515
1761338339779371800,5.885371826171875,0.10760901123285294,0.13506318628787994,0.7659359574317932
1761338339789437700,5.895437744140625,0.034330517053604126,0.12174220383167267,1.056951880455017
1761338339799502800,5.9055029296875,-0.2452814131975174,0.09356275945901871,1.2162967920303345
1761338339809568800,5.91556884765625,-0.45831236243247986,0.10599783807992935,1.2301077842712402
1761338339819635000,5.925635009765625,-0.43072229623794556,0.16272316873073578,1.1024976968765259
1761338339829699800,5.935699951171875,-0.23898565769195557,0.12311065196990967,0.926602840423584
1761338339839765800,5.945765869140625,-0.0015712413005530834,0.07916290313005447,0.7553786635398865
1761338339849831000,5.955830810546875,0.16594266891479492,0.09614909440279007,0.6229960322380066
1761338339859896800,5.965896728515625,0.20097601413726807,0.18471330404281616,0.5273110866546631
1761338339869961700,5.975961669921875,0.1465490162372589,0.2518088221549988,0.4504799246788025
1761338339880027600,5.986027587890625,0.06748748570680618,0.2274283915758133,0.3717358410358429
1761338339890093800,5.99609375,-0.00629834458231926,0.10786904394626617,0.27038636803627014
1761338339900159000,6.006158935546875,-0.08462829887866974,-0.08107637614011765,0.13052301108837128
1761338339910225000,6.016224853515625,-0.1785583198070526,-0.2871997356414795,-0.04978254809975624
1761338339920289800,6.026289794921875,-0.28878068923950195,-0.46257662773132324,-0.22985538840293884
1761338339930356000,6.03635595703125,-0.4064332842826843,-0.5849846005439758,-0.3949063718318939
1761338339940422100,6.046422119140625,-0.5147535800933838,-0.6131126284599304,-0.5133160948753357
1761338339950486800,6.05648681640625,-0.5728528499603271,-0.5536496043205261,-0.5925995707511902
1761338339960553000,6.066552978515625,-0.5585852265357971,-0.4662334620952606,-0.6517044305801392
1761338339970618000,6.0766181640625,-0.48470595479011536,-0.3704817593097687,-0.6836931705474854
1761338339980684000,6.08668408203125,-0.33352044224739075,-0.24666181206703186,-0.6848751306533813
1761338339990750000,6.09675,-0.11697287857532501,-0.06452959775924683,-0.6451613306999207
1761338340000814800,6.10681494140625,0.15446874499320984,0.17369309067726135,-0.5708852410316467
1761338340010881000,6.116881103515625,0.5662532448768616,0.4879300892353058,-0.49458929896354675
1761338340020946000,6.12694580078125,0.9820717573165894,0.5042884945869446,-0.3437374532222748
1761338340031012000,6.13701220703125,1.0470857620239258,0.3732559382915497,-0.16341271996498108
1761338340041078000,6.147078125,0.628078818321228,0.27727481722831726,0.08091713488101959
1761338340051143000,6.157142822265625,0.09316916763782501,0.2401423305273056,0.30375945568084717
1761338340061209000,6.167208984375,-0.23195061087608337,0.2069026082754135,0.3353501260280609
1761338340071274000,6.17727392578125,-0.32972198724746704,0.09785418957471848,0.2585521340370178
1761338340081340200,6.187340087890625,-0.2889159619808197,-0.030806049704551697,0.1677929013967514
1761338340091405800,6.19740576171875,-0.2156308889389038,-0.13694068789482117,0.09922190755605698
1761338340101471000,6.207470947265625,-0.16277405619621277,-0.1946982592344284,0.059807926416397095
1761338340111537000,6.217536865234375,-0.1302620768547058,-0.22561605274677277,0.0428043007850647
1761338340121602000,6.22760205078125,-0.08755721896886826,-0.27365949749946594,0.04036084935069084
1761338340131668000,6.23766796875,-0.037565093487501144,-0.3437057137489319,0.07441674917936325
1761338340141734000,6.24773388671875,-0.0003029429353773594,-0.37646713852882385,0.12723441421985626
1761338340151799000,6.257799072265625,0.026498477905988693,-0.3312288820743561,0.1371883600950241
1761338340161865000,6.267864990234375,0.043838851153850555,-0.2548390328884125,0.12273645401000977
1761338340171930000,6.27793017578125,0.04666098579764366,-0.18301056325435638,0.1003115326166153
1761338340181995800,6.287995849609375,0.05296282470226288,-0.1333194375038147,0.10535689443349838
1761338340192061000,6.29806103515625,0.07214347273111343,-0.11271338164806366,0.12856550514698029
1761338340202127000,6.308127197265625,0.10718055814504623,-0.129944309592247,0.14677220582962036
1761338340212193000,6.318193115234375,0.15832963585853577,-0.1625884473323822,0.1336115598678589
1761338340222258200,6.328258056640625,0.24148844182491302,-0.14936025440692902,0.08629223704338074
1761338340232323800,6.33832373046875,0.3475053310394287,-0.05151311308145523,0.013323064893484116
1761338340242389000,6.348388916015625,0.45067352056503296,0.09262782335281372,-0.05802568420767784
1761338340252455000,6.358454833984375,0.5491787791252136,0.22890441119670868,-0.12886495888233185
1761338340262521000,6.36852099609375,0.6434794664382935,0.37134331464767456,-0.20613710582256317
1761338340272586000,6.3785859375,0.7248721122741699,0.5392894148826599,-0.29679837822914124
1761338340282652000,6.38865185546875,0.7994174957275391,0.6662835478782654,-0.40050002932548523
1761338340292717000,6.398717041015625,0.7609469890594482,0.5715436339378357,-0.4349794089794159
1761338340302783000,6.408782958984375,0.523948073387146,0.3440138101577759,-0.37733447551727295
1761338340312849200,6.41884912109375,0.1140807718038559,0.09550485759973526,-0.16696885228157043
1761338340322913800,6.428913818359375,-0.26517945528030396,-0.1061028242111206,0.15040990710258484
1761338340332980000,6.43897998046875,-0.5238917469978333,-0.3485416769981384,0.4741746783256531
1761338340343045000,6.449045166015625,-0.6887720227241516,-0.5618944764137268,0.7447899580001831
1761338340353111000,6.459111083984375,-0.6061712503433228,-0.4671267569065094,0.9393656253814697
1761338340363177000,6.469177001953125,-0.23369301855564117,-0.1712019145488739,1.070777177810669
1761338340373241900,6.479241943359375,0.237644225358963,0.10331472754478455,1.1479665040969849
1761338340383308000,6.48930810546875,0.6543183922767639,0.23508420586585999,1.1423053741455078
1761338340393373000,6.499373046875,0.9118543267250061,0.1830368936061859,1.1245346069335938
1761338340403439000,6.509439208984375,0.9852127432823181,0.047583188861608505,1.122253656387329
1761338340413505000,6.519505126953125,0.9989432096481323,-0.0812656506896019,1.081249713897705
1761338340423570000,6.52956982421875,0.9792102575302124,-0.19950175285339355,0.9300734996795654
1761338340433635800,6.5396357421875,0.9197332859039307,-0.25233298540115356,0.7046875357627869
1761338340443701000,6.549700927734375,0.8375664949417114,-0.18544688820838928,0.4502478241920471
1761338340453767200,6.55976708984375,0.7403349280357361,-0.021303702145814896,0.2039707452058792
1761338340463831800,6.569831787109375,0.6705241799354553,0.15855979919433594,-0.004588326904922724
1761338340473898000,6.57989794921875,0.6791321039199829,0.32082438468933105,-0.14139902591705322
1761338340483964000,6.5899638671875,0.7721421718597412,0.48774254322052,-0.1883755922317505
1761338340494029000,6.600029052734375,0.9504430890083313,0.6759286522865295,-0.15636339783668518
1761338340504095000,6.610094970703125,1.3009212017059326,0.8513550758361816,-0.07640890777111053
1761338340514159900,6.620159912109375,1.7150967121124268,0.844207227230072,0.07292933017015457
1761338340524226000,6.63022607421875,1.9857885837554932,0.568722128868103,0.3487912714481354
1761338340534292000,6.6402919921875,1.8255863189697266,0.15594542026519775,0.7240145206451416
1761338340544357000,6.650357177734375,1.4747123718261719,-0.11983663588762283,1.0649867057800293
1761338340554422800,6.6604228515625,1.233306646347046,-0.04144032672047615,1.1273000240325928
1761338340564488000,6.670488037109375,1.1506762504577637,0.08144991099834442,0.9720124006271362
1761338340574553900,6.680553955078125,1.1941907405853271,0.15519866347312927,0.7112462520599365
1761338340584620000,6.6906201171875,1.3110377788543701,0.2649957239627838,0.4511217474937439
1761338340594685200,6.700685302734375,1.457431674003601,0.3881717026233673,0.22080732882022858
1761338340604750800,6.710750732421875,1.552562952041626,0.42746320366859436,0.022214338183403015
1761338340614816000,6.72081591796875,1.5221328735351562,0.3234388828277588,-0.10021821409463882
1761338340624882000,6.7308818359375,1.4220893383026123,0.1316009759902954,-0.1632259488105774
1761338340634948000,6.740947998046875,1.309062123298645,-0.12378484755754471,-0.2313546985387802
1761338340645012700,6.7510126953125,1.1997852325439453,-0.4618121385574341,-0.3657447397708893
1761338340655079000,6.761078857421875,1.110100269317627,-0.7943686246871948,-0.5844221711158752
1761338340665144000,6.77114404296875,1.0365967750549316,-1.0106303691864014,-0.8301853537559509
1761338340675210000,6.7812099609375,0.9808348417282104,-1.0602500438690186,-1.0593785047531128
1761338340685276000,6.79127587890625,0.9335347414016724,-0.951593816280365,-1.2163591384887695
1761338340695340800,6.8013408203125,0.9080700278282166,-0.6364537477493286,-1.2543039321899414
1761338340705407000,6.811406982421875,0.9219517707824707,-0.19796164333820343,-1.1656824350357056
1761338340715472000,6.821471923828125,0.9655201435089111,0.21036532521247864,-0.9726980328559875
1761338340725538000,6.8315380859375,1.016923427581787,0.5215955972671509,-0.7189840078353882
1761338340735603000,6.84160302734375,1.0565236806869507,0.7366809844970703,-0.4291841983795166
1761338340745668900,6.8516689453125,1.069131851196289,0.9064300656318665,-0.1388876587152481
1761338340755735000,6.861735107421875,1.0812896490097046,1.0227206945419312,0.10177798569202423
1761338340765800000,6.871800048828125,1.099120855331421,1.0665723085403442,0.2611796259880066
1761338340775866000,6.8818662109375,1.142850637435913,1.042734980583191,0.33353516459465027
1761338340785930800,6.8919306640625,1.2232155799865723,0.9684631824493408,0.33417779207229614
1761338340795997000,6.901996826171875,1.4341264963150024,0.8222872614860535,0.29132533073425293
1761338340806062800,6.912062744140625,1.7635952234268188,0.7158843874931335,0.12543834745883942
1761338340816128000,6.9221279296875,1.640829086303711,0.5828025341033936,-0.14514175057411194
1761338340826194000,6.93219384765625,1.2173912525177002,0.42961111664772034,-0.35534611344337463
1761338340836258800,6.9422587890625,0.9278174042701721,0.40844061970710754,-0.5148065090179443
1761338340846325000,6.952324951171875,0.795580267906189,0.25425636768341064,-0.6601117849349976
1761338340856391000,6.962390869140625,0.7766258716583252,0.033888671547174454,-0.7825316190719604
1761338340866456000,6.9724560546875,0.8538567423820496,-0.07347160577774048,-0.8898388743400574
1761338340876522000,6.98252197265625,0.9901533126831055,-0.11647266149520874,-0.9102529883384705
1761338340886587000,6.9925869140625,1.1368076801300049,-0.15387409925460815,-0.8305962085723877
1761338340896653000,7.002653076171875,1.2613458633422852,-0.17598657310009003,-0.6766355633735657
1761338340906719000,7.012718994140625,1.368349552154541,-0.16355253756046295,-0.468848317861557
1761338340916784000,7.0227841796875,1.4519784450531006,-0.13868092000484467,-0.22967897355556488
1761338340926850000,7.03285009765625,1.4830232858657837,-0.13023389875888824,0.0009047030471265316
1761338340936915200,7.042915283203125,1.4708869457244873,-0.13771089911460876,0.1604226976633072
1761338340946981000,7.052981201171875,1.4451954364776611,-0.18822306394577026,0.26832783222198486
1761338340957047000,7.063047119140625,1.4623126983642578,-0.29113563895225525,0.3548576235771179
1761338340967112200,7.0731123046875,1.5151662826538086,-0.4053913652896881,0.4248705208301544
1761338340977178000,7.08317822265625,1.5735183954238892,-0.5454902052879333,0.4814324975013733
1761338340987243300,7.0932431640625,1.5700017213821411,-0.6846328973770142,0.5359183549880981
1761338340997309200,7.10330908203125,1.5250073671340942,-0.769152045249939,0.5445220470428467
1761338341007375000,7.113375,1.4384655952453613,-0.8578851222991943,0.5097004175186157
1761338341017440000,7.12343994140625,1.3112573623657227,-0.9788771867752075,0.4776466190814972
1761338341027506200,7.133506103515625,1.1631951332092285,-1.0684741735458374,0.4352107346057892
1761338341037571000,7.143571044921875,1.0082892179489136,-1.1021194458007812,0.38859227299690247
1761338341047637000,7.153636962890625,0.8893603682518005,-1.0413506031036377,0.32187288999557495
1761338341057702100,7.1637021484375,0.830585241317749,-0.9087924957275391,0.20488250255584717
1761338341067768000,7.17376806640625,0.827216625213623,-0.7300112843513489,0.0679885596036911
1761338341077834200,7.183834228515625,0.900114119052887,-0.4648004174232483,-0.026775307953357697
1761338341087899100,7.193899169921875,1.0864450931549072,-0.16764676570892334,0.01971842348575592
1761338341097965000,7.203965087890625,1.4078733921051025,0.05635105073451996,0.3010241687297821
1761338341108030200,7.2140302734375,1.7580196857452393,0.021632755175232887,0.8146600723266602
1761338341118096100,7.22409619140625,1.9763294458389282,-0.3139249384403229,1.4334081411361694
1761338341128162000,7.234162109375,2.0333847999572754,-0.6364039182662964,1.9319372177124023
1761338341138227000,7.24422705078125,1.985791802406311,-0.7373943328857422,2.058047294616699
1761338341148293000,7.254293212890625,1.9147299528121948,-0.5935266613960266,1.7899789810180664
1761338341158358000,7.26435791015625,1.8616595268249512,-0.29420197010040283,1.2384953498840332
1761338341168424200,7.274424072265625,1.7989479303359985,0.03840101882815361,0.5755624175071716
1761338341178490000,7.284489990234375,1.7128084897994995,0.3178766071796417,-0.02124670147895813
1761338341188555000,7.294554931640625,1.6501272916793823,0.47961756587028503,-0.4688316881656647
1761338341198621000,7.304620849609375,1.6473854780197144,0.46643221378326416,-0.7786861062049866
1761338341208686000,7.31468603515625,1.692000389099121,0.31706908345222473,-0.9655422568321228
1761338341218752300,7.324752197265625,1.7494933605194092,0.12336323410272598,-1.0150647163391113
1761338341228818200,7.334818115234375,1.7706830501556396,-0.0631515234708786,-0.9139410853385925
1761338341238883000,7.344883056640625,1.7608520984649658,-0.2013513147830963,-0.6660553812980652
1761338341248949000,7.354948974609375,1.754948616027832,-0.2618982791900635,-0.3288035988807678
1761338341259014100,7.36501416015625,1.787768840789795,-0.24012812972068787,0.029900293797254562
1761338341269080000,7.375080078125,1.8703504800796509,-0.12772513926029205,0.3448164463043213
1761338341279146200,7.385146240234375,2.0421416759490967,0.1067284494638443,0.548180878162384
1761338341289211100,7.395211181640625,2.2630341053009033,0.3892810344696045,0.5889735817909241
1761338341299277000,7.405277099609375,2.4052624702453613,0.554390549659729,0.4913579225540161
1761338341309342200,7.41534228515625,2.434576988220215,0.6433899402618408,0.2875845730304718
1761338341319408000,7.425408203125,2.3810930252075195,0.5521342158317566,0.07594738155603409
1761338341329474300,7.435474365234375,2.310911178588867,0.4386252164840698,-0.15208552777767181
1761338341339539000,7.4455390625,2.2625367641448975,0.3170716166496277,-0.39156123995780945
1761338341349605000,7.455605224609375,2.203214645385742,0.19393876194953918,-0.6490617394447327
1761338341359670300,7.465670166015625,2.0968141555786133,0.11495976895093918,-0.8551771640777588
1761338341369736200,7.475736083984375,1.9242074489593506,0.11193948239088058,-0.971035897731781
1761338341379801000,7.485801025390625,1.7299926280975342,0.020103152841329575,-0.8953589200973511
1761338341389867000,7.495866943359375,1.5872379541397095,-0.0642562061548233,-0.6329182386398315
1761338341399933200,7.50593310546875,1.5215482711791992,-0.0728519931435585,-0.26475605368614197
1761338341409998000,7.515998046875,1.4875319004058838,-0.08087556064128876,0.14004391431808472
1761338341420064300,7.526064208984375,1.4854308366775513,-0.02416934072971344,0.4946484863758087
1761338341430129200,7.536129150390625,1.5096012353897095,0.07206051796674728,0.7422900199890137
1761338341440195000,7.546195068359375,1.5479966402053833,0.14987201988697052,0.8694490194320679
1761338341450261000,7.556260986328125,1.5972294807434082,0.18496768176555634,0.8887138366699219
1761338341460326100,7.566326171875,1.644447684288025,0.15404993295669556,0.8450182676315308
1761338341470392000,7.57639208984375,1.7364883422851562,0.06492671370506287,0.7906479239463806
1761338341480457000,7.58645703125,1.8041820526123047,-0.016418715938925743,0.6734524369239807
1761338341490523100,7.596523193359375,1.8575981855392456,-0.09573723375797272,0.5200601816177368
1761338341500589000,7.606589111328125,1.9114221334457397,-0.1502792239189148,0.35682213306427
1761338341510654200,7.616654296875,1.9628394842147827,-0.16635699570178986,0.18469326198101044
1761338341520720100,7.62672021484375,2.00964093208313,-0.16239507496356964,0.017054041847586632
1761338341530785000,7.636784912109375,2.0401906967163086,-0.1339826136827469,-0.1421145647764206
1761338341540851200,7.646851318359375,2.0630738735198975,-0.05788081884384155,-0.26934659481048584
1761338341550917000,7.656917236328125,2.063019275665283,0.0417427122592926,-0.351267546415329
1761338341560982000,7.66698193359375,2.0248281955718994,0.1386956125497818,-0.3839014172554016
1761338341571048000,7.6770478515625,1.9823648929595947,0.21910710632801056,-0.40139040350914
1761338341581113000,7.687113037109375,1.9446848630905151,0.2810010313987732,-0.42493554949760437
1761338341591179000,7.697178955078125,1.9025813341140747,0.2757519483566284,-0.453243613243103
1761338341601245200,7.7072451171875,1.871093988418579,0.2187511920928955,-0.44061630964279175
1761338341611310000,7.71731005859375,1.8619465827941895,0.15354794263839722,-0.3771829903125763
1761338341621376000,7.7273759765625,1.8520925045013428,0.10865465551614761,-0.25611042976379395
1761338341631441200,7.737441162109375,1.865303635597229,0.10056903213262558,-0.09039709717035294
1761338341641507000,7.747507080078125,1.897612452507019,0.10710509121417999,0.06924587488174438
1761338341651573200,7.7575732421875,1.9460357427597046,0.09506440907716751,0.22918467223644257
1761338341661638100,7.76763818359375,2.0182442665100098,0.06819305568933487,0.360417902469635
1761338341671704000,7.7777041015625,2.092738389968872,0.0391898974776268,0.4293849766254425
1761338341681769200,7.787769287109375,2.0786702632904053,-0.03201638534665108,0.4545089900493622
1761338341691835100,7.797835205078125,1.9290283918380737,-0.09994696825742722,0.42467546463012695
1761338341701900000,7.807900146484375,1.6472070217132568,-0.15456242859363556,0.3708838224411011
1761338341711966000,7.817966064453125,1.3194831609725952,-0.2359776645898819,0.36471354961395264
1761338341722032000,7.8280322265625,1.10288405418396,-0.25330600142478943,0.3910139203071594
1761338341732097000,7.838096923828125,1.004343867301941,-0.3168564736843109,0.4343257248401642
1761338341742163200,7.8481630859375,0.9545696973800659,-0.41179296374320984,0.4877449572086334
1761338341752228000,7.85822802734375,0.8897042274475098,-0.48817962408065796,0.5389553904533386
1761338341762294000,7.8682939453125,0.8125948309898376,-0.5005209445953369,0.6142740249633789
1761338341772360200,7.878360107421875,0.8625256419181824,-0.3630072772502899,0.6550304889678955
1761338341782425000,7.888425048828125,1.012892484664917,-0.23821035027503967,0.7126712203025818
1761338341792491300,7.8984912109375,1.2221330404281616,-0.20469287037849426,0.8167526125907898
1761338341802556200,7.90855615234375,1.3972249031066895,-0.2526127099990845,0.9364515542984009
1761338341812622000,7.9186220703125,1.5077881813049316,-0.19816678762435913,0.9326304793357849
1761338341822688000,7.92868798828125,1.626503348350525,0.08907114714384079,0.7940574884414673
1761338341832753200,7.938753173828125,1.7943480014801025,0.492765337228775,0.5587930679321289
1761338341842819300,7.9488193359375,1.890281319618225,0.8990437984466553,0.32389599084854126
1761338341852884000,7.958884033203125,1.912922739982605,1.175883173942566,0.17013409733772278
1761338341862950100,7.9689501953125,1.9095066785812378,1.230413556098938,0.08253295719623566
1761338341873016000,7.97901611328125,1.8906553983688354,1.0618549585342407,0.024078434333205223
1761338341883081200,7.989081298828125,1.816701889038086,0.6909939050674438,0.04362685978412628
1761338341893147000,7.99914697265625,1.7416998147964478,0.32997792959213257,0.07429449260234833
1761338341903212000,8.0092119140625,1.7483097314834595,0.2534743547439575,-0.13253885507583618
1761338341913277200,8.019277099609376,1.9960274696350098,0.7710838913917542,-0.9890999794006348
1761338341923343000,8.029343017578125,1.8737698793411255,0.09827634692192078,-0.7203645706176758
1761338341933409500,8.039409423828126,1.8062982559204102,-0.34497806429862976,0.023310907185077667
1761338341943474400,8.049474365234374,1.9973320960998535,-0.37371596693992615,0.7224660515785217
1761338341953540600,8.05954052734375,2.1733384132385254,-0.21381554007530212,1.2576756477355957
1761338341963605500,8.06960546875,2.244006633758545,-0.01224865298718214,1.6097955703735352
1761338341973671400,8.07967138671875,2.233602285385132,0.14048737287521362,1.7483829259872437
1761338341983737300,8.0897373046875,2.2036778926849365,0.22916951775550842,1.6669085025787354
1761338341993802500,8.099802490234374,2.1857359409332275,0.2983456552028656,1.4214537143707275
1761338342003868700,8.10986865234375,2.174208879470825,0.3508789837360382,1.0938735008239746
1761338342013933300,8.119933349609376,2.133746862411499,0.38431283831596375,0.7673697471618652
1761338342023999500,8.12999951171875,2.088412046432495,0.4075115919113159,0.48119595646858215
1761338342034064600,8.140064697265625,2.0497725009918213,0.40584471821784973,0.21237513422966003
1761338342044130600,8.150130615234374,2.00101375579834,0.34792211651802063,-0.04675046354532242
1761338342054196500,8.160196533203125,1.9580185413360596,0.2742484211921692,-0.27834588289260864
1761338342064261400,8.170261474609376,1.9293663501739502,0.2272280901670456,-0.48886632919311523
1761338342074327600,8.18032763671875,1.9132510423660278,0.2087971568107605,-0.6514315605163574
1761338342084392400,8.190392333984375,1.9010508060455322,0.22176392376422882,-0.7370213270187378
1761338342094458600,8.200458740234374,1.8990787267684937,0.2492075264453888,-0.7371065616607666
1761338342104524300,8.210524169921875,1.8812118768692017,0.2384357899427414,-0.6536663174629211
1761338342114589400,8.22058935546875,1.8750851154327393,0.18747620284557343,-0.5312000513076782
1761338342124655400,8.2306552734375,1.894226312637329,0.12479497492313385,-0.41208192706108093
1761338342134720500,8.240720458984375,1.9431051015853882,0.08095695078372955,-0.30582818388938904
1761338342144786400,8.250786376953124,2.005324602127075,0.0897708460688591,-0.22087515890598297
1761338342154852400,8.260852294921875,2.0440165996551514,0.12297353893518448,-0.14756658673286438
1761338342164917500,8.27091748046875,2.0376765727996826,0.15487580001354218,-0.10014501959085464
1761338342174983400,8.2809833984375,1.9991967678070068,0.20253093540668488,-0.08396125584840775
1761338342185048600,8.291048583984375,1.9600926637649536,0.24286223948001862,-0.0954163447022438
1761338342195114500,8.301114501953125,1.937272310256958,0.25274258852005005,-0.147862508893013
1761338342205180400,8.311180419921875,1.9174277782440186,0.2500509023666382,-0.21832628548145294
1761338342215245600,8.32124560546875,1.86384916305542,0.26733535528182983,-0.30310964584350586
1761338342225311500,8.3313115234375,1.7819364070892334,0.3069280982017517,-0.3781195282936096
1761338342235376400,8.34137646484375,1.6811567544937134,0.3530982732772827,-0.44118770956993103
1761338342245442300,8.3514423828125,1.5887786149978638,0.37020015716552734,-0.4772956967353821
1761338342255508500,8.361508544921875,1.5122742652893066,0.32564759254455566,-0.4858574867248535
1761338342265573400,8.371573486328124,1.4659028053283691,0.2410593330860138,-0.49023815989494324
1761338342275639600,8.3816396484375,1.5053168535232544,0.18968002498149872,-0.5478396415710449
1761338342285704400,8.391704345703126,1.6132720708847046,0.23453320562839508,-0.7087857723236084
1761338342295770400,8.401770263671875,1.6074442863464355,0.1449953317642212,-0.8412338495254517
1761338342305836500,8.41183642578125,1.5029029846191406,0.00787379965186119,-0.9313445091247559
1761338342315901400,8.4219013671875,1.3703523874282837,-0.05012984573841095,-0.9893636107444763
1761338342325967600,8.431967529296875,1.1893606185913086,-0.09301891177892685,-0.9969183206558228
1761338342336032500,8.442032470703126,0.9705235958099365,-0.16634133458137512,-0.9632370471954346
1761338342346098400,8.452098388671875,0.7858423590660095,-0.28548920154571533,-0.9177520275115967
1761338342356164400,8.462164306640625,0.6597917675971985,-0.4144226610660553,-0.8263600468635559
1761338342366229500,8.4722294921875,0.5662762522697449,-0.544542670249939,-0.6840983629226685
1761338342376295700,8.482295654296875,0.49731025099754333,-0.6076944470405579,-0.48504355549812317
1761338342386360300,8.4923603515625,0.43740373849868774,-0.6288428902626038,-0.250522643327713
1761338342396426500,8.502426513671875,0.3903134763240814,-0.6490584015846252,-0.029310638085007668
1761338342406491400,8.512491455078125,0.3742297887802124,-0.6634162664413452,0.1864699274301529
1761338342416557600,8.5225576171875,0.4141172766685486,-0.7012246251106262,0.38759133219718933
1761338342426623500,8.53262353515625,0.5123252868652344,-0.7667896151542664,0.5604653358459473
1761338342436688400,8.5426884765625,0.6416521668434143,-0.8381133675575256,0.6689960956573486
1761338342446754600,8.552754638671875,0.7315480709075928,-0.8627281188964844,0.7097862958908081
1761338342456819500,8.5628193359375,0.753042459487915,-0.8028029799461365,0.6435161828994751
1761338342466885600,8.5728857421875,0.7649518847465515,-0.6473724246025085,0.44691601395606995
1761338342476951300,8.582951416015625,0.7928215861320496,-0.5730909705162048,0.21375572681427002
1761338342487016400,8.593016357421876,0.8376352190971375,-0.7299520969390869,0.06579204648733139
1761338342497082400,8.603082275390625,0.8735378384590149,-1.000130534172058,0.006531387101858854
1761338342507147500,8.6131474609375,0.8575525283813477,-1.239374041557312,-0.024486249312758446
1761338342517213700,8.623213623046874,0.7714040279388428,-1.3460885286331177,-0.05296609550714493
1761338342527279400,8.633279296875,0.6563972234725952,-1.2555383443832397,-0.041402608156204224
1761338342537344500,8.643344482421876,0.5583862662315369,-1.030238389968872,0.08782754838466644
1761338342547410400,8.653410400390625,0.498476505279541,-0.770033061504364,0.29508334398269653
1761338342557475600,8.6634755859375,0.4496802091598511,-0.45493370294570923,0.46943411231040955
1761338342567541200,8.673541259765624,0.38783854246139526,-0.10315906256437302,0.5811434388160706
1761338342577607400,8.683607421875,0.35012099146842957,0.22531922161579132,0.5871861577033997
1761338342587672600,8.693672607421876,0.4344902038574219,0.47551852464675903,0.5357685089111328
1761338342597738500,8.703738525390625,0.6545767784118652,0.5961317420005798,0.4300124943256378
1761338342607803600,8.7138037109375,0.9631072878837585,0.5211977958679199,0.35189101099967957
1761338342617869300,8.723869384765624,1.287501573562622,0.28481030464172363,0.3489956259727478
1761338342627935500,8.733935546875,1.5773717164993286,-0.04283734783530235,0.4146750271320343
1761338342638000400,8.74400048828125,1.7914073467254639,-0.2723965048789978,0.40662670135498047
1761338342648066600,8.754066650390625,1.9038128852844238,-0.30794215202331543,0.27041760087013245
1761338342658131500,8.76413134765625,1.9557298421859741,-0.1725957840681076,-0.02063634619116783
1761338342668197400,8.774197265625,1.9569165706634521,0.06967846304178238,-0.4510679244995117
1761338342678263600,8.784263671875,1.8503656387329102,0.28944116830825806,-0.9390677213668823
1761338342688328400,8.794328369140626,1.5802277326583862,0.34712132811546326,-1.3493587970733643
1761338342698394600,8.80439453125,1.142232894897461,0.33361509442329407,-1.6101093292236328
1761338342708459300,8.814459228515625,0.7123575210571289,0.18066981434822083,-1.4915475845336914
1761338342718525400,8.824525390625,0.527137279510498,0.01570776104927063,-1.1006826162338257
1761338342728591400,8.83459130859375,0.5408002734184265,-0.02835318073630333,-0.6105117797851562
1761338342738656500,8.844656494140626,0.6634564399719238,0.0006473120301961899,-0.08272971212863922
1761338342748722400,8.854722412109375,0.8432210683822632,-0.023063475266098976,0.40457049012184143
1761338342758787300,8.864787353515625,0.9896776080131531,0.004423276521265507,0.7182801961898804
1761338342768853500,8.874853515625,1.152374029159546,0.06864981353282928,0.8881822228431702
1761338342778919400,8.88491943359375,1.2867976427078247,0.16390176117420197,0.9599123597145081
1761338342788984600,8.894984619140626,1.3791927099227905,0.2344849407672882,0.9596719741821289
1761338342799050500,8.905050537109375,1.4382860660552979,0.2346748262643814,0.8997434377670288
1761338342809115400,8.915115478515625,1.4937254190444946,0.17721185088157654,0.7686241269111633
1761338342819181600,8.925181640625,1.529340147972107,0.07536617666482925,0.5802901983261108
1761338342829247500,8.93524755859375,1.5974606275558472,-0.03574739024043083,0.37671688199043274
1761338342839312600,8.945312744140624,1.6664540767669678,-0.16468806564807892,0.16301071643829346
1761338342849378600,8.955378662109375,1.713099479675293,-0.3089554011821747,-0.019626332446932793
1761338342859443500,8.965443359375,1.7287781238555908,-0.4420391619205475,-0.16413983702659607
1761338342869509400,8.97550927734375,1.712571620941162,-0.5329556465148926,-0.27092090249061584
1761338342879574500,8.985574462890625,1.6679096221923828,-0.5714479088783264,-0.3465919494628906
1761338342889640400,8.995640380859374,1.622253179550171,-0.5645337700843811,-0.38342633843421936
1761338342899706400,9.005706298828125,1.5833851099014282,-0.5397019386291504,-0.3891284465789795
1761338342909771500,9.015771484375,1.5483965873718262,-0.47628557682037354,-0.34493473172187805
1761338342919837400,9.02583740234375,1.5226390361785889,-0.3994506895542145,-0.259691447019577
1761338342929902600,9.035902587890625,1.4905931949615479,-0.359834223985672,-0.16904041171073914
1761338342939968000,9.045968017578126,1.4542170763015747,-0.3326748013496399,-0.08923880010843277
1761338342950034200,9.0560341796875,1.4113281965255737,-0.3085412085056305,-0.037874072790145874
1761338342960099300,9.066099365234376,1.3666635751724243,-0.2778397500514984,-0.004197867587208748
1761338342970165200,9.076165283203125,1.3157382011413574,-0.22552108764648438,0.016387371346354485
1761338342980230100,9.086230224609375,1.2579212188720703,-0.15934154391288757,0.028447231277823448
1761338342990296000,9.096296142578124,1.1979542970657349,-0.07627382129430771,0.025535335764288902
1761338343000362200,9.1063623046875,1.1334038972854614,-0.015545757487416267,0.008762480691075325
1761338343010427100,9.11642724609375,1.0802438259124756,0.009023887105286121,0.004315492231398821
1761338343020493000,9.1264931640625,1.0438750982284546,0.016290590167045593,0.011989125981926918
1761338343030558200,9.13655810546875,1.0009944438934326,-0.019153421744704247,0.023637259379029274
1761338343040624000,9.1466240234375,0.9410533308982849,-0.10395246744155884,0.028269561007618904
1761338343050690000,9.15668994140625,0.8616328239440918,-0.18315914273262024,0.03059050627052784
1761338343060755200,9.166755126953126,0.8035423159599304,-0.21210689842700958,0.021882768720388412
1761338343070821000,9.176821044921875,0.7758647799491882,-0.21915771067142487,0.004199765156954527
1761338343080886000,9.186885986328125,0.7862859964370728,-0.20989710092544556,0.0007280684076249599
1761338343090952200,9.1969521484375,0.7963870167732239,-0.17098082602024078,0.015991520136594772
1761338343101018000,9.20701806640625,0.7950096726417542,-0.09713775664567947,0.06060319393873215
1761338343111083000,9.2170830078125,0.7931637167930603,-0.011607643216848373,0.13032430410385132
1761338343121149200,9.227149169921875,0.8046424388885498,0.0419439971446991,0.22949962317943573
1761338343131214000,9.237214111328125,0.8175762295722961,0.07007495313882828,0.37339624762535095
1761338343141280300,9.2472802734375,0.8012835383415222,0.06906295567750931,0.5608886480331421
1761338343151346200,9.25734619140625,0.7660208940505981,0.041004620492458344,0.6894252300262451
1761338343161411000,9.2674111328125,0.6894224882125854,0.0013424316421151161,0.7298275232315063
1761338343171477000,9.27747705078125,0.6591378450393677,0.1399225890636444,0.5701220631599426
1761338343181542100,9.287542236328125,0.601199209690094,0.647104024887085,0.068723663687706
1761338343191608000,9.297608154296874,-0.0001604342833161354,0.9159274101257324,-0.435944527387619
1761338343201674200,9.30767431640625,-0.6862626075744629,1.1106692552566528,-0.7168619632720947
1761338343211739100,9.3177392578125,-0.9398100972175598,1.262195110321045,-0.834094226360321
1761338343221805000,9.32780517578125,-0.743518054485321,0.9782999753952026,-0.8084239959716797
1761338343231870200,9.3378701171875,-0.35569578409194946,0.32165783643722534,-0.6079907417297363
1761338343241936100,9.34793603515625,0.02437247522175312,-0.32051631808280945,-0.2306429147720337
1761338343252002300,9.358002197265625,0.2686622738838196,-0.7338849306106567,0.24415729939937592
1761338343262067200,9.368067138671876,0.34259480237960815,-0.9225751757621765,0.6626091599464417
1761338343272133000,9.378133056640625,0.358908087015152,-0.9624515175819397,0.9617102146148682
1761338343282198300,9.3881982421875,0.4003831148147583,-0.8575050830841064,1.1192172765731812
1761338343292264200,9.39826416015625,0.4680982828140259,-0.5762649774551392,1.1337748765945435
1761338343302330400,9.408330322265625,0.5354887247085571,-0.1917460709810257,1.0312544107437134
1761338343312395000,9.41839501953125,0.559445858001709,0.1919274628162384,0.8915368318557739
1761338343322461200,9.428461181640625,0.5654800534248352,0.4998839795589447,0.7334444522857666
1761338343332526000,9.438526123046875,0.5984670519828796,0.6967113614082336,0.5918954610824585
1761338343342592300,9.44859228515625,0.649604320526123,0.7832521200180054,0.4883933365345001
1761338343352657200,9.4586572265625,0.6833376884460449,0.7754164934158325,0.4301202893257141
1761338343362723000,9.46872314453125,0.6876557469367981,0.6924920678138733,0.4180111587047577
1761338343372789200,9.478789306640625,0.6733730435371399,0.5314868092536926,0.4330989122390747
1761338343382854100,9.488854248046875,0.6565879583358765,0.30162009596824646,0.43556177616119385
1761338343392920300,9.49892041015625,0.6331254839897156,0.027288200333714485,0.4026110768318176
1761338343402985200,9.508985107421875,0.5960401296615601,-0.28120651841163635,0.29871851205825806
1761338343413051100,9.519051025390626,0.5443281531333923,-0.593393862247467,0.13094685971736908
1761338343423117000,9.529116943359375,0.5055344104766846,-0.8631063103675842,-0.07283636182546616
1761338343433182200,9.53918212890625,0.48080116510391235,-1.0414789915084839,-0.2655355632305145
1761338343443248000,9.549248046875,0.4581691026687622,-1.136656403541565,-0.4440230131149292
1761338343453313000,9.55931298828125,0.44169145822525024,-1.1432249546051025,-0.599486768245697
1761338343463379200,9.569379150390626,0.44613760709762573,-1.0488967895507812,-0.7222686409950256
1761338343473445000,9.579445068359375,0.4664496183395386,-0.878368079662323,-0.7885164618492126
1761338343483510300,9.58951025390625,0.4915757477283478,-0.655870258808136,-0.7949759364128113
1761338343493576000,9.599575927734374,0.5066831707954407,-0.38961806893348694,-0.717095136642456
1761338343503641000,9.60964111328125,0.5069414973258972,-0.08733701705932617,-0.563614547252655
1761338343513707300,9.619707275390626,0.4953483045101166,0.201944962143898,-0.3665587306022644
1761338343523773200,9.629773193359375,0.49797073006629944,0.4216717481613159,-0.15917600691318512
1761338343533838000,9.639838134765625,0.5249665975570679,0.5487709045410156,0.009888466447591782
1761338343543904000,9.649904052734374,0.5910161733627319,0.6157914400100708,0.14748094975948334
1761338343553969200,9.65996923828125,0.6591631770133972,0.6261867880821228,0.23965038359165192
1761338343564035000,9.67003515625,0.7270175814628601,0.5900232195854187,0.283714234828949
1761338343574101200,9.680101318359375,0.797061026096344,0.5237827897071838,0.2835542559623718
1761338343584166100,9.690166259765626,0.8572788238525391,0.4315154254436493,0.24765272438526154
1761338343594232000,9.700232177734375,0.9190998077392578,0.3461708426475525,0.17228156328201294
1761338343604297200,9.710297119140625,0.9856799244880676,0.24720671772956848,0.053716033697128296
1761338343614363100,9.720363037109376,1.04513418674469,0.11987997591495514,-0.10521867871284485
1761338343624429300,9.73042919921875,1.1074755191802979,-0.010847941972315311,-0.28303930163383484
1761338343634494000,9.740493896484375,1.1645481586456299,-0.11158985644578934,-0.4461890161037445
1761338343644560100,9.75056005859375,1.1897200345993042,-0.15967775881290436,-0.5762697458267212
1761338343654625300,9.760625244140625,1.220847487449646,-0.22765859961509705,-0.6795139908790588
1761338343664691200,9.770691162109374,1.2555418014526367,-0.2873581349849701,-0.739345371723175
1761338343674757000,9.780757080078125,1.2813886404037476,-0.32818374037742615,-0.7414674162864685
1761338343684822000,9.790822021484376,1.2753195762634277,-0.35665053129196167,-0.6935771107673645
1761338343694888200,9.80088818359375,1.2288411855697632,-0.3677713871002197,-0.6081416010856628
1761338343704953000,9.810953125,1.1365437507629395,-0.36760544776916504,-0.5092179179191589
1761338343715019300,9.821019287109374,1.0164791345596313,-0.3644598126411438,-0.411058247089386
1761338343725084200,9.831084228515625,0.8800002932548523,-0.3622573912143707,-0.30727776885032654
1761338343735150000,9.841150146484376,0.7396169304847717,-0.33368009328842163,-0.19095256924629211
1761338343745216300,9.85121630859375,0.594576358795166,-0.24464982748031616,-0.07781163603067398
1761338343755281200,9.86128125,0.43574443459510803,-0.13539060950279236,0.02926817536354065
1761338343765347300,9.871347412109374,0.25072237849235535,-0.03962572664022446,0.11441556364297867
1761338343775412000,9.881411865234375,0.06307251751422882,0.031474433839321136,0.17648163437843323
1761338343785478100,9.89147802734375,-0.11364100128412247,0.07961239665746689,0.2203068733215332
1761338343795544000,9.9015439453125,-0.24631324410438538,0.14630313217639923,0.27139824628829956
1761338343805609200,9.911609130859375,-0.3358820080757141,0.2722458839416504,0.34179624915122986
1761338343815675100,9.921675048828124,-0.3880905508995056,0.406171590089798,0.4274415969848633
1761338343825740000,9.931739990234375,-0.41946446895599365,0.4526219069957733,0.5172953009605408
1761338343835806200,9.94180615234375,-0.42429912090301514,0.3617081046104431,0.5933221578598022
1761338343845872000,9.9518720703125,-0.42177870869636536,0.21988464891910553,0.6378472447395325
1761338343855937300,9.961937255859375,-0.4201507270336151,0.12040403485298157,0.5991382598876953
1761338343866003000,9.9720029296875,-0.4527675211429596,0.03417620807886124,0.4522790312767029
1761338343876068000,9.982068115234375,-0.56434166431427,-0.02886955998837948,0.20273169875144958
1761338343886134300,9.99213427734375,-0.770108163356781,-0.050998032093048096,-0.0938083678483963
1761338343896200200,10.0022001953125,-1.0049822330474854,-0.0044431984424591064,-0.3993697762489319
1761338343906265300,10.012265380859375,-1.198512315750122,0.06464851647615433,-0.6875832080841064
1761338343916331000,10.0223310546875,-1.3218848705291748,0.12233535945415497,-0.9078105092048645
1761338343926396200,10.032396240234375,-1.358089566230774,0.1549351066350937,-1.0306289196014404
1761338343936462300,10.04246240234375,-1.3009979724884033,0.11675654351711273,-1.030344009399414
1761338343946528500,10.052528564453125,-1.1438336372375488,0.0537344366312027,-0.9076183438301086
1761338343956593400,10.062593505859375,-0.8910443782806396,0.06296609342098236,-0.6477085947990417
1761338343966659600,10.07265966796875,-0.5752350091934204,0.15053614974021912,-0.27181166410446167
1761338343976724700,10.082724853515625,-0.2933400571346283,0.2993479371070862,0.16749630868434906
1761338343986790400,10.092790283203126,-0.12459924817085266,0.5175687074661255,0.5742006897926331
1761338343996856600,10.102856689453125,-0.1189093217253685,0.6824455261230469,0.8234735727310181
1761338344006921500,10.11292138671875,-0.16162456572055817,0.8248777389526367,0.9438172578811646
1761338344016987600,10.122987548828124,-0.219282329082489,0.9226582050323486,0.9818562865257263
1761338344027052300,10.13305224609375,-0.3939462900161743,1.255110263824463,1.4613840579986572
1761338344037118500,10.143118408203126,-0.5818288326263428,0.9770082235336304,1.6994218826293945
1761338344047184400,10.153184326171875,-0.6504217386245728,0.5211549401283264,1.7126671075820923
1761338344057249500,10.16324951171875,-0.6000299453735352,-0.18643155694007874,1.5786411762237549
1761338344067315500,10.1733154296875,-0.5356717109680176,-0.6282033324241638,1.3361047506332397
1761338344077380400,10.18338037109375,-0.5479063391685486,-0.6860640645027161,1.0769402980804443
1761338344087446500,10.193446533203126,-0.5985146760940552,-0.5839030742645264,0.7962513566017151
1761338344097512400,10.203512451171875,-0.582432746887207,-0.47050780057907104,0.5054193139076233
1761338344107577600,10.21357763671875,-0.5057371258735657,-0.3572947084903717,0.29197630286216736
1761338344117643500,10.2236435546875,-0.40685200691223145,-0.1189512237906456,0.2774805724620819
1761338344127708400,10.23370849609375,-0.3515906035900116,0.07360357791185379,0.38252711296081543
