time,seconds_elapsed,z,y,x
1761341778897052700,0.077052734375,-0.07591653398871422,0.0009463957383297383,0.004598588969791308
1761341778907118800,0.087118896484375,-0.07157821252346039,-0.0018086385908536611,0.004783553615259006
1761341778917185800,0.097185791015625,-0.06768997291326523,-0.003028974166046828,0.0005111552593763918
1761341778927251700,0.107251708984375,-0.06769114195704459,-0.00940311230784282,0.0026179182802792637
1761341778937318000,0.11731787109375,-0.07113339136540889,-0.004570815046876669,0.007871865886263549
1761341778947384800,0.127384765625,-0.06215630418360233,-0.00001974588008597493,0.004745281131216325
1761341778957450800,0.13745068359375,-0.06739595840275288,-0.010025427190959453,0.007683654404361731
1761341778967517000,0.147516845703125,-0.0627583617299795,-0.0002776296312920749,0.009429091565893031
1761341778977582800,0.157582763671875,-0.0720353086411953,-0.004190565291326493,0.0026554235793417318
1761341778987649800,0.16764990234375,-0.06769464908838271,-0.004984510414302349,0.007520244003576226
1761341778997715700,0.1777158203125,-0.05662029736638069,-0.004119655479583889,0.0037125953489216042
1761341779007781600,0.18778173828125,-0.06125730951726436,-0.0036910365376621483,0.007748486101767048
1761341779017848800,0.197848876953125,-0.06769406456649303,-0.003290675575844943,0.009403386302478611
1761341779027914800,0.207914794921875,-0.07637421462833881,-0.002533646663464606,0.012257401193841359
1761341779037980700,0.217980712890625,-0.07218611528873443,-0.006044723524339496,0.007158616750105284
1761341779048047900,0.2280478515625,-0.0596218172699213,-0.0044843058072030545,0.012302477878006174
1761341779058113800,0.23811376953125,-0.0696475367218256,-0.00466722462605685,0.01002310736970976
1761341779068180000,0.248179931640625,-0.07398878079652786,-0.0027927725236862894,0.005467202197597362
1761341779078246000,0.258245849609375,-0.07159691722393036,0.0006068615856580435,0.004895727019151672
1761341779088312800,0.268312744140625,-0.07294657826721668,0.0002741772988811135,0.00879687177669257
1761341779098379000,0.27837890625,-0.06337152519226073,-0.006959993472043425,0.01215026929124724
1761341779108445000,0.28844482421875,-0.06277414382100105,0.0028137787790969014,0.007650222492218017
1761341779118511900,0.298511962890625,-0.06741057144999504,-0.005637567495554685,0.0035682138755917547
1761341779128578000,0.308578125,-0.06052899524271488,-0.00424448743565008,0.0033086085247574374
1761341779138643700,0.318643798828125,-0.05843523783385753,0.004338887720834464,-0.00592304707316216
1761341779148710000,0.3287099609375,-0.06995674880146979,0.0014430932140909135,0.0044027056380873545
1761341779158776800,0.33877685546875,-0.06890987009704112,0.0035754108013585206,0.011394313524523749
1761341779168842800,0.3488427734375,-0.06486790122985839,-0.002454407414793968,0.009184670084458776
1761341779178909000,0.358908935546875,-0.07010346379578113,-0.0030058307524770496,0.012278142587770708
1761341779188975900,0.368975830078125,-0.06950140624940394,0.00046703298985958095,0.006278728643036447
1761341779199041800,0.379041748046875,-0.08371522504091262,-0.003787446116842329,0.0051189869815483685
1761341779209108000,0.38910791015625,-0.08207271853089332,-0.00496670076297596,0.004599018228054046
1761341779219174000,0.399173828125,-0.07070026064515113,-0.002521627432107925,0.0049276108616031706
1761341779229240800,0.40924072265625,-0.06471534101665019,-0.010894209382124244,0.012227608843776397
1761341779239307000,0.41930712890625,-0.06306991189718246,0.0012701477999798954,0.004699067369312979
1761341779249372700,0.42937255859375,-0.06531389143168925,-0.007723744386155158,0.0035152872451115398
1761341779259439900,0.43943994140625,-0.0629202742934227,-0.0024344971379265186,0.010010448817536235
1761341779269505800,0.449505859375,-0.07114917345643043,0.0003559372982010245,0.0055218823937466365
1761341779279571700,0.45957177734375,-0.06187222654521465,-0.0053167015107348555,0.004454289694852195
1761341779289638700,0.469638671875,-0.06606500205993653,-0.0027754377963952717,0.01655351378545165
1761341779299704800,0.479704833984375,-0.07354512868225574,-0.0013221154492348431,0.0064672826182330025
1761341779309770800,0.489770751953125,-0.06816460468769073,-0.003450615377910435,0.00958550597031135
1761341779319837000,0.4998369140625,-0.06801379804015159,0.003822663560695946,0.004028561396338046
1761341779329903900,0.50990380859375,-0.07010813997089863,-0.0017279015048407018,0.008521470635104923
1761341779339969800,0.5199697265625,-0.07339549107849598,-0.011502733201906085,0.0083497536302777
1761341779350036000,0.530035888671875,-0.07564005513489246,-0.004631952383276075,0.005185526578850112
1761341779360103000,0.54010302734375,-0.06935352221131325,0.00168380663478747,0.015202697398117743
1761341779370168800,0.5501689453125,-0.07070259873270988,-0.005100830270349979,0.013652581879287026
1761341779380234800,0.56023486328125,-0.0680091218650341,-0.001818520664051175,-0.0037083621317986395
1761341779390300700,0.57030078125,-0.06486556314229965,0.00012380904275923968,0.011119291408848948
1761341779400367600,0.58036767578125,-0.07324526895284653,0.0014655059752985834,0.008421229697600938
1761341779410433800,0.590433837890625,-0.06441606580913066,-0.00724343178961426,0.0042602877929806705
1761341779420499700,0.600499755859375,-0.06890285583436488,-0.003122716864105314,0.004529062830959447
1761341779430567000,0.61056689453125,-0.07444003169536591,0.0031897176857106388,0.006212805533665232
1761341779440632800,0.6206328125,-0.0787801067262888,-0.004276782270055264,0.0040025912714423606
1761341779450698800,0.63069873046875,-0.0648632250547409,0.003945066097658127,0.0095355476150522
1761341779460766000,0.640765869140625,-0.06710545102357864,0.0007229439796879887,0.013428463400364852
1761341779470831900,0.650831787109375,-0.07444061621725559,-0.0032003486775793134,0.007414742369065061
1761341779480897800,0.660897705078125,-0.05842822357118129,-0.0020401275254786013,0.008958629076508805
1761341779490964000,0.6709638671875,-0.07084931372702122,-0.0010844890347681939,0.001379202231601812
1761341779501031000,0.681031005859375,-0.07144727962017058,0.005905662113521248,0.007937766162748447
1761341779511096800,0.691096923828125,-0.06665595369040965,-0.0005053191736340523,0.00975045987421181
1761341779521162800,0.701162841796875,-0.07399287244975566,0.0013451675312593579,0.013045752259669825
1761341779531229700,0.711229736328125,-0.07040040091574191,0.0029371311641298234,-0.0002650898101273924
1761341779541295900,0.7212958984375,-0.0689069474875927,-0.0047220418195240196,0.014163810203899629
1761341779551361800,0.73136181640625,-0.07025427044332028,0.00291084594540298,0.008556007658946327
1761341779561427700,0.741427734375,-0.0780348413169384,0.005139025122579187,0.0005301430876366793
1761341779571495000,0.751494873046875,-0.07219488311707974,-0.002225950687471777,0.006450902305589989
1761341779581560800,0.761560791015625,-0.07294307113587856,-0.002639646054897457,0.007188710494269617
1761341779591627000,0.771626953125,-0.06875321823060512,-0.0035547698721289634,0.007713323456840589
1761341779601694000,0.78169384765625,-0.06800503021180629,-0.003838244722317904,0.01305595399327576
1761341779611759900,0.791759765625,-0.06875263370871544,-0.0029615166867151856,0.0088355598192662
1761341779621826000,0.801825927734375,-0.061872811067104336,-0.004482771437242627,0.005635900694853626
1761341779631891700,0.8118916015625,-0.07039923187196254,-0.007596556076221167,0.010544514595041982
1761341779641958700,0.821958740234375,-0.06007540625631809,-0.002931011950597167,0.015459023946477099
1761341779652024800,0.83202490234375,-0.06920213104188441,-0.0022154658260755238,0.007801417298824526
1761341779662090800,0.8420908203125,-0.06636077013611794,0.001136822010204196,0.006307032288913615
1761341779672157700,0.85215771484375,-0.06710837363302707,0.004859130468964576,0.008284159314469434
1761341779682223900,0.862223876953125,-0.06710778911113739,-0.006975994758773594,0.008715312706772237
1761341779692289800,0.872289794921875,-0.07115034250020981,-0.003143650054279715,0.005117954935086891
1761341779702355500,0.88235546875,-0.07683306431174278,-0.011697488589026033,0.004166805389826186
1761341779712422400,0.89242236328125,-0.07668108862042426,-0.008201408367883413,0.011602106489730066
1761341779722488300,0.90248828125,-0.0600707300812006,-0.0004836918637156486,0.019141402253648264
1761341779732554500,0.912554443359375,-0.0696475367218256,0.003406100382748991,0.0023225566294742747
1761341779742621400,0.922621337890625,-0.06111760878562927,0.004097443647775798,0.009295911906589753
1761341779752687400,0.932687255859375,-0.07143617370426654,-0.001104655039962381,0.008297142093628645
1761341779762753500,0.94275341796875,-0.0754728818744421,-0.001958404058776796,0.009784047049982472
1761341779772819500,0.9528193359375,-0.0646978053599596,-0.0036756197728216645,0.011340998734976165
1761341779782886400,0.962886474609375,-0.06215104348659515,-0.003345474503003061,0.005834172346466221
1761341779792952600,0.97295263671875,-0.06798574098944664,-0.002658405554294586,0.00433541712211445
1761341779803018500,0.9830185546875,-0.06798807907700538,-0.00642698257388547,0.011014132267632521
1761341779813085400,0.99308544921875,-0.07547054378688335,-0.002013897105678916,0.006957860880461521
1761341779823151400,1.0031513671875,-0.06723638392686844,-0.004730791381560266,0.007591181214782409
1761341779833217300,1.01321728515625,-0.06828209358751773,-0.010343078305386007,0.004332138319639489
1761341779843284500,1.023284423828125,-0.06708499275743961,0.00359977805763483,0.012960412063775583
1761341779853350400,1.033350341796875,-0.07665770774483681,-0.002406367021985352,0.012591930377832614
1761341779863416300,1.043416259765625,-0.05824760630726814,-0.007060896563250571,0.001300396807771176
1761341779873482500,1.053482421875,-0.07126607783436775,-0.0006317220322787761,0.008221980798454024
1761341779883549400,1.063549560546875,-0.07231237201690674,-0.009529716095887123,0.009925158853991888
1761341779893615400,1.073615478515625,-0.07111410214304924,0.0010622224040329456,0.0038471404148265717
1761341779903681500,1.083681640625,-0.06797229698598384,0.0019371968739666044,0.00938892395228613
1761341779913748500,1.09374853515625,-0.06857201644480228,-0.0008743534154258668,0.005838131568953395
1761341779923814700,1.103814697265625,-0.07515197935700416,-0.004608534975070506,0.0035349463602295144
1761341779933880600,1.113880615234375,-0.07245967153310776,0.0035108576651662585,0.0046023792289197445
1761341779943946200,1.1239462890625,-0.06752338417470455,-0.0010840689096599818,0.0026832568677607922
1761341779954013400,1.134013427734375,-0.07769348053336143,-0.0031075375612825153,0.007321488294773735
1761341779964079400,1.144079345703125,-0.07320201433300971,-0.0013902487820014356,0.009952403053943999
1761341779974145500,1.1541455078125,-0.062273793083429334,-0.0003729066993109882,0.009721946165780536
1761341779984212500,1.16421240234375,-0.05838263086378574,-0.0020269027177244425,0.00559619887212757
1761341779994278400,1.1742783203125,-0.06421557480096816,-0.004265676354151219,-0.0023823194261174646
1761341780004344600,1.184344482421875,-0.0670592737942934,-0.0009769004744477569,0.008742739569814875
1761341780014410500,1.194410400390625,-0.07080079841017722,-0.0020399996613152324,0.006491293681482784
1761341780024477400,1.2044775390625,-0.06885726312696934,-0.0070635269117541605,0.015036770813260226
1761341780034543600,1.214543701171875,-0.06511749207675456,-0.005984225508756935,-0.00008244498590938747
1761341780044609500,1.224609619140625,-0.0673597180455923,0.0036876024715602395,0.005450917783076875
1761341780054676500,1.234676513671875,-0.07708557776808739,0.0015647102997638285,0.006307950170943513
1761341780064742700,1.24474267578125,-0.06421674384474754,-0.009489603281207381,0.006567450490500778
1761341780074808300,1.254808349609375,-0.06331541109085083,0.0006808584036305547,0.010310422711377032
1761341780084874500,1.26487451171875,-0.06869944221675396,-0.0019870456313714384,0.01211069076610729
1761341780094941400,1.27494140625,-0.06675356884598732,0.003538293661363423,0.006639670909917913
1761341780105007400,1.28500732421875,-0.06541033754348755,-0.003499843080807477,0.004854787653987296
1761341780115073500,1.295073486328125,-0.07139291908442974,-0.007509115254785865,0.007608164315624162
1761341780125140500,1.305140380859375,-0.06720131261348725,-0.008173899306450039,0.003212116747186519
1761341780135206400,1.315206298828125,-0.07812778029739856,0.003445628675539046,-0.002891890083183534
1761341780145272600,1.3252724609375,-0.07154840190708636,-0.0047804574758745725,0.007309382298449054
1761341780155338500,1.33533837890625,-0.05538929426670074,0.0008578954709693789,0.00957827251192648
1761341780165405400,1.345405517578125,-0.06871113265454769,-0.011805935665871948,-0.0019800085358088835
1761341780175471600,1.3554716796875,-0.06945873615145683,-0.006423475442547351,0.010764308525295927
1761341780185537300,1.365537353515625,-0.07484744345247744,0.0008393551672808826,0.015774090378172696
1761341780195603500,1.375603515625,-0.07065583698153495,-0.00800729230158031,0.009136031470028684
1761341780205670400,1.38567041015625,-0.07050795294344425,-0.0032979820994660258,0.0025559315605089067
1761341780215736300,1.395736328125,-0.05958616143465042,-0.004735193562041968,0.015074773869244381
1761341780225802500,1.405802490234375,-0.05824000752270221,0.00441785297486931,0.012260415134835057
1761341780235869400,1.415869384765625,-0.07051321364045143,-0.005639905583113431,-0.001247904002130963
1761341780245935400,1.425935302734375,-0.0675210460871458,-0.0033468444761820134,0.006034366527106613
1761341780256001500,1.43600146484375,-0.06662322046458721,-0.008696918533556162,0.004322553073964081
1761341780266067500,1.4460673828125,-0.06243278303742408,-0.005573945941124111,0.005445296326465904
1761341780276134400,1.456134521484375,-0.06273147372305393,-0.0006274111833423375,0.005727602132875472
1761341780286200600,1.46620068359375,-0.06317804844677448,-0.008512008687015623,0.013374107431201264
1761341780296266500,1.4762666015625,-0.06991115609407425,-0.004221325755771249,0.010280945455143228
1761341780306333400,1.48633349609375,-0.07200608254671097,0.0016041837936267257,0.00037314416132867335
1761341780316399400,1.4963994140625,-0.07500117270946502,-0.004855605071317404,0.00279441192492377
1761341780326465300,1.50646533203125,-0.0690156685590744,-0.004856372256297618,0.008408438714686781
1761341780336531500,1.516531494140625,-0.06961538801789284,-0.006748816673085093,0.0033248655398143453
1761341780346598400,1.526598388671875,-0.06767068369090556,-0.00728299661502242,0.005729191301763057
1761341780356664300,1.536664306640625,-0.06078852296173572,-0.0007535217810422181,0.007243883880763314
1761341780366730500,1.54673046875,-0.07156301495432853,0.000006521072331815958,0.0022319420368410647
1761341780376797400,1.55679736328125,-0.06558043341338635,-0.01183512522773817,0.0031878545221872626
1761341780386863400,1.56686328125,-0.07156535304188728,0.0016168606121093035,0.001716443962487392
1761341780396929500,1.576929443359375,-0.0664753364264965,-0.002670570916123688,0.008786044422001578
1761341780406995500,1.586995361328125,-0.061686348584294316,-0.00683817545697093,0.011595795479952356
1761341780417062400,1.5970625,-0.0612380202949047,-0.004295687899924815,0.008269555400381795
1761341780427128600,1.607128662109375,-0.07216214989125729,-0.0012184176127426325,0.007319748428836465
1761341780437194200,1.6171943359375,-0.06064297701120376,-0.005560538470279425,0.010331547697796485
1761341780447261700,1.62726171875,-0.0762087949335575,-0.003899765651207417,0.0054508584175724534
1761341780457327400,1.637327392578125,-0.0709714788019657,-0.004817647681105881,0.018558209237945263
1761341780467393300,1.647393310546875,-0.07351297997832298,0.002813797045405954,0.010131253052456303
1761341780477459500,1.65745947265625,-0.06962298680245876,0.0034305224379524587,0.009758031259314157
1761341780487526400,1.6675263671875,-0.07157178278267383,-0.007820647155679762,0.008630561599344945
1761341780497592600,1.677592529296875,-0.06229366682767868,-0.004571527432929724,0.00715736094135791
1761341780507658500,1.687658447265625,-0.07217267128527163,0.000766381262615323,0.009619983628648333
1761341780517725400,1.697725341796875,-0.06514379556179047,-0.0032804281764663755,0.01071339118881151
1761341780527791600,1.70779150390625,-0.06395137090682983,-0.0033789566474966702,0.006908167386683635
1761341780537857500,1.717857421875,-0.06664250968694686,-0.00781799854086712,0.00033846557359211145
1761341780547923500,1.72792333984375,-0.07307692664861679,-0.007542688730824738,0.006489667979977094
1761341780557990700,1.73799072265625,-0.06798866359889506,-0.0011167108039371668,0.00355815827245824
1761341780568056300,1.748056396484375,-0.06589315262436866,-0.0070033759560436,0.008248695275443606
1761341780578122500,1.75812255859375,-0.06589665975570679,-0.010137691926397383,0.0070693812638055525
1761341780588189400,1.768189453125,-0.06485328818261624,-0.0028090478050522504,0.006262302664620801
1761341780598255400,1.77825537109375,-0.06336041927635669,-0.0011827069785445927,-0.0016255005762912333
1761341780608321500,1.788321533203125,-0.0786228703379631,-0.0010731091242283581,0.006680377379641868
1761341780618387500,1.798387451171875,-0.06470365057885646,-0.0013776998276822268,0.009861943724937736
1761341780628454400,1.808454345703125,-0.06395663160383701,-0.0050907655340619385,0.007302500466513447
1761341780638520600,1.8185205078125,-0.06844459067285061,-0.006180588331073522,0.0073961837990675116
1761341780648586500,1.82858642578125,-0.06889584157168865,-0.006545896245818585,0.014519231478869915
1761341780658653400,1.8386533203125,-0.06694938367903232,-0.003439673858787864,0.004778439048724248
1761341780668719600,1.8487197265625,-0.06470131249129772,0.001669029190763831,0.008531462306156755
1761341780678785500,1.85878564453125,-0.06380173330307007,-0.004228011224884539,0.009060180621687322
1761341780688851500,1.8688515625,-0.0666407561212778,-0.005704111659433692,0.005211346006696112
1761341780698918400,1.87891845703125,-0.0672375529706478,0.0028969635505229235,0.006803474036348052
1761341780708985000,1.888985107421875,-0.07381926944851874,-0.0038258601647801695,0.00760482614764478
1761341780719051000,1.899051025390625,-0.07486848624050617,-0.003005191431660205,0.013444706715689972
1761341780729117200,1.9091171875,-0.06140168642401695,-0.0043232700265944,0.011667787570506334
1761341780739184000,1.91918408203125,-0.06813654763698578,-0.006637775780353695,0.01164118725794833
1761341780749250000,1.92925,-0.06499240439236163,-0.006377170349098742,0.014916994058224371
1761341780759316000,1.93931591796875,-0.06918284181952476,-0.002332151008304208,0.003577360729849897
1761341780769383200,1.949383056640625,-0.07726561051011085,-0.002104479732271284,0.015750759734935126
1761341780779449000,1.959448974609375,-0.06424947707057,0.0007949497699737549,0.014167490865173748
1761341780789515000,1.969514892578125,-0.07098667637109755,0.001811634265538305,0.00825905227267649
1761341780799581000,1.979580810546875,-0.06769581813216209,-0.010564959161449223,-0.000046656719897873696
1761341780809648000,1.989648193359375,-0.06185936706364154,-0.013120306200068443,0.0025265502023976293
1761341780819714000,1.999714111328125,-0.060513797673583024,-0.001714420968759805,0.005509205575264058
1761341780829780200,2.0097802734375,-0.0730851099550724,-0.005082874488551169,0.006978917368222028
1761341780839847200,2.01984716796875,-0.07158873391747474,-0.0018016608607955276,0.0049401141501497475
1761341780849913000,2.0299130859375,-0.06889233444035053,-0.008374974836502224,0.011031855153990909
1761341780859979300,2.039979248046875,-0.06575052928328513,-0.00550480796135962,0.009720535093406214
1761341780870045200,2.050045166015625,-0.07337912446558476,-0.002912453380599618,0.00802659979024902
1761341780880112000,2.060112060546875,-0.06140636259913444,-0.0005830788512714207,0.015145501017896457
1761341780890178000,2.070177978515625,-0.06395020186305046,0.00394245401546359,0.013073370918957515
1761341780900244000,2.080243896484375,-0.07157938156723975,0.00026561039993539453,0.0038603515228489414
1761341780910311000,2.090310791015625,-0.07277531335353851,-0.004679846645612269,0.004432877014065161
1761341780920377000,2.100377197265625,-0.07083002450466155,-0.0031900282129645346,0.010764600786240771
1761341780930443000,2.110443115234375,-0.06573942336738109,-0.003006798866856843,0.008476759277121163
1761341780940509200,2.12050927734375,-0.06843406927883625,-0.005545213036984205,0.006119419028633274
1761341780950576000,2.130576171875,-0.07427110486924648,-0.002312624323926866,0.007850759166153147
1761341780960642000,2.14064208984375,-0.06798398742377758,-0.0033191344853490587,0.012399864704720676
1761341780970708200,2.150708251953125,-0.0681359631150961,-0.006932155617047101,0.007555105254403315
1761341780980775200,2.160775146484375,-0.07008008292019367,0.0023098113123327492,0.011481640181527473
1761341780990841000,2.170841064453125,-0.07501578575670718,-0.0025552009081467983,0.017828867483511566
1761341781000907300,2.1809072265625,-0.06573591623604297,-0.013440496331453323,0.014116171669890171
1761341781010973000,2.190972900390625,-0.06484042870104313,-0.00646579848062247,0.0076523505172226575
1761341781021039900,2.201039794921875,-0.06304360841214657,-0.005882701363041996,0.01854537715583574
1761341781031106000,2.21110595703125,-0.06483633704781532,-0.007766231821011752,0.013870033155404962
1761341781041172000,2.221171875,-0.06588029314279556,-0.0050918615126051,0.00791643568035215
1761341781051238100,2.231238037109375,-0.06932254255115985,-0.003263422242738306,0.0021947244321461764
1761341781061305000,2.24130517578125,-0.07381693136096,0.0006936630862765014,0.011342651835945435
1761341781071371000,2.25137109375,-0.06872983735501766,-0.006019205490592866,0.006330239634565077
1761341781081437200,2.261437255859375,-0.07157528991401195,-0.0005302526854909956,0.002839936133660376
1761341781091504000,2.271504150390625,-0.06633855830430985,0.0018616839523427188,0.006848792749107815
1761341781101570000,2.281570068359375,-0.0690372958689928,0.0008857150596566498,0.012210913437302224
1761341781111636200,2.29163623046875,-0.06455167488753795,-0.00017502777334302662,0.008997234920691698
1761341781121702100,2.3017021484375,-0.06305412980616092,-0.0008431910921819507,0.008718372313538565
1761341781131769000,2.31176904296875,-0.06649228756129741,-0.002344846093095839,0.0007295381172560155
1761341781141835000,2.3218349609375,-0.06319909123480319,-0.00793862924585119,0.008336446624132804
1761341781151901000,2.33190087890625,-0.0652899260342121,-0.004056654979661106,-0.00007440780992619693
1761341781161967900,2.3419677734375,-0.06723696844875812,0.0009651735040359198,0.0006966678941156715
1761341781172034000,2.352033935546875,-0.07277531335353851,0.0007183591361157595,0.006779266610275954
1761341781182100000,2.362099853515625,-0.06723463036119938,-0.0036668519444763657,0.00819930317576509
1761341781192166100,2.372166259765625,-0.07471709507107734,-0.006471661965828389,0.0028069837121292946
1761341781202233000,2.382233154296875,-0.0673860215306282,0.0007948949710465967,0.008648508247989229
1761341781212299000,2.392299072265625,-0.06873509805202484,-0.0020917663811706004,0.012531847920781
1761341781222365200,2.402365234375,-0.061701546153426164,-0.0010803425826132298,0.005760842248774134
1761341781232432000,2.41243212890625,-0.07277180622220039,-0.002540021605324,0.003670980130322277
1761341781242498000,2.422498046875,-0.05915478428006172,-0.005249280564021319,0.008046523766848258
1761341781252564200,2.432564208984375,-0.06319207697212696,0.0014980930706486105,0.016105098731094038
1761341781262630000,2.4426298828125,-0.06004793372750282,-0.0020322182136587796,0.009249634212604723
1761341781272697000,2.452697021484375,-0.0631897388845682,-0.006425776997487992,0.007708624448836781
1761341781282763000,2.462762939453125,-0.06348842957019805,-0.0028403745250776408,0.007359747079084627
1761341781292829000,2.472828857421875,-0.06962415584623813,-0.001893266400694847,0.006563783528958447
1761341781302895000,2.48289501953125,-0.07860182754993439,-0.004412062554899603,0.004659845037199557
1761341781312962000,2.492962158203125,-0.06094459030628204,-0.00046224721688777206,0.01667797128218226
1761341781323028000,2.503028076171875,-0.07426467512845993,0.004543780909478664,0.00939324850095436
1761341781333094100,2.51309423828125,-0.07007248413562774,0.0011382650486193597,0.004691308754542842
1761341781343161000,2.5231611328125,-0.06737900726795196,-0.005124613004736602,0.0013403863248648122
1761341781353227300,2.533227294921875,-0.06273907250761986,-0.0016125680294819175,0.0056042588809970765
1761341781363293200,2.543293212890625,-0.0705190588593483,0.0007236563657410443,0.00882884695068933
1761341781373358800,2.55335888671875,-0.06423369497954845,-0.003182557292561978,0.006725513429311104
1761341781383426300,2.56342626953125,-0.06513093608021736,-0.0014141411142423747,0.011977378676063381
1761341781393492000,2.573491943359375,-0.07111293309926986,-0.008154354355763643,0.012120737236086278
1761341781403558000,2.583557861328125,-0.07963935390412807,-0.003959989672154188,0.00722856758062262
1761341781413625000,2.593625,-0.06377893694937228,-0.004087634639814495,0.004617261704220436
1761341781423691000,2.60369091796875,-0.077093761074543,-0.006605115619767457,0.007000868905126117
1761341781433757200,2.613757080078125,-0.06915829190015793,-0.006199019036907703,0.006173245274834334
1761341781443823000,2.623822998046875,-0.06018003567457199,-0.0032283326630480587,0.008028659316594713
1761341781453890000,2.63389013671875,-0.06152618958652019,-0.003548650658596307,0.007704601294267922
1761341781463956200,2.643956298828125,-0.06466916378736495,-0.006981474651489406,0.00905581954040099
1761341781474022100,2.654022216796875,-0.07574059289991855,-0.009437818295042961,0.0069587559296051035
1761341781484089000,2.664089111328125,-0.06661445263624191,-0.007712547138705849,0.008936650140141136
1761341781494155300,2.6741552734375,-0.06916062998771667,-0.008943751167785376,0.007667379122995771
1761341781504221000,2.684220947265625,-0.07469780584871769,-0.007460234611760825,0.006464373708516359
1761341781514287000,2.694287109375,-0.06915770737826823,-0.0024877434288151563,0.005663683750922791
1761341781524354000,2.70435400390625,-0.06406769076287747,-0.0034864904088899493,0.00003287022314034402
1761341781534420000,2.714419921875,-0.07573533220291137,-0.00020171485086902975,0.013755311601399443
1761341781544486100,2.724486083984375,-0.07348843005895614,-0.0067210701496340335,0.011381686938391066
1761341781554552000,2.734552001953125,-0.07064414654374122,-0.009909125601220875,0.005913137600501068
1761341781564619000,2.744618896484375,-0.07602934671342372,-0.006333714799862355,0.0072164889837615185
1761341781574685200,2.754685302734375,-0.061065586337447166,0.00039557518884539603,0.005139783174404874
1761341781584751000,2.764751220703125,-0.06301321327388286,-0.0035541488176211713,0.004472651902027428
1761341781594818000,2.774818115234375,-0.07603168480098248,-0.005951894141733646,0.0011246383820660412
1761341781604884200,2.78488427734375,-0.06959785236120224,-0.006360657605715096,0.006845089254947379
1761341781614950100,2.7949501953125,-0.059120882010459896,-0.010039930640347302,0.012142515243054366
1761341781625016000,2.80501611328125,-0.059717094337940216,-0.009274206964857876,0.005220552226458675
1761341781635083000,2.8150830078125,-0.06869418151974678,-0.011857373592164367,0.012102324796561151
1761341781645149000,2.82514892578125,-0.07408405786454678,-0.004972071057837456,0.014800167312100529
1761341781655215000,2.835215087890625,-0.0686930124759674,-0.009047047145478427,0.015618557323166169
1761341781665282000,2.845281982421875,-0.06734452047646046,-0.0035447599347680804,0.015023546005506068
1761341781675348000,2.855347900390625,-0.06360065777301788,-0.002040218857023865,0.007209739582566544
1761341781685414100,2.8654140625,-0.0692857176721096,-0.006012574820406734,0.0018999381700763479
1761341781695480000,2.87547998046875,-0.07272913612425327,0.0008142389923334122,0.0018948555695824324
1761341781705546200,2.885546142578125,-0.066597501501441,-0.010711016568634659,0.007404257507668808
1761341781715612200,2.895612060546875,-0.07123802078366279,-0.00016594941774383186,0.0092234083593823
1761341781725678000,2.905677978515625,-0.06929507002234458,-0.0051413266775198274,0.010122129031084478
1761341781735745300,2.915745361328125,-0.07034253324866295,-0.006983630075957626,0.001250858577620238
1761341781745811000,2.92581103515625,-0.06779869398474693,-0.0025040004438720643,0.0007468865442788228
1761341781755877000,2.935877197265625,-0.06450491313636303,-0.002582673436962068,0.009415350734908134
1761341781765943000,2.945943115234375,-0.06016600714921951,-0.0022493863619863987,0.00957777018842753
1761341781776010000,2.956010009765625,-0.06749415808022022,-0.01080737134888768,0.0038054658307228235
1761341781786076200,2.966076171875,-0.061359600847959515,-0.016449432356469333,0.004216069625341333
1761341781796142000,2.97614208984375,-0.06255202550292015,-0.005819463401101529,0.0072432080273283645
1761341781806208300,2.986208251953125,-0.07541676777303219,-0.0046741658234968776,0.012588099019508808
1761341781816275200,2.996275146484375,-0.06987608478069306,-0.005170260511059314,0.0056258176922565324
1761341781826341000,3.006341064453125,-0.06628069063723087,-0.005642006208654493,0.006856460032332689
1761341781836407300,3.0164072265625,-0.0751110628247261,-0.007077117045689374,0.008861621275707148
1761341781846474200,3.02647412109375,-0.07032090593874454,-0.00834693605210632,0.009879643778409808
1761341781856540000,3.036539794921875,-0.07436053671836852,-0.008386975801549852,0.007306578420009463
1761341781866606000,3.046606201171875,-0.06658113488852978,-0.009526208964549004,0.00558222514570225
1761341781876672000,3.056672119140625,-0.05415595307946205,-0.006930840442795306,0.009586620215163566
1761341781886739000,3.066739013671875,-0.06972060195803642,-0.0071631513613276175,0.007873582919314503
1761341781896805000,3.07680517578125,-0.06358955185711383,-0.00040195013070479035,0.007938423749874345
1761341781906871000,3.08687109375,-0.07107377013266086,-0.008494016372598707,0.005313258311478421
1761341781916938000,3.09693798828125,-0.07092413252890109,-0.003252005799580365,0.01333442387478426
1761341781927004200,3.107004150390625,-0.06448562391400336,-0.007467486336454748,0.007790352482115849
1761341781937070000,3.117070068359375,-0.06478782173097133,-0.007490611483715474,0.010765226407325825
1761341781947136300,3.12713623046875,-0.06194236917197704,-0.006374832261539995,0.0054885418131481855
1761341781957203200,3.137203125,-0.06733049195110798,-0.006355981430597603,0.0002508466556435451
1761341781967269000,3.14726904296875,-0.07466624166667461,-0.008750036960281432,0.004627906395820901
1761341781977335000,3.1573349609375,-0.05880348662436008,-0.00022241057902574538,0.013275989952124654
1761341781987401000,3.16740087890625,-0.0634428368628025,-0.006206471691001207,0.007326018339418806
1761341781997468000,3.177468017578125,-0.07152151390016079,-0.0037364648482762276,0.007372930787643417
1761341782007534000,3.1875341796875,-0.06059855334758758,-0.009407313558924943,0.008104870924539863
1761341782017600000,3.19760009765625,-0.06523673454225062,-0.011233451273851097,0.007646582930139266
1761341782027667000,3.2076669921875,-0.06074877547323703,-0.006372932565398514,0.007250811378471553
1761341782037733000,3.217733154296875,-0.06508768146038055,0.001077346907928586,0.0054881536540808155
1761341782047799000,3.227799072265625,-0.07137421438395977,-0.0022706118131056428,0.004155283915391192
1761341782057865200,3.237865234375,-0.06793021140992642,-0.010301102327182888,0.0013314404000062494
1761341782067932200,3.24793212890625,-0.061198272806406016,-0.011273454490676522,0.005042464846349321
1761341782077998000,3.257998046875,-0.061200610893964766,-0.006819616886973381,0.012411253748415037
1761341782088064300,3.268064208984375,-0.07587035675942898,0.002348572420142591,0.0065649617058923465
1761341782098131200,3.278131103515625,-0.0688414810359478,-0.0034571729828603566,0.013518680700776166
1761341782108196900,3.28819677734375,-0.060761634954810136,-0.005526033412478864,0.0016998627204447983
1761341782118263000,3.298262939453125,-0.0740782126456499,-0.004849083998985588,0.0028233914242358875
1761341782128329000,3.308328857421875,-0.06539747806191444,-0.006985566304717213,0.005646938112098723
1761341782138396000,3.31839599609375,-0.057764206704497334,-0.003428074752539396,0.00923276527619455
1761341782148462000,3.328462158203125,-0.0739262369543314,-0.004273476068116724,0.007404905961640179
1761341782158528000,3.338528076171875,-0.06435059935748577,0.0023740904538892206,0.008860972821735777
1761341782168594200,3.34859423828125,-0.07003858186602592,0.00020273776417598126,0.009323772594472392
1761341782178661000,3.3586611328125,-0.07108312248289585,-0.003655179772991687,0.014866008223081007
1761341782188727000,3.36872705078125,-0.06090776542723179,-0.006770005591586232,0.011350460683065467
1761341782198793200,3.378793212890625,-0.059711249119043346,-0.0064205710994079705,0.015695526982937007
1761341782208860200,3.388860107421875,-0.06988777521848678,-0.008288118536956608,0.008086321487696842
1761341782218926000,3.398926025390625,-0.06928513315021992,-0.008428403790481388,0.007858823741599918
1761341782228992000,3.408991943359375,-0.06943477075397968,-0.004237747167609632,0.004760670496593229
1761341782239058000,3.419057861328125,-0.0673380907356739,-0.008544760179147124,0.00926529757261742
1761341782249125000,3.429125,-0.07167056698203086,-0.009007080461271107,0.007572855540225282
1761341782259191000,3.43919091796875,-0.06852934634685516,-0.006449778927583247,0.015061699758539908
1761341782269257000,3.449257080078125,-0.07226736383140087,-0.0040327626474201675,0.010808330330112949
1761341782279324200,3.45932421875,-0.06478665268719196,-0.009199753489159046,0.007628855477203615
1761341782289390000,3.46939013671875,-0.0733159961014986,-0.006166687669884413,0.013193275538156739
1761341782299456000,3.4794560546875,-0.0680786799699068,-0.013614428126253186,0.011503349689836613
1761341782309522200,3.489522216796875,-0.07017594451010227,-0.008859744412451982,0.018479874171572735
1761341782319589000,3.499589111328125,-0.07691372833251953,-0.004012213049735874,0.014097645065933466
1761341782329655300,3.5096552734375,-0.060603229522705075,-0.002214168918132782,0.013523388841934502
1761341782339721000,3.519720947265625,-0.07586334249675274,-0.008599102448578923,0.011603727624658495
1761341782349787000,3.529786865234375,-0.07227262452840805,-0.009783690856955945,0.008382897848053834
1761341782359854000,3.53985400390625,-0.05685644420981407,-0.0032461423143744467,0.008381203647889196
1761341782369920000,3.549919921875,-0.07750175735354423,0.000009480214398354292,0.0049821038280846545
1761341782379986000,3.55998583984375,-0.06657821227908134,-0.0000982179437763989,0.008951071391138248
1761341782390053000,3.57005322265625,-0.07480944952964783,-0.0030159685540013014,0.007653610892547294
1761341782400119000,3.580119140625,-0.0670288786560297,-0.005559077165555208,0.007286901038582436
1761341782410185200,3.590185302734375,-0.06822481044232845,-0.006936996188946068,0.00939353619532194
1761341782420251100,3.600251220703125,-0.06762275289595127,-0.004416976192034781,0.013424613775731994
1761341782430318000,3.610318115234375,-0.053552141967415805,-0.0006773330059833824,0.01418230027523823
1761341782440384300,3.62038427734375,-0.06058510934412479,-0.001413191266171634,0.013037655718182212
1761341782450450200,3.6304501953125,-0.06776362267136574,-0.0008359393674880266,0.017575673607154747
1761341782460517000,3.64051708984375,-0.05384732552170753,-0.001631711121369153,0.009671279991045594
1761341782470583000,3.6505830078125,-0.07270107907354831,-0.0014901654925197363,0.008652933261357248
1761341782480649000,3.66064892578125,-0.06686579704880714,-0.010777798194531351,0.005096779716317542
1761341782490715100,3.670715087890625,-0.05983224515020847,-0.0065971149764023716,0.014111445262422785
1761341782500782000,3.680781982421875,-0.06596855594813823,-0.013105583554971963,0.014405199478031136
1761341782510848000,3.690847900390625,-0.06507423745691776,-0.006178469439223408,0.004381375155691057
1761341782520914200,3.7009140625,-0.06866086377203465,-0.002328954404219985,0.013525096741830929
1761341782530981000,3.710981201171875,-0.07000292603075504,-0.0028554259637370706,0.011255443909950555
1761341782541047000,3.721047119140625,-0.076731942024827,-0.008119045580364763,0.01434325842403341
1761341782551113200,3.73111328125,-0.07613456065356732,-0.004308401251025498,0.012869194682943634
1761341782561179100,3.74117919921875,-0.07224339843392372,-0.0033014709644950922,0.011693575032311491
1761341782571246000,3.75124609375,-0.06251578514575958,0.0008509725398384034,0.013763216346642002
1761341782581312300,3.761312255859375,-0.05653378812670708,-0.008592435245774686,0.02108738065569196
1761341782591378000,3.7713779296875,-0.06266892988085747,-0.006510331742092966,0.019245821609348058
1761341782601444000,3.781444091796875,-0.06880348711311816,-0.014749021646752953,0.010264464677800424
1761341782611511000,3.791510986328125,-0.060871525070071215,-0.009306921924371271,0.012772346712346188
1761341782621577000,3.801576904296875,-0.06581015051603317,-0.008378281038440764,0.014613581531704403
1761341782631643100,3.81164306640625,-0.06640870093107223,-0.015431341355107724,0.012287093079206533
1761341782641710000,3.8217099609375,-0.06371873119473458,-0.006046805883571506,0.014499407966970464
1761341782651776000,3.83177587890625,-0.06251870775520801,-0.0015359225966967642,0.010563534389343113
1761341782661842200,3.84184228515625,-0.0655126288741827,-0.016177921938709913,0.006761292562168091
1761341782671908000,3.851908203125,-0.0628197365283966,-0.004491173939406872,0.00952847398687154
1761341782681975000,3.86197509765625,-0.06701251204311848,-0.008218176839593798,0.007689052098686806
1761341782692041200,3.872041259765625,-0.07344926709234714,-0.006476831331290304,0.007489460706245153
1761341782702107100,3.882107177734375,-0.07001110933721065,-0.005105890037957579,0.01194402439573314
1761341782712173600,3.892173583984375,-0.0634299773812294,-0.002152501858770847,0.011468068313901313
1761341782722240500,3.902240478515625,-0.05939210016727447,-0.010578750224784016,0.010385597706283441
1761341782732306400,3.912306396484375,-0.05969312894046306,-0.006925378816388547,0.004683472507959231
1761341782742372600,3.92237255859375,-0.07136544655561447,-0.0037732349283993243,0.014628852166072464
1761341782752439600,3.932439453125,-0.06552490383386611,-0.010844707684591412,0.0036305385220795866
1761341782762505500,3.94250537109375,-0.06358487568199635,-0.0001575286492705345,0.004447672724397853
1761341782772571600,3.952571533203125,-0.07016600763797759,0.005851228512544184,0.006960276599833741
1761341782782637600,3.962637451171875,-0.06882043824791907,-0.01086048977561295,0.012530678877001628
1761341782792704500,3.97270458984375,-0.07390987034142017,-0.01201152297426015,0.005052214488806202
1761341782802770700,3.982770751953125,-0.0788490803092718,-0.006244794407393783,0.009665895996452309
1761341782812836600,3.992836669921875,-0.07765431756675242,-0.004380078247748315,0.006703315297234803
1761341782822902500,4.002902587890625,-0.06987257764935494,-0.005407064941618591,0.0032210626720450817
1761341782832968400,4.012968505859375,-0.0718172819763422,-0.004681929004844278,0.00864031580837909
1761341782843034600,4.02303466796875,-0.0640355420589447,-0.005150496364664286,0.011246114392601885
1761341782853100500,4.0331005859375,-0.07211305005252361,-0.0031897724846377965,0.009899983313539995
1761341782863167500,4.04316748046875,-0.07046937449872494,-0.007846128656808286,0.008022320907353423
1761341782873233700,4.053233642578125,-0.07001812359988689,-0.0012275872998870909,0.00831602489061188
1761341782883299600,4.063299560546875,-0.06059270812869071,-0.0014527195589616893,0.013941888248641043
1761341782893366500,4.073366455078125,-0.06583177782595158,-0.0028961050339974463,0.011487097241356969
1761341782903432700,4.0834326171875,-0.06403495753705502,0.000042670097947120666,0.0100004206138663
1761341782913498600,4.09349853515625,-0.06298866335451603,0.0020350494915619493,0.0093085430592997
1761341782923564500,4.103564453125,-0.06927811888754368,-0.0027182277164421974,0.008822846468165516
1761341782933631500,4.113631591796875,-0.0640396337121725,-0.014755926311574876,0.009827854225668124
1761341782943697400,4.123697509765625,-0.07016951476931571,-0.007185235328972339,0.009518532548169605
1761341782953763600,4.133763671875,-0.06912205154299736,-0.0003295972805470228,0.009139173275185748
1761341782963830500,4.14383056640625,-0.056553077349066734,-0.005846826332062483,0.004783699745731428
1761341782973896400,4.153896484375,-0.06793021140992642,-0.004455938229244202,0.009262201433232985
1761341782983962600,4.163962646484375,-0.06508709693849087,-0.0038179691192694004,0.009545178526500239
1761341782994028500,4.174028564453125,-0.06074643738567829,-0.004031118679605424,0.012811158052505925
1761341783004095500,4.184095458984375,-0.07211889527142047,-0.0037238610950298605,0.006571715673664585
1761341783014161700,4.19416162109375,-0.06553133357465267,-0.010132212033681571,0.01309896658451762
1761341783024227600,4.2042275390625,-0.06134031162559986,-0.0065998366564512245,0.004627175743458793
1761341783034293800,4.214293701171875,-0.06957213339805603,-0.0008517762574367225,-0.0026853118275292215
1761341783044360700,4.224360595703125,-0.07166355271935462,-0.004740965715702623,0.007304897919576615
1761341783054426400,4.23442626953125,-0.059389762079715726,-0.0027977409597486256,0.011402154337684623
1761341783064492500,4.244492431640625,-0.07225801148116588,-0.000009187953453510998,0.019538849739171565
1761341783074559500,4.2545595703125,-0.07061258236169815,-0.002673694454971701,0.015107470562448724
1761341783084625400,4.26462548828125,-0.07689911528527736,-0.008756685896776617,0.005003945767134428
1761341783094691600,4.274691650390625,-0.07630231843590736,-0.009594890286587178,0.007827816681982949
1761341783104757500,4.284757568359375,-0.07031681428551674,0.004054682218283414,0.011938485137512906
1761341783114824400,4.294824462890625,-0.06253448984622954,-0.0063487845048308365,0.010678365541202947
1761341783124890600,4.304890625,-0.06418050348758697,-0.010989888308942318,0.007199409984797239
1761341783134956500,4.31495654296875,-0.06881985372602939,-0.006295976605359465,0.004937862827559002
1761341783145022700,4.325022705078125,-0.06717500912845134,-0.008349128009192646,0.005383277640654705
1761341783155089700,4.335089599609375,-0.06463292343020438,-0.007669055056851357,0.005239357391628436
1761341783165155600,4.345155517578125,-0.06687924105226993,-0.004700615439005196,0.007357975247106514
1761341783175221500,4.355221435546875,-0.07121814703941345,-0.010872435941733418,0.007491205138759687
1761341783185288400,4.365288330078125,-0.06134206519126892,-0.011015789935179054,0.00880403216984123
1761341783195354400,4.375354248046875,-0.06687924105226993,0.0024587913289666175,0.008196239002421498
1761341783205420500,4.385420654296875,-0.0701700992912054,-0.0020875833963975307,0.0159584339691326
1761341783215487500,4.395487548828125,-0.06372983711063862,-0.009654127926845103,0.004056134389853105
1761341783225553400,4.405553466796875,-0.06432955656945705,-0.0007632211911492049,0.018293009829963555
1761341783235620600,4.41562060546875,-0.07345686587691307,-0.0042351716180332,0.01615738604075741
1761341783245686500,4.4256865234375,-0.06851824043095112,-0.003963898662291467,0.010317592237680218
1761341783255752400,4.43575244140625,-0.06881693111658096,-0.010566639661882073,0.010971334305522032
1761341783265818600,4.445818603515625,-0.07226093409061432,-0.003576324116811156,0.01036623085211031
1761341783275885600,4.455885498046875,-0.05864391214847564,0.00132472753142938,0.009377932200813665
1761341783285951500,4.465951416015625,-0.05041384394168853,-0.012464417840912937,0.007269959036936052
1761341783296017700,4.476017578125,-0.06418284157514571,-0.00759725019596517,0.006134050342184491
1761341783306083300,4.486083251953125,-0.06418401061892509,-0.00022420067731291054,0.010453420511796138
1761341783316150500,4.496150634765625,-0.06508242076337337,-0.005862498825229704,0.0044485814732732245
1761341783326216400,4.506216552734375,-0.0703185678511858,-0.002769044588226825,0.003389121848484501
1761341783336282400,4.516282470703125,-0.06134206519126892,-0.00346745691485703,0.008333957839524373
1761341783346349600,4.526349609375,-0.06642799015343188,-0.0005736351694911718,0.005429838462430052
1761341783356415500,4.53641552734375,-0.07465513575077057,-0.0071207917906343935,-0.000997787998849526
1761341783366481700,4.546481689453125,-0.06432955656945705,-0.009242113059852272,0.009409628813597373
1761341783376547600,4.556547607421875,-0.06822071878910065,-0.0006774426038376987,0.008747584708291106
1761341783386614500,4.566614501953125,-0.06851648686528206,-0.004876246000546962,0.006384129812847823
1761341783396680700,4.5766806640625,-0.06477730033695697,-0.011636497383099048,0.011663613718887791
1761341783406746600,4.58674658203125,-0.06882102276980877,-0.004165485648997128,0.004300409740814939
1761341783416813600,4.5968134765625,-0.0764531250834465,-0.0041206783928908405,0.006262704523419961
1761341783426879700,4.606879638671875,-0.06582943973839282,-0.010567534711025655,0.008733350686961785
1761341783436945400,4.6169453125,-0.07061667401492595,-0.010318711049109697,0.008116077305143698
1761341783447011600,4.627011474609375,-0.07241232526004314,-0.00100223584510386,0.004933771174331195
1761341783457078500,4.63707861328125,-0.06717442460656166,-0.003441865815874189,0.012253948861430398
1761341783467144400,4.64714453125,-0.06732172412276267,-0.0013009265307337046,0.010573946185503155
1761341783477210600,4.657210693359375,-0.06746902363896369,-0.005413439883477985,0.003840701540885493
1761341783487276500,4.667276611328125,-0.059092240437865255,-0.007943889942858367,0.005500419480609707
1761341783497343500,4.677343505859375,-0.06313070217370986,-0.011718988034781068,0.0070434705044142894
1761341783507409700,4.68740966796875,-0.06821779617965221,-0.0027390330424532294,0.014276093205646611
1761341783517475600,4.6974755859375,-0.07464987505376339,-0.007018957117665559,0.008781034886743873
1761341783527542500,4.70754248046875,-0.07135609420537949,-0.005592723706830292,0.009555430492456071
1761341783537608700,4.717608642578125,-0.07165420036911964,-0.007145743568800389,0.010367153300717472
1761341783547674600,4.727674560546875,-0.069111530148983,-0.0040881095638498665,-0.0019103043004637583
1761341783557740500,4.737740478515625,-0.0658177493005991,-0.009253419905155897,0.014311159952450542
1761341783567807500,4.747807373046875,-0.060732993382215494,-0.006569551116041838,0.01655750954055693
1761341783577873400,4.757873291015625,-0.07016074694097042,-0.0020205643084831534,0.01628078409156296
1761341783587939600,4.767939697265625,-0.06387362949550152,-0.004688541408721357,0.016147846460854633
1761341783598006500,4.778006591796875,-0.06357493880987167,-0.001971994192712009,0.011519337276834993
1761341783608072400,4.788072509765625,-0.07435118436813354,-0.005338968141470104,0.012041388389561324
1761341783618138600,4.798138671875,-0.06611936259567737,-0.0036361097463406622,0.012397923909383825
1761341783628204500,4.80820458984375,-0.07210135961472988,-0.008699384485278279,0.010280981987761333
1761341783638271500,4.818271484375,-0.06506488510668278,-0.014540639593079685,0.012939898998709395
1761341783648337700,4.828337646484375,-0.0732937842696905,-0.008454963003844022,0.01643653634227812
1761341783658403600,4.838403564453125,-0.07015373267829418,-0.005494706692453473,0.01678333591937553
1761341783668469500,4.848469482421875,-0.07045417692959308,-0.0054316331272944805,0.012794458079454488
1761341783678536700,4.85853662109375,-0.0580313332080841,-0.0038968795743770895,0.007621475888346322
1761341783688602400,4.868602294921875,-0.06446633469164371,-0.003876001183129847,0.011152280362998136
1761341783698668500,4.87866845703125,-0.06596037264168263,-0.01337121222121641,0.01023586420440115
1761341783708736000,4.888736083984375,-0.06909691710174083,-0.005112465909216553,0.010065425841207615
1761341783718802000,4.898802001953125,-0.06386077001392841,-0.002197948435693979,0.004301272823917679
1761341783728868000,4.9088681640625,-0.06610650311410426,-0.01529554961360991,0.006531899686506949
1761341783738934000,4.91893408203125,-0.06056991177499294,-0.01095830586059019,0.016282482858304866
1761341783749001000,4.9290009765625,-0.06565583673715591,-0.0005296316309832036,0.014102010713797061
1761341783759067100,4.939067138671875,-0.06969780560433864,-0.002696088949870318,0.012062344412622042
1761341783769133000,4.949133056640625,-0.06775134771168231,-0.010992299461737274,0.008925690354709514
1761341783779199200,4.95919921875,-0.07508475933969021,-0.0006270275908522308,0.003658426609425805
1761341783789266200,4.96926611328125,-0.07044248649179935,-0.007961535197403282,0.00628087493435014
1761341783799332000,4.97933203125,-0.06235971780121326,-0.011465963121782987,0.006282203808333725
1761341783809398000,4.98939794921875,-0.06699263829886913,-0.007817213089577854,0.013974041519151069
1761341783819465000,4.99946484375,-0.07761690816581249,-0.0030299240141175685,0.00688474084532354
1761341783829531000,5.00953076171875,-0.0746229870468378,-0.0061075413611717515,0.0052864981687162065
1761341783839597000,5.01959716796875,-0.07058160270154476,-0.012269205796066671,0.017203401662083343
1761341783849663000,5.0296630859375,-0.06220306593477726,-0.008732757031917572,0.008723477746918796
1761341783859730000,5.03972998046875,-0.05920914481580257,-0.0017468071347102522,0.011054464278020896
1761341783869796000,5.049796142578125,-0.07132628358900546,-0.003674432462733239,0.007182230521133169
1761341783879862000,5.059862060546875,-0.07192541852593422,-0.008279588170628994,0.005045392022375017
1761341783889928200,5.06992822265625,-0.06608721389174461,-0.009281550021097063,0.011165391006320715
1761341783899995100,5.0799951171875,-0.06893149740695953,-0.005514196844212711,0.013415092462138272
1761341783910061000,5.09006103515625,-0.06758242088556289,-0.005592011320777237,0.009155252193729393
1761341783920127200,5.100127197265625,-0.07671089923679829,-0.005729447030089796,0.016317777933971954
1761341783930194200,5.110194091796875,-0.07117547694146632,-0.005526617934368551,0.022206434113765133
1761341783940259800,5.120259765625,-0.06129647248387336,0.0008008497877977788,0.013728505792864597
1761341783950326000,5.130325927734375,-0.07207154899835586,-0.010366093854792416,0.009232057456718757
1761341783960392000,5.140391845703125,-0.06668284169733524,-0.0002773008377291262,0.0056516782192979
1761341783970459000,5.150458984375,-0.06818155582249164,-0.0013635251718573272,0.013866772619239054
1761341783980525000,5.160525146484375,-0.06428922455906867,-0.009658256112691015,0.016928374979831278
1761341783990591000,5.170591064453125,-0.06324059228897094,-0.012390256626158952,0.0024561975130811334
1761341784000658000,5.180657958984375,-0.06653145052790642,-0.005574493930395693,0.005583284591627307
1761341784010724000,5.19072412109375,-0.06758008279800415,-0.0036955300496891138,0.011704996042046695
1761341784020790000,5.2007900390625,-0.06339022989273072,-0.00806313240835443,0.01543756103334017
1761341784030856200,5.210856201171875,-0.06967384020686149,-0.01081263204589486,0.01413271637931466
1761341784040923100,5.220923095703125,-0.07596037313044071,-0.016434855841845272,0.006977045071544125
1761341784050989000,5.230989013671875,-0.06234393571019172,-0.0009930113590322434,0.007428551698708906
1761341784061055000,5.241054931640625,-0.06773498109877109,-0.0026241014258936044,0.016233328220644033
1761341784071121000,5.251120849609375,-0.06713233903050422,-0.0019086648992262779,0.014711836008098908
1761341784081187800,5.261187744140625,-0.06578560059666633,-0.003698178664501756,0.013731894193193874
1761341784091254000,5.27125390625,-0.0740174223691225,-0.0019173961949534714,0.011058300202921964
1761341784101320000,5.28131982421875,-0.0681833093881607,-0.004560476315952838,0.013062013841303996
1761341784111386000,5.29138623046875,-0.0698299075514078,-0.00859758634492755,0.01944344024041202
1761341784121453000,5.301453125,-0.07821253597140311,-0.009363876275997609,0.012856741626746953
1761341784131519000,5.31151904296875,-0.07910977707207202,-0.006986534419097006,0.011234159093326888
1761341784141585200,5.321585205078125,-0.07701601966321468,-0.0010870097854174673,0.016240004556602797
1761341784151652000,5.331652099609375,-0.05950783550143242,-0.009808514770958572,0.017972536570788362
1761341784161718000,5.341718017578125,-0.0654910015642643,-0.007832575055491179,0.006342044236790388
1761341784171784000,5.351783935546875,-0.07207388708591461,-0.004444174726214259,0.006543224798119626
1761341784181849900,5.361849853515625,-0.0726753601104021,-0.007756002687942236,0.01008808976416476
1761341784191917000,5.3719169921875,-0.07775894698500632,-0.010761924771964549,0.007481227167439646
1761341784201983000,5.38198291015625,-0.07087678625583649,-0.0014264343402348458,0.0069489788876846426
1761341784212049000,5.392048828125,-0.06174830790460109,0.002592683374322951,0.011660873772529884
1761341784222115000,5.402114990234375,-0.0671329235523939,0.0050288062137551605,0.007029318681475706
1761341784232182000,5.41218212890625,-0.07117606146335602,0.0006576967237517237,0.01284026541598141
1761341784242248000,5.422248046875,-0.07162789688408375,-0.010891962626110762,0.008926425573648884
1761341784252314000,5.432314208984375,-0.07551672101616859,-0.0012252309460192919,0.010750439830147661
1761341784262381000,5.442381103515625,-0.07102817742526531,-0.013624584194086492,0.015898214514763094
1761341784272447200,5.452447265625,-0.06698971568942069,-0.012640121467690914,0.013299124232539906
1761341784282513200,5.46251318359375,-0.06953355495333671,-0.0052967364349402486,0.003048898142646067
1761341784292578800,5.472578857421875,-0.07042845796644687,-0.00660783729981631,0.0072835857034893705
1761341784302646000,5.48264599609375,-0.06743336780369281,-0.006265289206150919,0.010622904460341668
1761341784312712000,5.4927119140625,-0.06339782867729664,0.0015740626499988139,0.010633033128711394
1761341784322778000,5.502778076171875,-0.06639291884005069,-0.007732640078663825,0.006340391135821118
1761341784332845000,5.512844970703125,-0.06654547905325889,-0.0022621545120142398,0.01210961305387318
1761341784342911000,5.522910888671875,-0.0626543168336153,-0.00814737662570551,0.014092343269730917
1761341784352977200,5.53297705078125,-0.06564940699636936,-0.004169138910807669,0.010595372566021978
1761341784363043000,5.54304296875,-0.05861643961966037,0.0008702800285071134,0.009446554157347417
1761341784373110000,5.553110107421875,-0.05772270565032959,-0.003010890520084649,0.006521551822428591
1761341784383176200,5.56317626953125,-0.07463467748463154,-0.004248031099606305,0.006168888760125264
1761341784393242000,5.5732421875,-0.07313654788136482,-0.007472820098698139,0.008996134375571273
1761341784403308000,5.58330810546875,-0.06310849034190177,-0.008753891151491552,0.014062450454966164
1761341784413375200,5.593375244140625,-0.07582593309581279,-0.003447875431552529,0.013741095846379175
1761341784423441000,5.60344091796875,-0.06849310598969459,-0.0047804757421836255,0.007173015168216079
1761341784433507000,5.613507080078125,-0.07418108849823475,-0.0087464567637071,0.01614318398546893
1761341784443574000,5.623573974609375,-0.0649029725432396,-0.0002450242696329951,0.014413446716568431
1761341784453640000,5.633639892578125,-0.0654997693926096,-0.0055645935908891254,0.011455382362264208
1761341784463706000,5.6437060546875,-0.06489888089001178,-0.010011106404662132,0.01325256341076456
1761341784473772000,5.65377197265625,-0.06729542063772678,-0.013188950989488512,0.014361104607977904
1761341784483839000,5.6638388671875,-0.07088730764985084,-0.009698515057843178,0.009282257840572856
1761341784493905200,5.6739052734375,-0.06954173825979232,-0.004874528967496007,0.013720441217417828
1761341784503971000,5.68397119140625,-0.07791969050467014,-0.003144106712006032,0.01580658614197746
1761341784514037200,5.694037353515625,-0.07298106505870819,-0.00422227560384199,0.011077895385958254
1761341784524104200,5.704104248046875,-0.07223346156179905,-0.0007624174735508858,0.00845963004580699
1761341784534170000,5.714170166015625,-0.071185413813591,-0.008256152496114373,0.008390880225109868
1761341784544236000,5.724236083984375,-0.06460135924816131,-0.00529688256541267,0.0062275555782252915
1761341784554303000,5.734302978515625,-0.06265490135550499,-0.0029815548277460037,0.0050032470808131614
1761341784564369000,5.744368896484375,-0.06818857008516788,-0.0050581053734757,0.012070541418809443
1761341784574435000,5.75443505859375,-0.0737251614242792,-0.013287114134337752,0.007287608858058229
1761341784584501000,5.7645009765625,-0.060706105375289914,-0.010898100105952472,0.006191328920796513
1761341784594568000,5.77456787109375,-0.06863397576510906,-0.008897519139572978,0.014947466828301548
1761341784604634000,5.784634033203125,-0.07566752766370773,-0.0007901822633109986,0.009403400002210401
1761341784614700000,5.794699951171875,-0.0707324093490839,-0.008433061699289828,0.012758829643647185
1761341784624766200,5.80476611328125,-0.07372808403372764,-0.0021948066305369136,0.011588347392436115
1761341784634833200,5.814833251953125,-0.07178279518485069,-0.0032661439227871596,0.007829414984025061
1761341784644899000,5.824899169921875,-0.06893909619152545,-0.007624540061689913,0.011988005101354792
1761341784654965000,5.834965087890625,-0.06549743130505084,-0.010365600664447992,0.006578921732585877
1761341784665032200,5.8450322265625,-0.06145429339408874,-0.0037188378600403666,0.005823386090970598
1761341784675097900,5.855097900390625,-0.07222820086479187,-0.006440810169838368,0.013776340689696371
1761341784685164000,5.8651640625,-0.06893558906018733,-0.006481945897825062,0.014048960785730742
1761341784695230000,5.87522998046875,-0.07536883697807788,-0.008181096232216805,0.013387916760845109
1761341784705297000,5.885296875,-0.07222703182101249,-0.0030669498225674033,0.010973307066899723
1761341784715362800,5.89536279296875,-0.06699263829886913,-0.003717066028062254,0.01778091385567095
1761341784725428700,5.9054287109375,-0.06519932514131069,-0.001079758060723543,0.007389776891167275
1761341784735495000,5.915494873046875,-0.06385317122936249,-0.005997998305782675,0.014983730018348433
1761341784745561900,5.925561767578125,-0.07088672312796115,-0.011965400543902069,0.019418114002910443
1761341784755627800,5.935627685546875,-0.0640092385739088,-0.00156019852142781,0.008125155660742893
1761341784765694000,5.94569384765625,-0.06550210748016834,-0.007516787104588002,0.012341937672137282
1761341784775760000,5.955759765625,-0.06654723261892795,-0.0047765484857372935,0.011262649968871847
1761341784785826800,5.965826904296875,-0.06624503480195999,-0.0111980329005979,0.011237894553528166
1761341784795892700,5.975892822265625,-0.06833528507947921,-0.009463719921279697,0.016447450461937112
1761341784805958700,5.985958740234375,-0.06295300751924514,-0.010016768960468471,0.018357101741852237
1761341784816025900,5.99602587890625,-0.062358548757433886,-0.00052265390092507,0.008451981028891168
1761341784826091800,6.006091796875,-0.07118658285737037,-0.006999649628996849,0.015272383367153815
1761341784836157700,6.01615771484375,-0.07238660629689693,-0.004967924605682492,0.020018582380400038
1761341784846224000,6.026223876953125,-0.07672492776215076,-0.008452734514139592,0.017665278986212795
1761341784856290800,6.036290771484375,-0.07119184355437755,-0.008459657445270568,0.007344079152494669
1761341784866356700,6.046356689453125,-0.06714987468719483,0.0001619308297522366,0.00681847980923485
1761341784876423000,6.0564228515625,-0.06445581329762935,-0.004651862660143524,0.0157835888588801
1761341784886488800,6.06648876953125,-0.06400748500823975,-0.007131495847739279,0.005489761089277454
1761341784896555800,6.0765556640625,-0.0698433515548706,-0.011596804693527519,0.013782875461759976
1761341784906622000,6.0866220703125,-0.07418108849823475,-0.0054312678011134265,0.014237181400787084
1761341784916687600,6.0966875,-0.06998831298351288,-0.0025575572620145973,0.009584510456467979
1761341784926754800,6.1067548828125,-0.06909107188284397,-0.005693919058982282,0.0060910286177881055
1761341784936820700,6.11682080078125,-0.06026479134857654,-0.005601601133029908,0.0095014444160508
1761341784946886700,6.12688671875,-0.06236030232310295,0.0017638678673654793,0.011481137858028522
1761341784956952800,6.136952880859375,-0.06774725605845451,-0.008270053157303482,0.010792749168490991
1761341784967019800,6.147019775390625,-0.06595102029144763,-0.008883691543620079,0.0159975969357416
1761341784977086000,6.1570859375,-0.057872927775979036,-0.003968994962517172,0.00659803285843227
1761341784987152000,6.16715185546875,-0.06865034237802028,-0.002623005447350442,0.017645364142768082
1761341784997217800,6.1772177734375,-0.06371113241016864,-0.001633336822874844,0.012971225718734785
1761341785007285000,6.187284912109375,-0.06161971308887004,-0.007643847550358623,0.011667577507952227
1761341785017351000,6.197350830078125,-0.06865209594368935,-0.001369242526590824,0.014646807947871274
1761341785027416800,6.207416748046875,-0.06625555619597434,-0.006390650885179638,0.0022684792215237394
1761341785037484000,6.217484130859375,-0.07209025369882584,-0.007633015629090368,0.009019067726586946
1761341785047549700,6.2275498046875,-0.06326338864266871,-0.004833996027708053,0.012550940780318341
1761341785057616000,6.237615966796875,-0.07194120061695575,-0.005186535792425275,0.00659563083879184
1761341785067681800,6.247681884765625,-0.07059621574878693,-0.00779383221399039,0.016319357969705014
1761341785077748700,6.257748779296875,-0.07523439694344997,0.0005732698433101176,0.0057447496304987
1761341785087815000,6.26781494140625,-0.06460837351083755,-0.004602470560465008,0.006078370065614581
1761341785097880800,6.277880859375,-0.07044307101368903,0.000721190414018929,0.008423860046104528
1761341785107946800,6.28794677734375,-0.060714288681745526,-0.00566379791535437,0.007382200939487666
1761341785118014000,6.298013916015625,-0.06520224775075913,-0.009141410898044705,0.010365312970080412
1761341785128080000,6.308079833984375,-0.06969312942922115,-0.005507292179390787,0.009263407009630463
1761341785138146000,6.31814599609375,-0.07268997315764426,-0.0037283363407477734,0.011250722069060429
1761341785148213000,6.328212890625,-0.06760521723926068,-0.0019287030402570962,0.011306831603893078
1761341785158279000,6.33827880859375,-0.07299275549650192,0.0006373297891579568,0.009087634884193539
1761341785168344800,6.3483447265625,-0.06640753188729286,-0.0017990670449100435,0.006765343116200528
1761341785178410800,6.35841064453125,-0.06865092689990997,-0.00856815932104364,0.013384459861856884
1761341785188477700,6.368477783203125,-0.059521864026784894,-0.005513575789704918,0.015335625895671546
1761341785198544000,6.3785439453125,-0.061764089995622634,-0.0091700707369484,0.01740345884540584
1761341785208609800,6.38860986328125,-0.06834639099538325,-0.010443835266120732,0.0048494995575165374
1761341785218676000,6.398676025390625,-0.05952244854867458,-0.010557287311647087,0.0039062182248802853
1761341785228743000,6.408742919921875,-0.06655483140349387,-0.008167031174246222,0.011721453986503183
1761341785238808800,6.418808837890625,-0.0674514879822731,-0.003313417130615562,0.0017522413616534321
1761341785248875000,6.428875,-0.06625497167408466,-0.009420921959169208,0.009953964823368005
1761341785258941000,6.43894091796875,-0.06176935069262981,-0.0043442580156959594,0.01386601913399063
1761341785269008000,6.4490078125,-0.06954992156624794,-0.00450682816626504,0.010229868288454598
1761341785279073800,6.45907373046875,-0.057877019429206845,-0.01309206648627296,0.00446404390388634
1761341785289139700,6.4691396484375,-0.06610591859221458,-0.009394855936150998,0.002903420690773055
1761341785299206700,6.47920654296875,-0.0773334150493145,-0.003818498842231929,0.009278444748558103
1761341785309272800,6.48927294921875,-0.06790858410000801,-0.007131514114048332,0.010881299668201245
1761341785319338800,6.4993388671875,-0.06626666211187839,-0.00679645520709455,0.0038809102536877613
1761341785329405000,6.509405029296875,-0.07554770067632198,-0.001138429445400834,0.013845140742743386
1761341785339472000,6.519471923828125,-0.07001520099043845,-0.013091609828546643,0.013869992056209594
1761341785349537800,6.529537841796875,-0.06403086588382721,-0.009605338615365326,0.016316371428174898
1761341785359604000,6.53960400390625,-0.07031622976362704,-0.006855016993917524,0.006690227486798539
1761341785369670000,6.549669921875,-0.0673252312541008,-0.00692607293613255,0.010894095217692665
1761341785379736800,6.55973681640625,-0.06448211678266524,0.002650167448911816,0.013429490880249067
1761341785389803000,6.569802978515625,-0.06478431459963321,-0.008734802858531475,0.008107711335597559
1761341785399868700,6.57986865234375,-0.05745382558107376,-0.010029226583242417,0.010101442436082289
1761341785409935600,6.589935546875,-0.0653863721460104,-0.0005338694146834313,0.009587008374230935
1761341785420001800,6.600001708984375,-0.06538987927734852,-0.010586111547332256,0.004970906580635346
1761341785430067700,6.610067626953125,-0.06659340984821319,-0.00791062699407339,0.010660761385853403
1761341785440134000,6.6201337890625,-0.06374737276732921,-0.00027236893428489564,0.007558224226674065
1761341785450200800,6.630200927734375,-0.06449906791746617,0.00015066051706671713,0.0123813837665366
1761341785460266800,6.640266845703125,-0.06988777521848678,-0.004546886182017624,0.008409849787061103
1761341785470333000,6.6503330078125,-0.0673468585640192,-0.006383052100613713,0.012550063997483811
1761341785480398800,6.66039892578125,-0.06689560766518116,-0.00961447176989168,0.00865992469114717
1761341785490465800,6.6704658203125,-0.061657122489809986,-0.009229326643515378,0.00970379402115941
1761341785500532000,6.680531982421875,-0.06988485260903834,-0.006583086451049894,0.00463898947883863
1761341785510598000,6.690597900390625,-0.07751520135700703,-0.004390727505926043,0.012800020170561038
1761341785520664800,6.700664794921875,-0.07152852816283703,-0.00608701002979651,0.009449221038469112
1761341785530730800,6.710730712890625,-0.06449322269856929,-0.002283252098970115,0.0032073172744829207
1761341785540796700,6.720796630859375,-0.07272621351480484,-0.0027629801736213265,0.0033218424656661226
1761341785550862800,6.73086279296875,-0.07512158421874046,-0.0016906747669912874,0.008356119438982568
1761341785560929800,6.7409296875,-0.0662923810750246,-0.003926982451695949,0.007276877401489764
1761341785570995700,6.75099560546875,-0.06120879420042038,-0.004361300482042134,0.013845556301274336
1761341785581062000,6.761061767578125,-0.06659224080443382,-0.0023951697745360433,0.004496672098431736
1761341785591127800,6.7711279296875,-0.07063011801838874,-0.0019062172138132154,0.005331570286303758
1761341785601194800,6.78119482421875,-0.06883505129516124,-0.011002912187296897,0.014823758250242099
1761341785611261000,6.791260986328125,-0.06838321587443351,-0.004822305589914321,0.011453121906518935
1761341785621326800,6.801326904296875,-0.07421966694295407,-0.0013570406321436166,0.02057122956078965
1761341785631392800,6.811392822265625,-0.0659878451704979,-0.00668188891671598,0.008060986117040737
1761341785641460000,6.8214599609375,-0.06928045697510242,-0.0030929793129675087,0.007937661131471395
1761341785651525600,6.831525634765625,-0.07092413252890109,0.0015486176814883945,0.005829322641412727
1761341785661591800,6.841591796875,-0.06404255632162094,-0.007673037112224846,0.012605776240094565
1761341785671658800,6.85165869140625,-0.07346563370525837,-0.007848265814967453,0.0066210255749523635
1761341785681724700,6.861724609375,-0.07272153733968734,-0.010112320023123175,0.0031897085525561123
1761341785691790800,6.871790771484375,-0.06823650088012218,-0.009772292680107056,0.015052717301063239
1761341785701856800,6.881856689453125,-0.06314882235229015,-0.01141211404269561,0.006383161698468029
1761341785711923700,6.891923828125,-0.05775719244182109,-0.007835844724811613,0.010396105400566012
1761341785721989600,6.90198974609375,-0.06703589291870593,-0.005546400347072631,0.010578215935244224
1761341785732055600,6.9120556640625,-0.07601531818807125,-0.0064009348171763115,0.006233962486125529
1761341785742121500,6.92212158203125,-0.06553951688110828,-0.0038638540876097974,0.011036618094076403
1761341785752188400,6.9321884765625,-0.059252399435639376,-0.007248126231040805,0.010124622382270172
1761341785762254600,6.942254638671875,-0.07212064883708953,-0.0009440028518438339,0.006795071534183807
1761341785772320500,6.952320556640625,-0.06657879680097102,-0.004739011220633984,0.005673935716878622
1761341785782387500,6.962387451171875,-0.06253916602134704,-0.002342617603391409,0.012469272112543693
1761341785792453600,6.97245361328125,-0.06343816068768501,-0.00693674046061933,0.013337789442227221
1761341785802519600,6.98251953125,-0.0692769498437643,-0.017727836528141052,0.011460999252297915
1761341785812585500,6.99258544921875,-0.07107377013266086,-0.005724314197245985,0.016017699008854105
1761341785822652700,7.002652587890625,-0.06449030008912086,-0.001514514482486993,0.007682462527696042
1761341785832718600,7.012718505859375,-0.0658393766105175,-0.0024848573519848285,0.015360637039341964
1761341785842784800,7.02278466796875,-0.0658393766105175,-0.003670980130322277,0.007722981767752208
1761341785852850400,7.032850341796875,-0.06928513315021992,-0.012906864378787576,0.011452583050401881
1761341785862917400,7.04291748046875,-0.07332710201740264,-0.00833086170013994,0.012135925672063603
1761341785872983600,7.052983642578125,-0.06674363197386264,-0.0102691180200316,0.01755232469760813
1761341785883049500,7.063049560546875,-0.0707850163191557,0.0005543459471315145,0.011597430314612574
1761341785893115600,7.07311572265625,-0.07392389886677264,-0.0027196524885483085,0.007755454698670655
1761341785903182600,7.0831826171875,-0.06479658955931664,-0.007777356003224849,0.009021972069726325
1761341785913248500,7.09324853515625,-0.0668938540995121,-0.003202211841102689,0.008187667536898516
1761341785923314700,7.103314697265625,-0.06584639087319373,-0.00021358795175328849,0.006047687232983298
1761341785933381600,7.113381591796875,-0.06539806258380412,-0.00886851224079728,0.007877624340192414
1761341785943447600,7.123447509765625,-0.07572130367755889,0.0006495134172961115,0.014314562052511609
1761341785953513700,7.133513671875,-0.07033434994220733,-0.004146105095092207,0.006805314366985112
1761341785963579600,7.14357958984375,-0.06449672982990741,-0.005572667299490422,0.0075373960677767166
1761341785973646600,7.153646484375,-0.06748539025187492,-0.002604392078425735,0.007446142154326662
1761341785983712500,7.16371240234375,-0.05805880573689937,-0.0036306298536248503,0.0026993586191907523
1761341785993778400,7.1737783203125,-0.06314414617717266,-0.004316968149971217,0.013019425941747613
1761341786003844600,7.1838447265625,-0.05161737451255321,-0.007490593217406421,0.0010034140220377594
1761341786013911600,7.19391162109375,-0.064484454870224,-0.0017293080106377601,0.006548325664922594
1761341786023977500,7.2039775390625,-0.06942366483807563,-0.005736698754783719,0.008250736535480245
1761341786034043600,7.214043701171875,-0.06314063904583454,-0.008824033778253942,0.018207646801183
1761341786044110600,7.224110595703125,-0.07196925766766071,-0.005367408784665167,0.009467925738939084
1761341786054176500,7.234176513671875,-0.06224281342327594,-0.002947963085398078,0.00832810348747298
1761341786064242700,7.24424267578125,-0.06673427962362766,-0.002109429902024567,0.0018760686707217245
1761341786074308600,7.25430859375,-0.06014964053630829,0.0015889131592586635,0.01302561822051648
1761341786084375600,7.26437548828125,-0.06449146913290023,-0.004313771545886993,0.017666813356173223
1761341786094441700,7.274441650390625,-0.0694295100569725,-0.0054038318049162625,0.010906539140734821
1761341786104507400,7.28450732421875,-0.0685322689563036,-0.0033014892308041452,0.008218012442812324
1761341786114573600,7.294573486328125,-0.0647895752966404,-0.003520703205745667,0.011494463130482472
1761341786124640500,7.304640625,-0.07556465181112289,-0.0021167181593365965,0.01806131083278451
1761341786134706400,7.31470654296875,-0.07661269955933094,-0.007193857026845217,0.018170173468161372
1761341786144772600,7.324772705078125,-0.06973112335205078,-0.0008304412084631621,0.008903912347741424
1761341786154839600,7.334839599609375,-0.06703355483114719,-0.000364102338347584,0.010146062462520785
1761341786164905500,7.344905517578125,-0.06972878526449203,-0.002965334345307201,0.010528969966038129
1761341786174971600,7.3549716796875,-0.07257365330159664,0.0011402012773789464,0.009602877230220474
1761341786185037600,7.36503759765625,-0.07736147210001945,0.0018786898860707877,0.00861113081309013
1761341786195104500,7.3751044921875,-0.07975859636962414,-0.0030787863908335565,0.007834844644390977
1761341786205170700,7.385170654296875,-0.06090367377400398,-0.013286949737556277,0.009536173236137256
1761341786215236400,7.395236328125,-0.07556523633301257,-0.005463617434445768,0.0073255662482697515
1761341786225302500,7.405302490234375,-0.062243982467055314,-0.003053286623395979,0.014273065564921125
1761341786235369500,7.415369384765625,-0.05880348662436008,-0.0019333974816836417,0.011382120763231068
1761341786245435400,7.425435302734375,-0.06613806729614734,-0.008256718751695006,0.005782291462179273
1761341786255501600,7.43550146484375,-0.07391630008220672,-0.006705616852175444,0.000860822646995075
1761341786265567500,7.4455673828125,-0.059249476826190944,-0.011105020854901521,0.006224363540718331
1761341786275634400,7.455634521484375,-0.0604495002657175,-0.00767731142854318,0.010832884816057048
1761341786285700600,7.46570068359375,-0.0659878451704979,-0.0017191702091135083,0.018721994098066352
1761341786295766500,7.4757666015625,-0.05701017346680164,0.0005505830874666572,0.009663548775739036
1761341786305833500,7.48583349609375,-0.05910451539754867,-0.0035015601138584313,0.01388597507663071
1761341786315899600,7.495899658203125,-0.06718903765380382,-0.00406606212882325,0.008052131523727439
1761341786325965600,7.505965576171875,-0.07886486240029335,-0.0009005838352255523,0.015297732437541707
1761341786336031500,7.516031494140625,-0.06270458571612834,-0.0032978725016117095,0.013601038921717554
1761341786346098400,7.526098388671875,-0.07108779865801335,-0.00854519857056439,0.013875083789858035
1761341786356164400,7.536164306640625,-0.06659691697955131,0.002646623784955591,0.01112238298165612
1761341786366230500,7.54623046875,-0.06150105514526367,-0.0039692872234620155,0.015836912781582214
1761341786376296400,7.55629638671875,-0.06523848810791968,-0.0042759968187659975,0.01668022717135027
1761341786386363400,7.56636328125,-0.0816992090433836,-0.0032238026184029877,0.010169356573140248
1761341786396429600,7.5764296875,-0.07062251923382282,-0.006831069862749427,0.01598113442470785
1761341786406495500,7.58649560546875,-0.07361059513390064,-0.010017590944375843,0.010899150418723002
1761341786416561700,7.596561767578125,-0.0716688134163618,-0.010034048888832331,0.009307405981561169
1761341786426628600,7.606628662109375,-0.06373977398276329,-0.005495656540524215,0.009620472252415493
1761341786436694500,7.616694580078125,-0.06598842969238758,-0.0029349940059706565,0.008084919548477046
1761341786446760700,7.6267607421875,-0.06943477075397968,-0.0027593817107379433,0.013945326881320216
1761341786456827600,7.63682763671875,-0.06703940005004405,-0.006427822824101895,0.01138693850224372
1761341786466893300,7.646893310546875,-0.07033493446409701,-0.0022619170499965546,0.0161281325468095
1761341786476959500,7.65695947265625,-0.07093114679157733,-0.00026743703084066507,0.012474925535195506
1761341786487025400,7.667025390625,-0.06389408776164054,-0.005978818681277334,0.011216376841464079
1761341786497092600,7.677092529296875,-0.0661357292085886,-0.003806096018385142,0.009901006226846948
1761341786507158500,7.687158447265625,-0.0691290658056736,-0.00990395623575896,0.01641242481432855
1761341786517224400,7.697224365234375,-0.06314180808961391,-0.003996266561932861,0.018660610166494732
1761341786527290600,7.70729052734375,-0.0710761082202196,-0.0032745829575695096,0.005104657062096521
1761341786537357600,7.717357666015625,-0.06688157913982867,-0.004662310988921672,0.01263777424697764
1761341786547423500,7.727423583984375,-0.06837970874309539,-0.007867372374236584,0.0068257771997014055
1761341786557489700,7.73748974609375,-0.07945172237753868,-0.005378825227823108,0.008632689624349587
1761341786567556600,7.747556640625,-0.07062251923382282,-0.00882354058790952,0.013044578649313188
1761341786577622500,7.75762255859375,-0.07286416068077087,-0.0037217422031797466,0.013195120435371063
1761341786587688400,7.7676884765625,-0.07032149046063423,-0.007560461849533021,0.010189294249471277
1761341786597754400,7.77775439453125,-0.0674818831205368,-0.001568217431101948,0.01487416413007304
1761341786607821600,7.787821533203125,-0.06299275500774383,-0.0005046981191262602,0.019801332033681684
1761341786617887500,7.797887451171875,-0.06449205365478992,0.0009938881418667734,0.009436745149386114
1761341786627953400,7.807953369140625,-0.07451952667236328,-0.004171714460384101,0.0162068557722494
1761341786638019600,7.81801953125,-0.06659048723876476,-0.00563577739726752,0.01197529175025411
1761341786648086500,7.82808642578125,-0.06239829624593258,0.00011378083908930421,0.004815556188719347
1761341786658152700,7.838152587890625,-0.06569207709431647,-0.000582439530454576,0.01381156270012725
1761341786668218600,7.848218505859375,-0.06763795046508311,-0.004002915498428046,0.011766804665303788
1761341786678284500,7.858284423828125,-0.06419511653482914,-0.014044727568607777,0.018638462266768328
1761341786688351700,7.868351806640625,-0.07721358806192874,-0.0074702810817398125,0.009713429499184712
1761341786698417400,7.87841748046875,-0.06958265479207039,-0.00013080503912642598,0.014515180924837476
1761341786708483600,7.888483642578125,-0.06868716725707054,-0.0057164414180442685,0.00009572915916796774
1761341786718550500,7.898550537109375,-0.06524725593626499,-0.005360102261044085,0.006708388764574192
1761341786728616400,7.908616455078125,-0.0649503188163042,-0.012578235212620347,0.008242608027951792
1761341786738682600,7.9186826171875,-0.06285948401689528,-0.0012055215985514224,0.011605864782817662
1761341786748748500,7.92874853515625,-0.06361001012325286,-0.007994706814642994,0.009055253284820356
1761341786758815500,7.9388154296875,-0.06899696385860443,0.00006758534349501132,0.002343476119916886
1761341786768881700,7.948881591796875,-0.06929623906612396,-0.005192837669048458,0.007522257864149287
1761341786778947600,7.958947509765625,-0.06495733307898044,-0.0011275244588963686,0.010373774837749079
1761341786789013500,7.969013427734375,-0.062411740249395366,-0.0021003150138072667,0.014678321897564454
1761341786799080700,7.979080810546875,-0.0746796856701374,0.006810063607338815,0.008185009788931347
1761341786809146600,7.989146728515625,-0.060761634954810136,-0.0031224063368514177,0.013998372242809273
1761341786819212500,7.999212646484375,-0.06749591164588928,-0.006673267218843102,0.01567662591964472
1761341786829278500,8.009278564453124,-0.07138648934364318,-0.009385613183770328,0.011062405555881559
1761341786839344400,8.019344482421875,-0.06944120049476624,-0.006528963377326727,0.005506721357232891
1761341786849410600,8.02941064453125,-0.06959025357663631,-0.003315572555083781,0.015058288525324313
1761341786859477500,8.0394775390625,-0.061090136256814,-0.003315517756156623,0.0052296442817896605
1761341786869543700,8.049543701171874,-0.13155834171175956,0.0035653095324523743,-0.010735210294974967
1761341786879609600,8.059609619140625,0.004602525359392166,-0.013593568001314997,0.026077293330896645
1761341786889676500,8.069676513671874,-0.11435761606395244,0.004447316531371325,0.006648064278927631
1761341786899742700,8.07974267578125,-0.03953413800895214,-0.008127703810855745,0.018629904500977134
1761341786909808600,8.08980859375,-0.07259937226474285,-0.008694927505869417,0.009422940386319533
1761341786919874300,8.099874267578125,-0.06166998197138309,-0.01214802710181102,0.013692206070199608
1761341786929941800,8.109941650390626,-0.06480535738766192,-0.007376447052136063,0.012621992155956104
1761341786940007400,8.12000732421875,-0.06076689565181732,-0.007414952431619167,0.005925599789852276
1761341786950073600,8.130073486328126,-0.07184066285192967,-0.0012521372192539275,0.009541589196771384
1761341786960139500,8.140139404296875,-0.06136369250118732,-0.008350077857263386,0.010999268058640882
