time,seconds_elapsed,z,y,x
1761341778897052700,0.077052734375,0.00018108729273080826,-0.0014849919825792313,0.00023393426090478897
1761341778907118800,0.087118896484375,-0.00009561516344547272,-0.0029734326526522636,0.0028723282739520073
1761341778917185800,0.097185791015625,-0.0007668808102607727,0.0001132674515247345,0.0008764737285673618
1761341778927251700,0.107251708984375,-0.0023554563522338867,-0.0017514778301119804,0.0023971390910446644
1761341778937318000,0.11731787109375,-0.00034950487315654755,-0.00015130452811717987,0.0005290783010423183
1761341778947384800,0.127384765625,-0.003190032672137022,-0.0020922161638736725,-0.00028025684878230095
1761341778957450800,0.13745068359375,0.0000617029145359993,-0.0011771311983466148,-0.0000017550773918628693
1761341778967517000,0.147516845703125,-0.0010957065969705582,0.000470832921564579,0.0018070638179779053
1761341778977582800,0.157582763671875,0.0014036409556865692,-0.00021593645215034485,0.00012094574049115181
1761341778987649800,0.16764990234375,-0.0010840175673365593,-0.0017887996509671211,0.0011185654439032078
1761341778997715700,0.1777158203125,0.0004524099640548229,-0.001895178109407425,-0.0003307480365037918
1761341779007781600,0.18778173828125,-0.0004256339743733406,-0.0015417765825986862,0.00029829051345586777
1761341779017848800,0.197848876953125,-0.0011410526931285858,0.0022694356739521027,-0.00039635319262742996
1761341779027914800,0.207914794921875,-0.0005722013302147388,-0.0004927953705191612,0.0005919463001191616
1761341779037980700,0.217980712890625,0.00011038780212402344,0.0002783713862299919,0.005286169238388538
1761341779048047900,0.2280478515625,-0.00013622082769870758,0.0009779836982488632,0.0024658814072608948
1761341779058113800,0.23811376953125,-0.000060609541833400726,-0.00046248361468315125,-0.002638693433254957
1761341779068180000,0.248179931640625,-0.0019426657818257809,0.00033060554414987564,0.003082042559981346
1761341779078246000,0.258245849609375,-0.000054454896599054337,0.0012361770495772362,-0.0004246239550411701
1761341779088312800,0.268312744140625,0.002198579255491495,-0.0014717252925038338,0.0006185360252857208
1761341779098379000,0.27837890625,-0.0006277444772422314,0.0003502285107970238,0.0001031649298965931
1761341779108445000,0.28844482421875,-0.0010653017088770866,-0.0016639204695820808,-0.0001879185438156128
1761341779118511900,0.298511962890625,-0.0023860190995037556,-0.0015175063163042068,-0.00046241702511906624
1761341779128578000,0.308578125,0.0011724969372153282,0.00004070904105901718,0.001085678581148386
1761341779138643700,0.318643798828125,-0.00012208567932248116,-0.0002054283395409584,-0.0014881924726068974
1761341779148710000,0.3287099609375,-0.0005548493936657906,0.0008723530918359756,0.0004572467878460884
1761341779158776800,0.33877685546875,0.0003211796283721924,-0.0035323817282915115,-0.0016051852144300938
1761341779168842800,0.3488427734375,-0.0016711317002773285,0.0002647535875439644,-0.002355930395424366
1761341779178909000,0.358908935546875,0.0012537972070276737,0.0004899716004729271,-0.0016677291132509708
1761341779188975900,0.368975830078125,0.0005539180710911751,-0.0013622576370835304,0.0004356349818408489
1761341779199041800,0.379041748046875,0.001335198525339365,0.0003560138866305351,0.0023118327371776104
1761341779209108000,0.38910791015625,0.002304589143022895,-0.0017920909449458122,0.0004473528824746609
1761341779219174000,0.399173828125,-0.0008274237625300884,-0.0007933201268315315,0.0022808993235230446
1761341779229240800,0.40924072265625,0.0010474417358636856,0.0015092482790350914,-0.0010826732032001019
1761341779239307000,0.41930712890625,0.0010030446574091911,0.0008810693398118019,0.001963375136256218
1761341779249372700,0.42937255859375,-0.0025674556382000446,0.0007774727419018745,-0.0015762322582304478
1761341779259439900,0.43943994140625,-0.0026897559873759747,-0.0009754076600074768,0.0006328229792416096
1761341779269505800,0.449505859375,0.000031461939215660095,-0.0002739308401942253,-0.0003078053705394268
1761341779279571700,0.45957177734375,0.0009644543752074242,0.0000765891745686531,0.000050883274525403976
1761341779289638700,0.469638671875,-0.001406824216246605,-0.0034702084958553314,0.0011478397063910961
1761341779299704800,0.479704833984375,-0.00006554834544658661,0.000014307908713817596,0.00017205625772476196
1761341779309770800,0.489770751953125,0.0010311412625014782,0.0013677263632416725,0.0019800765439867973
1761341779319837000,0.4998369140625,0.000673315953463316,-0.001522931270301342,-0.0004397006705403328
1761341779329903900,0.50990380859375,-0.0004513370804488659,0.0008683213964104652,-0.0025601093657314777
1761341779339969800,0.5199697265625,0.002368070650845766,-0.0009532328695058823,-0.0012365728616714478
1761341779350036000,0.530035888671875,-0.00046366825699806213,0.0010864818468689919,0.0005179177969694138
1761341779360103000,0.54010302734375,-0.00027830805629491806,0.000557703897356987,-0.000040392857044935226
1761341779370168800,0.5501689453125,0.0009374246001243591,-0.00005855131894350052,0.00014363182708621025
1761341779380234800,0.56023486328125,0.002817698521539569,-0.000988204963505268,-0.0007948032580316067
1761341779390300700,0.57030078125,-0.00040579168125987053,0.0004323255270719528,0.0007655424997210503
1761341779400367600,0.58036767578125,-0.00128624914214015,-0.0014095744118094444,0.00024494389072060585
1761341779410433800,0.590433837890625,-0.00004201987758278847,-0.0014713602140545845,-0.0006171213462948799
1761341779420499700,0.600499755859375,0.003374435007572174,-0.0030640549957752228,0.0003986768424510956
1761341779430567000,0.61056689453125,0.00032777898013591766,0.0000931229442358017,-0.0016077486798167229
1761341779440632800,0.6206328125,-0.0012405929155647755,-0.0010962793603539467,0.00001897430047392845
1761341779450698800,0.63069873046875,-0.00016840407624840736,0.00048031192272901535,0.000337221659719944
1761341779460766000,0.640765869140625,0.0011525568552315235,-0.0008641248568892479,-0.002586974296718836
1761341779470831900,0.650831787109375,0.0011011580936610699,-0.0005932813510298729,0.0012096278369426727
1761341779480897800,0.660897705078125,0.0004268353804945946,-0.001808585599064827,0.00012262724339962006
1761341779490964000,0.6709638671875,-0.00023123156279325485,0.0009653624147176743,0.0016182586550712585
1761341779501031000,0.681031005859375,-0.0004137610085308552,-0.00002546701580286026,-0.0018090205267071724
1761341779511096800,0.691096923828125,0.00010981643572449684,0.002699480392038822,0.002119941171258688
1761341779521162800,0.701162841796875,-0.0019966373220086098,-0.0007923878729343414,-0.0006222771480679512
1761341779531229700,0.711229736328125,0.00012084236368536949,-0.000016342848539352417,0.00019185105338692665
1761341779541295900,0.7212958984375,0.001799894031137228,0.004716905765235424,0.00009418325498700142
1761341779551361800,0.73136181640625,-0.00023795710876584053,-0.001087455078959465,0.0011951341293752193
1761341779561427700,0.741427734375,-0.0002939198166131973,-0.00011667516082525253,-0.0005897264927625656
1761341779571495000,0.751494873046875,-0.0009463946335017681,-0.0014360053464770317,-0.00024484703317284584
1761341779581560800,0.761560791015625,-0.0004799654707312584,-0.0006900383159518242,0.0004519624635577202
1761341779591627000,0.771626953125,-0.002627538051456213,-0.0003427620977163315,-0.001305457204580307
1761341779601694000,0.78169384765625,-0.00041785137727856636,-0.0010209409520030022,0.004328654147684574
1761341779611759900,0.791759765625,-0.00011744676157832146,0.0010962728410959244,0.0003054169937968254
1761341779621826000,0.801825927734375,0.0005249548703432083,-0.0008234018459916115,0.00008368957787752151
1761341779631891700,0.8118916015625,0.0007513235323131084,-0.0016308724880218506,-0.0022332603111863136
1761341779641958700,0.821958740234375,0.00045540789142251015,0.002538830041885376,-0.0006490121595561504
1761341779652024800,0.83202490234375,0.001519340556114912,-0.002546209841966629,0.0007347660139203072
1761341779662090800,0.8420908203125,-0.0022257091477513313,-0.00032148417085409164,0.00008151540532708168
1761341779672157700,0.85215771484375,-0.0037061600014567375,0.00016108062118291855,-0.002712407149374485
1761341779682223900,0.862223876953125,0.0006725043058395386,-0.001215081661939621,0.000035671982914209366
1761341779692289800,0.872289794921875,-0.00032857805490493774,0.0006533917039632797,-0.001212818082422018
1761341779702355500,0.88235546875,0.0006403317674994469,-0.0002491651102900505,-0.002340081613510847
1761341779712422400,0.89242236328125,-0.00010242406278848648,0.0008896021172404289,-0.0015712268650531769
1761341779722488300,0.90248828125,0.00034148944541811943,0.00047946348786354065,-0.0006125164218246937
1761341779732554500,0.912554443359375,-0.00021111639216542244,0.0006528357043862343,0.0013236012309789658
1761341779742621400,0.922621337890625,0.000006658025085926056,-0.0000033481046557426453,-0.002770255785435438
1761341779752687400,0.932687255859375,-0.0001557948999106884,-0.0021128375083208084,-0.002852281089872122
1761341779762753500,0.94275341796875,0.0005003325641155243,-0.001804593950510025,-0.0014441744424402714
1761341779772819500,0.9528193359375,-0.0016195434145629406,0.00013525225222110748,-0.0022620311938226223
1761341779782886400,0.962886474609375,0.0019794139079749584,-0.0016332147642970085,0.00044396938756108284
1761341779792952600,0.97295263671875,-0.0002160961739718914,0.0017231674864888191,-0.0006327466107904911
1761341779803018500,0.9830185546875,0.0004407968372106552,-0.001984957605600357,0.0004986119456589222
1761341779813085400,0.99308544921875,0.001214977353811264,-0.0014834841713309288,-0.000010584946721792221
1761341779823151400,1.0031513671875,-0.0010333475656807423,0.002188759855926037,-0.003002626821398735
1761341779833217300,1.01321728515625,0.0003355173394083977,-0.001349249854683876,0.0011923848651349545
1761341779843284500,1.023284423828125,-0.0006537726148962975,-0.0009744055569171906,-0.0010489686392247677
1761341779853350400,1.033350341796875,-0.0019107842817902565,-0.0011650873348116875,-0.001803442370146513
1761341779863416300,1.043416259765625,0.0015082811005413532,-0.0013380283489823341,-0.0014375243335962296
1761341779873482500,1.053482421875,0.0011743204668164253,0.00130515918135643,-0.002932090312242508
1761341779883549400,1.063549560546875,0.0003199218772351742,-0.0024205120280385017,0.0002305721864104271
1761341779893615400,1.073615478515625,0.00010154303163290024,0.00047514308243989944,0.00009954441338777542
1761341779903681500,1.083681640625,0.0004059583880007267,0.0006447173655033112,-0.0013580750674009323
1761341779913748500,1.09374853515625,-0.00014105485752224922,-0.0006549060344696045,0.001246496569365263
1761341779923814700,1.103814697265625,-0.0005314336158335209,-0.002245900221168995,-0.001045475248247385
1761341779933880600,1.113880615234375,-0.0007327687926590443,0.0013949070125818253,-0.000043593812733888626
1761341779943946200,1.1239462890625,-0.0008541662245988846,0.0002586338669061661,-0.0025248960591852665
1761341779954013400,1.134013427734375,-0.002036876045167446,0.00028206966817379,-0.0009019654244184494
1761341779964079400,1.144079345703125,-0.00019542640075087547,-0.00038340967148542404,-0.0034699891693890095
1761341779974145500,1.1541455078125,-0.0010777316056191921,0.0002964949235320091,-0.0006438428536057472
1761341779984212500,1.16421240234375,0.0008340021595358849,-0.0008689770475029945,-0.00314830569550395
1761341779994278400,1.1742783203125,0.000053429510444402695,0.0011901790276169777,-0.0014907540753483772
1761341780004344600,1.184344482421875,0.002226673997938633,0.001046041026711464,0.0023514656350016594
1761341780014410500,1.194410400390625,0.00023489585146307945,0.002341936342418194,0.00006540771573781967
1761341780024477400,1.2044775390625,-0.0007545840926468372,0.0008657295256853104,-0.00024540629237890244
1761341780034543600,1.214543701171875,0.0024784933775663376,-0.0018597496673464775,-0.0005181138403713703
1761341780044609500,1.224609619140625,-0.001955455169081688,-0.0017402563244104385,-0.0002367519773542881
1761341780054676500,1.234676513671875,0.00003126310184597969,0.0014739129692316055,-0.0002774982713162899
1761341780064742700,1.24474267578125,0.000161096453666687,-0.0022594034671783447,0.0007329592481255531
1761341780074808300,1.254808349609375,-0.00013105198740959167,-0.00017334986478090286,-0.0035286308266222477
1761341780084874500,1.26487451171875,-0.002526574768126011,-0.0013537704944610596,-0.00018487544730305672
1761341780094941400,1.27494140625,-0.0007750135846436024,-0.0015897266566753387,0.0007847812958061695
1761341780105007400,1.28500732421875,-0.00039063580334186554,-0.0005814135074615479,-0.00001898081973195076
1761341780115073500,1.295073486328125,-0.00035095447674393654,-0.0007151048630475998,-0.0009031500667333603
1761341780125140500,1.305140380859375,0.0008727405220270157,0.001457960344851017,0.0004926170222461224
1761341780135206400,1.315206298828125,0.0015798099339008331,0.0016097603365778923,-0.00007143989205360413
1761341780145272600,1.3252724609375,0.00031307199969887733,0.0002565579488873482,0.0025354339741170406
1761341780155338500,1.33533837890625,-0.00019372720271348953,0.0003260662779211998,0.001357251312583685
1761341780165405400,1.345405517578125,0.0011400766670703888,-0.0011872360482811928,-0.0002523115836083889
1761341780175471600,1.3554716796875,-0.00011587003245949745,-0.0006279721856117249,-0.0013569905422627926
1761341780185537300,1.365537353515625,-0.0008949367329478264,-0.00024966709315776825,0.0021157898008823395
1761341780195603500,1.375603515625,0.0010853898711502552,-0.0011892300099134445,0.002040955238044262
1761341780205670400,1.38567041015625,0.0007425849325954914,0.002642683684825897,0.002449178136885166
1761341780215736300,1.395736328125,-0.000974621158093214,0.002025894820690155,0.00016019120812416077
1761341780225802500,1.405802490234375,0.00037235766649246216,-0.00017279386520385742,0.0009571420960128307
1761341780235869400,1.415869384765625,0.0019345679320394993,-0.00023298151791095734,0.002913766074925661
1761341780245935400,1.425935302734375,0.0009172828868031502,-0.0020315591245889664,-0.00040711555629968643
1761341780256001500,1.43600146484375,-0.00041802600026130676,-0.0009950567036867142,0.000795834232121706
1761341780266067500,1.4460673828125,0.0006807651370763779,-0.0010534953325986862,-0.0018775761127471924
1761341780276134400,1.456134521484375,0.0015928978100419044,-0.000056941062211990356,-0.0003169635310769081
1761341780286200600,1.46620068359375,-0.00009190989658236504,0.001352217048406601,-0.0019892151467502117
1761341780296266500,1.4762666015625,-0.0022006011568009853,0.0011788448318839073,-0.0014752252027392387
1761341780306333400,1.48633349609375,-0.00026731472462415695,-0.001418745145201683,0.0021527032367885113
1761341780316399400,1.4963994140625,-0.0005621262826025486,-0.0010384460911154747,0.0012576146982610226
1761341780326465300,1.50646533203125,-0.0003169155679643154,-0.001018446870148182,-0.00034111086279153824
1761341780336531500,1.516531494140625,-0.0006892252713441849,-0.0005454691126942635,0.00038193725049495697
1761341780346598400,1.526598388671875,-0.00011962605640292168,-0.0034405551850795746,0.0006845146417617798
1761341780356664300,1.536664306640625,0.0019232849590480328,0.0005845464766025543,0.002183075062930584
1761341780366730500,1.54673046875,-0.0009436379186809063,-0.000009559094905853271,-0.0007532401941716671
1761341780376797400,1.55679736328125,0.0005381451919674873,-0.0016878824681043625,0.0025104638189077377
1761341780386863400,1.56686328125,0.00019397679716348648,-0.001040564849972725,-0.0008164546452462673
1761341780396929500,1.576929443359375,-0.0004441165365278721,-0.0005231127142906189,0.001519936602562666
1761341780406995500,1.586995361328125,-0.0012574708089232445,0.000426221638917923,-0.00015982799232006073
1761341780417062400,1.5970625,-0.00038981297984719276,-0.0025911396369338036,0.0011158264242112637
1761341780427128600,1.607128662109375,0.0016653724014759064,-0.0015949783846735954,0.0021156929433345795
1761341780437194200,1.6171943359375,-0.001447330228984356,0.0008447431027889252,0.0038185175508260727
1761341780447261700,1.62726171875,0.00045918626710772514,-0.001874258741736412,-0.00044125039130449295
1761341780457327400,1.637327392578125,0.0019532195292413235,0.0010339133441448212,-0.0005262051708996296
1761341780467393300,1.647393310546875,-0.002452688291668892,0.0016263937577605247,-0.0020497706718742847
1761341780477459500,1.65745947265625,0.0004301839508116245,0.000009855255484580994,0.0009255134500563145
1761341780487526400,1.6675263671875,0.0027267506811767817,0.001705472357571125,-0.001116946805268526
1761341780497592600,1.677592529296875,-0.0010219146497547626,0.001724380999803543,0.0008679069578647614
1761341780507658500,1.687658447265625,-0.0010443627834320068,0.00005203019827604294,0.00141232181340456
1761341780517725400,1.697725341796875,-0.0007066740654408932,0.0016725631430745125,0.0023915665224194527
1761341780527791600,1.70779150390625,-0.0015206667594611645,0.00027032382786273956,-0.000013485085219144821
1761341780537857500,1.717857421875,0.00007616402581334114,0.0006346441805362701,0.0011910628527402878
1761341780547923500,1.72792333984375,-0.0023751710541546345,0.0009858347475528717,-0.0016955784521996975
1761341780557990700,1.73799072265625,0.000620085746049881,-0.00032603833824396133,-0.0011277925223112106
1761341780568056300,1.748056396484375,-0.0011396314948797226,0.001512821763753891,0.0023885294795036316
1761341780578122500,1.75812255859375,-0.0003271009773015976,-0.0009215734899044037,0.0014068884775042534
1761341780588189400,1.768189453125,-0.003345548640936613,-0.00019733048975467682,0.0007465630769729614
1761341780598255400,1.77825537109375,-0.0003665369004011154,0.0008708639070391655,0.0018887929618358612
1761341780608321500,1.788321533203125,-0.001550805289298296,0.0006029335781931877,-0.0037420191802084446
1761341780618387500,1.798387451171875,0.0007983692921698093,0.002512686885893345,-0.0013627512380480766
1761341780628454400,1.808454345703125,-0.0003909752704203129,0.0005632378160953522,0.0023556454107165337
1761341780638520600,1.8185205078125,-0.0010711466893553734,-0.0012021716684103012,0.002999597229063511
1761341780648586500,1.82858642578125,0.004735121037811041,0.002335513010621071,0.0005189706571400166
1761341780658653400,1.8386533203125,-0.00042049260810017586,-0.0015859920531511307,-0.0027322163805365562
1761341780668719600,1.8487197265625,0.0005201166495680809,-0.002346709370613098,0.0005114004015922546
1761341780678785500,1.85878564453125,-0.0004290342330932617,-0.003975498490035534,-0.0021192701533436775
1761341780688851500,1.8688515625,0.000060395337641239166,-0.0011335117742419243,-0.0026418068446218967
1761341780698918400,1.87891845703125,-0.0007673152722418308,0.002333924174308777,-0.0027142451144754887
1761341780708985000,1.888985107421875,0.0008429279550909996,-0.0005436902865767479,-0.0003525172360241413
1761341780719051000,1.899051025390625,0.0019041979685425758,-0.0005687233060598373,0.00008264323696494102
1761341780729117200,1.9091171875,-0.0013817716389894485,-0.0006027268245816231,0.0023865443654358387
1761341780739184000,1.91918408203125,-0.0001330152153968811,-0.0024504279717803,0.0010022339411079884
1761341780749250000,1.92925,-0.000872323289513588,0.0001484118402004242,-0.00023967865854501724
1761341780759316000,1.93931591796875,0.002133320551365614,-0.00008914247155189514,0.00046978751197457314
1761341780769383200,1.949383056640625,0.0005435999482870102,0.0012711109593510628,0.00010754726827144623
1761341780779449000,1.959448974609375,0.0009476011618971825,0.001476440578699112,-0.0006868736818432808
1761341780789515000,1.969514892578125,-0.00007228832691907883,0.0010768147185444832,0.001091920305043459
1761341780799581000,1.979580810546875,0.0014547682367265224,0.0004610922187566757,-0.0019970801658928394
1761341780809648000,1.989648193359375,-0.0014352588914334774,-0.0010259076952934265,-0.0009669661521911621
1761341780819714000,1.999714111328125,0.00019060075283050537,0.0014034276828169823,-0.000463895034044981
1761341780829780200,2.0097802734375,-0.000680278055369854,0.00070906151086092,-0.001543682999908924
1761341780839847200,2.01984716796875,-0.00021395832300186157,-0.0018670139834284782,-0.0005806838162243366
1761341780849913000,2.0299130859375,0.0008629942312836647,-0.00042800232768058777,-0.002345684915781021
1761341780859979300,2.039979248046875,-0.0009969575330615044,0.0005959831178188324,0.0009441175498068333
1761341780870045200,2.050045166015625,0.00020231865346431732,-0.0010208114981651306,-0.0025872220285236835
1761341780880112000,2.060112060546875,-0.0033426154404878616,-0.0023422716185450554,-0.0005664154887199402
1761341780890178000,2.070177978515625,-0.00037063099443912506,-0.0006652679294347763,0.0009569283574819565
1761341780900244000,2.080243896484375,-0.0009458740241825581,0.00023647863417863846,-0.0027150381356477737
1761341780910311000,2.090310791015625,-0.001079554669559002,-0.0007233042269945145,0.00022594258189201355
1761341780920377000,2.100377197265625,-0.0015469389036297798,-0.000527561642229557,-0.000780999194830656
1761341780930443000,2.110443115234375,0.0013517527841031551,0.0019075917080044746,-0.0011581666767597198
1761341780940509200,2.12050927734375,-0.0003726440481841564,-0.002808334305882454,0.0024634660221636295
1761341780950576000,2.130576171875,-0.000049699097871780396,0.0005830796435475349,-0.0010366598144173622
1761341780960642000,2.14064208984375,-0.002625242341309786,-0.0014108289033174515,-0.000593509990721941
1761341780970708200,2.150708251953125,0.000010326504707336426,0.0005665533244609833,0.0013736635446548462
1761341780980775200,2.160775146484375,-0.0013737180270254612,-0.00022094324231147766,-0.000041540246456861496
1761341780990841000,2.170841064453125,-0.0005201585590839386,-0.0007831631228327751,-0.0011211247183382511
1761341781000907300,2.1809072265625,0.0006763995625078678,0.0015537608414888382,-0.0014372416771948338
1761341781010973000,2.190972900390625,-0.0009179217740893364,0.0006609782576560974,0.0010457332246005535
1761341781021039900,2.201039794921875,-0.00037863152101635933,-0.0004242602735757828,0.0004893983714282513
1761341781031106000,2.21110595703125,-0.0012375065125524998,-0.0016959868371486664,-0.00153812812641263
1761341781041172000,2.221171875,0.000051729846745729446,0.0015259049832820892,0.00009172596037387848
1761341781051238100,2.231238037109375,-0.00020606210455298424,0.0005244361236691475,0.00196456303820014
1761341781061305000,2.24130517578125,-0.00021218741312623024,-0.00021192803978919983,0.0012694778852164745
1761341781071371000,2.25137109375,-0.0008781249634921551,-0.0004967218264937401,0.0009302743710577488
1761341781081437200,2.261437255859375,0.0015674559399485588,0.002227691002190113,0.0005782037042081356
1761341781091504000,2.271504150390625,-0.00032317591831088066,-0.0005685258656740189,0.0022726543247699738
1761341781101570000,2.281570068359375,0.0003727083094418049,-0.0003631962463259697,0.0016026031225919724
1761341781111636200,2.29163623046875,-0.0021464903838932514,0.0020584100857377052,0.0011144401505589485
1761341781121702100,2.3017021484375,-0.0002146330662071705,0.001052001491189003,-0.003782314248383045
1761341781131769000,2.31176904296875,-0.0015514371916651726,0.0011020489037036896,0.00024055968970060349
1761341781141835000,2.3218349609375,-0.0009692702442407608,0.0005076313391327858,-0.0022441698238253593
1761341781151901000,2.33190087890625,-0.0007020705379545689,-0.0008598845452070236,0.0003606104291975498
1761341781161967900,2.3419677734375,0.002224477007985115,-0.0006838496774435043,0.0021574446000158787
1761341781172034000,2.352033935546875,0.0009627067483961582,-0.00015233736485242844,0.00037287408486008644
1761341781182100000,2.362099853515625,-0.0002508959732949734,0.0020964359864592552,-0.00043433019891381264
1761341781192166100,2.372166259765625,0.0020109121687710285,-0.001910046674311161,-0.000010393094271421432
1761341781202233000,2.382233154296875,-0.0003534425050020218,-0.0015433290973305702,0.0023819245398044586
1761341781212299000,2.392299072265625,-0.0012666922993957996,0.0007985811680555344,-0.001097585540264845
1761341781222365200,2.402365234375,0.002689433516934514,-0.0023838961496949196,0.000045709311962127686
1761341781232432000,2.41243212890625,-0.0018372731283307076,0.0007415721192955971,-0.0012457086704671383
1761341781242498000,2.422498046875,-0.00007639126852154732,0.0019320044666528702,-0.0009998991154134274
1761341781252564200,2.432564208984375,0.0008962675929069519,-0.000028507784008979797,-0.0027598883025348186
1761341781262630000,2.4426298828125,0.0003971913829445839,0.002537182532250881,-0.0005582533776760101
1761341781272697000,2.452697021484375,0.0008521568961441517,-0.0004967469722032547,-0.0018210439011454582
1761341781282763000,2.462762939453125,-0.0012586642988026142,-0.0022461768239736557,0.0023009967990219593
1761341781292829000,2.472828857421875,-0.0006285593844950199,-0.001306014135479927,-0.0006985398940742016
1761341781302895000,2.48289501953125,0.0006558834575116634,-0.003232278861105442,-0.0006008017808198929
1761341781312962000,2.492962158203125,0.000997005496174097,-0.000013131648302078247,0.00011642882600426674
1761341781323028000,2.503028076171875,0.0007725008763372898,0.002310742624104023,0.0004722266457974911
1761341781333094100,2.51309423828125,0.0014856429770588875,-0.0020777974277734756,-0.00154164619743824
1761341781343161000,2.5231611328125,0.0023426483385264874,-0.0011089397594332695,0.000628830399364233
1761341781353227300,2.533227294921875,0.00238238088786602,-0.0013153394684195518,-0.001551112625747919
1761341781363293200,2.543293212890625,0.0005312175489962101,0.002333989366889,0.00187264708802104
1761341781373358800,2.55335888671875,0.0016215494833886623,0.00039582978934049606,-0.0022652167826890945
1761341781383426300,2.56342626953125,-0.0028842524625360966,-0.0023882389068603516,-0.0004460113123059273
1761341781393492000,2.573491943359375,0.0015238034538924694,0.00044075679033994675,-0.0020214891992509365
1761341781403558000,2.583557861328125,-0.001230703666806221,-0.0004681795835494995,-0.0004520881921052933
1761341781413625000,2.593625,0.0012908275239169598,0.0005716914311051369,-0.00008740462362766266
1761341781423691000,2.60369091796875,0.0023142802529037,0.00008566398173570633,-0.0022464292123913765
1761341781433757200,2.613757080078125,0.0007480625063180923,0.0005042962729930878,-0.0009583714418113232
1761341781443823000,2.623822998046875,-0.0014780741184949875,-0.00024032406508922577,-0.0018811565823853016
1761341781453890000,2.63389013671875,0.0017781141214072704,0.0020532310009002686,0.002470168750733137
1761341781463956200,2.643956298828125,0.0020606755279004574,0.000023369677364826202,-0.0021488177590072155
1761341781474022100,2.654022216796875,-0.0016871471889317036,0.0001692725345492363,0.0021493094973266125
1761341781484089000,2.664089111328125,-0.002547880169004202,-0.0005132956430315971,-0.0005652508698403835
1761341781494155300,2.6741552734375,0.0015231966972351074,-0.0004024337977170944,0.00009933486580848694
1761341781504221000,2.684220947265625,0.0023541031405329704,-0.0004429137334227562,0.0021358542144298553
1761341781514287000,2.694287109375,0.0014022579416632652,-0.00034662894904613495,-0.0027048252522945404
1761341781524354000,2.70435400390625,0.00022301031276583672,-0.00005847495049238205,-0.0010651168413460255
1761341781534420000,2.714419921875,-0.0014443178661167622,-0.0012506423518061638,-0.0008538099937140942
1761341781544486100,2.724486083984375,-0.00016440264880657196,-0.0010327957570552826,-0.0010759178549051285
1761341781554552000,2.734552001953125,0.0007653231732547283,-0.001848958432674408,0.0010087257251143456
1761341781564619000,2.744618896484375,0.0005642548203468323,-0.0023208707571029663,0.0019709262996912003
1761341781574685200,2.754685302734375,-0.0025170082226395607,-0.0016463994979858398,0.0017780549824237823
1761341781584751000,2.764751220703125,0.0012369831092655659,0.0005134241655468941,0.002347971312701702
1761341781594818000,2.774818115234375,0.00024690618738532066,-0.0004960931837558746,-0.0003106887452304363
1761341781604884200,2.78488427734375,-0.0010077087208628654,0.00009246543049812317,-0.0018774266354739666
1761341781614950100,2.7949501953125,-0.0018834508955478668,-0.0005109002813696861,0.0006198976188898087
1761341781625016000,2.80501611328125,0.0004960838705301285,0.0010443851351737976,-0.0013042362406849861
1761341781635083000,2.8150830078125,-0.0013164500705897808,-0.0012823520228266716,0.0005182325839996338
1761341781645149000,2.82514892578125,0.0009267306886613369,0.000664951279759407,-0.0004002912901341915
1761341781655215000,2.835215087890625,-0.0020438716746866703,0.0015717539936304092,-0.0011710845865309238
1761341781665282000,2.845281982421875,0.0004528420977294445,-0.0007406687363982201,-0.0012552402913570404
1761341781675348000,2.855347900390625,0.002559259068220854,0.00018703937530517578,-0.0015058312565088272
1761341781685414100,2.8654140625,-0.0010858094319701195,0.0005873125046491623,-0.002536474261432886
1761341781695480000,2.87547998046875,0.0012223734520375729,-0.00022233743220567703,0.0013379589654505253
1761341781705546200,2.885546142578125,-0.0014019054360687733,0.0012019211426377296,0.0021062814630568027
1761341781715612200,2.895612060546875,0.0014840965159237385,-0.002141975797712803,0.00013469066470861435
1761341781725678000,2.905677978515625,-0.00033377716317772865,0.0013944357633590698,0.00019487831741571426
1761341781735745300,2.915745361328125,0.0009641004726290703,0.0005177976563572884,-0.0010980376973748207
1761341781745811000,2.92581103515625,-0.0017150393687188625,0.00061846524477005,-0.0033364244736731052
1761341781755877000,2.935877197265625,-0.001105121336877346,-0.0008978461846709251,0.0020321388728916645
1761341781765943000,2.945943115234375,0.00028957612812519073,-0.0001276601105928421,-0.0011135870590806007
1761341781776010000,2.956010009765625,0.0011729206889867783,-0.00028981734067201614,-0.0005210209637880325
1761341781786076200,2.966076171875,-0.0006849002093076706,-0.0007793065160512924,0.0009980462491512299
1761341781796142000,2.97614208984375,0.0015259799547493458,-0.0010193130001425743,-0.0026306118816137314
1761341781806208300,2.986208251953125,0.00008041597902774811,0.0016776695847511292,-0.003828501794487238
1761341781816275200,2.996275146484375,-0.0007702941074967384,-0.00015617627650499344,-0.002520908135920763
1761341781826341000,3.006341064453125,-0.0004930589348077774,-0.0006653731688857079,-0.0012681568041443825
1761341781836407300,3.0164072265625,-0.0011198627762496471,0.000019859522581100464,0.0023647802881896496
1761341781846474200,3.02647412109375,-0.0017006979323923588,-0.00045817717909812927,-0.0014227675274014473
1761341781856540000,3.036539794921875,0.00027786847203969955,0.0021672723814845085,0.0010006390511989594
1761341781866606000,3.046606201171875,-0.0007000444456934929,-0.00002024788409471512,-0.004974695388227701
1761341781876672000,3.056672119140625,0.0001536170020699501,0.0022079646587371826,-0.002667347900569439
1761341781886739000,3.066739013671875,0.0013139564543962479,0.0007751844823360443,0.0031117117032408714
1761341781896805000,3.07680517578125,0.001195563469082117,-0.001857830211520195,0.0005376767367124557
1761341781906871000,3.08687109375,0.001526328269392252,0.000014904886484146118,0.002175787463784218
1761341781916938000,3.09693798828125,0.00033505726605653763,0.00001177377998828888,-0.0019227447919547558
1761341781927004200,3.107004150390625,-0.0006969175301492214,0.0016211215406656265,-0.003448469564318657
1761341781937070000,3.117070068359375,0.0012800195254385471,-0.0023559685796499252,0.002693360671401024
1761341781947136300,3.12713623046875,-0.0004329257644712925,0.0017943019047379494,-0.0013075065799057484
1761341781957203200,3.137203125,0.00026248861104249954,0.0032504992559552193,0.00165872136130929
1761341781967269000,3.14726904296875,0.0008550416678190231,-0.0005948394536972046,0.0022944179363548756
1761341781977335000,3.1573349609375,0.000006981659680604935,-0.0016597071662545204,-0.00007297657430171967
1761341781987401000,3.16740087890625,-0.00044921785593032837,0.0032128123566508293,-0.0007864371873438358
1761341781997468000,3.177468017578125,0.0003132247366011143,-0.0019878651946783066,-0.0017224755138158798
1761341782007534000,3.1875341796875,-0.000942455604672432,-0.0007233964279294014,-0.0016431133262813091
1761341782017600000,3.19760009765625,0.0003832671791315079,0.0009122034534811974,0.0004352657124400139
1761341782027667000,3.2076669921875,0.0005566389299929142,-0.00013282056897878647,-0.0013660965487360954
1761341782037733000,3.217733154296875,0.0004118662327528,-0.001075824722647667,0.0007371404208242893
1761341782047799000,3.227799072265625,0.00041266530752182007,-0.0014915438368916512,0.0018215798772871494
1761341782057865200,3.237865234375,-0.0008555534295737743,0.0002475054934620857,0.0010663848370313644
1761341782067932200,3.24793212890625,0.0015506125055253506,0.0010331375524401665,0.0013121943920850754
1761341782077998000,3.257998046875,-0.00019745249301195145,0.0003059776499867439,0.0024720756337046623
1761341782088064300,3.268064208984375,0.0026452054735273123,0.0012226374819874763,0.0019897762686014175
1761341782098131200,3.278131103515625,0.0010294560343027115,-0.00025236327201128006,0.0007835635915398598
1761341782108196900,3.28819677734375,0.0012979027815163136,0.0027263816446065903,-0.0014974339865148067
1761341782118263000,3.298262939453125,0.0007741204462945461,-0.00013364385813474655,-0.0007705390453338623
1761341782128329000,3.308328857421875,0.0007171286270022392,-0.0034905588254332542,0.0016689170151948929
1761341782138396000,3.31839599609375,-0.0007164962589740753,-0.0003291955217719078,-0.0006179125048220158
1761341782148462000,3.328462158203125,0.0009802039712667465,0.0004910575225949287,-0.00018488243222236633
1761341782158528000,3.338528076171875,-0.0002514747902750969,-0.0005232328549027443,0.001361642498522997
1761341782168594200,3.34859423828125,0.002203693613409996,-0.0003320183604955673,0.00007720012217760086
1761341782178661000,3.3586611328125,0.0006945119239389896,-0.0015425104647874832,0.00045206211507320404
1761341782188727000,3.36872705078125,0.0026926815044134855,0.0007422156631946564,0.0013878969475626945
1761341782198793200,3.378793212890625,-0.002539565786719322,-0.003595711663365364,-0.0015116343274712563
1761341782208860200,3.388860107421875,0.0015848716720938683,-0.0035131536424160004,0.0017078611999750137
1761341782218926000,3.398926025390625,0.0012533576227724552,0.0004240982234477997,-0.0014351787976920605
1761341782228992000,3.408991943359375,0.0006309770978987217,0.0002949349582195282,-0.002628807444125414
1761341782239058000,3.419057861328125,-0.0005257218144834042,0.0007443856447935104,-0.0028619407676160336
1761341782249125000,3.429125,-0.0006591458804905415,0.0030554765835404396,-0.003499501384794712
1761341782259191000,3.43919091796875,0.0025531041901558638,-0.00027701910585165024,0.0005731028504669666
1761341782269257000,3.449257080078125,-0.00014281366020441055,-0.00025890953838825226,-0.0014391811564564705
1761341782279324200,3.45932421875,0.002917896956205368,-0.0016298629343509674,-0.0004686610773205757
1761341782289390000,3.46939013671875,-0.0014757863245904446,-0.0008596768602728844,-0.000385836698114872
1761341782299456000,3.4794560546875,0.00041995150968432426,-0.0011544134467840195,0.003801376558840275
1761341782309522200,3.489522216796875,0.0005230158567428589,-0.0019597532227635384,-0.0002828473225235939
1761341782319589000,3.499589111328125,0.000023962464183568954,-0.0005036480724811554,0.0032835667952895164
1761341782329655300,3.5096552734375,0.0008404874242842197,-0.0028448328375816345,-0.0024683279916644096
1761341782339721000,3.519720947265625,-0.0014484585262835026,-0.000027099624276161194,0.0027722413651645184
1761341782349787000,3.529786865234375,0.0003861929289996624,0.0006016725674271584,-0.00123555026948452
1761341782359854000,3.53985400390625,0.0007068379782140255,0.00026462040841579437,-0.003756067017093301
1761341782369920000,3.549919921875,-0.0011629676446318626,-0.0014901366084814072,0.0003878115676343441
1761341782379986000,3.55998583984375,-0.0001524006947875023,-0.003637588582932949,-0.00024441443383693695
1761341782390053000,3.57005322265625,0.00008941395208239555,-0.0003877328708767891,-0.0025658919475972652
1761341782400119000,3.580119140625,0.0023999533150345087,-0.00003238208591938019,0.0032687620259821415
1761341782410185200,3.590185302734375,0.0006499900482594967,-0.002060646191239357,-0.0012045493349432945
1761341782420251100,3.600251220703125,-0.000476085115224123,-0.000052714720368385315,-0.001765380147844553
1761341782430318000,3.610318115234375,-0.0004433281719684601,-0.0017717843875288963,0.001615502405911684
1761341782440384300,3.62038427734375,0.0013216198422014713,-0.0026899585500359535,0.0011909580789506435
1761341782450450200,3.6304501953125,0.00014610076323151588,0.00042753759771585464,-0.0012042885646224022
1761341782460517000,3.64051708984375,0.002058638259768486,-0.0000031106173992156982,0.000067099928855896
1761341782470583000,3.6505830078125,-0.0020820442587137222,0.00013910233974456787,0.000994679518043995
1761341782480649000,3.66064892578125,-0.003459375351667404,0.00132066011428833,-0.000759592279791832
1761341782490715100,3.670715087890625,0.0015116813592612743,-0.0016000289469957352,0.001120066735893488
1761341782500782000,3.680781982421875,-0.0015267650596797466,-0.002277386374771595,0.0008066860027611256
1761341782510848000,3.690847900390625,-0.0020961486734449863,-0.002017994411289692,0.00021120300516486168
1761341782520914200,3.7009140625,-0.0009126719087362289,-0.000141107477247715,-0.00267209205776453
1761341782530981000,3.710981201171875,0.00010279146954417229,-0.0009184842929244041,-0.0033519971184432507
1761341782541047000,3.721047119140625,0.0003858208656311035,-0.0007751453667879105,0.000856760423630476
1761341782551113200,3.73111328125,-0.00009674392640590668,0.0009947922080755234,-0.00004498567432165146
1761341782561179100,3.74117919921875,0.001561975572258234,-0.0008889529854059219,-0.001379611436277628
1761341782571246000,3.75124609375,-0.00030303606763482094,0.0001520765945315361,0.0008992557413876057
1761341782581312300,3.761312255859375,0.0012686634436249733,0.0001037493348121643,0.0004895762540400028
1761341782591378000,3.7713779296875,0.00048409635201096535,-0.0025953641161322594,-0.0013935449533164501
1761341782601444000,3.781444091796875,-0.00199840497225523,0.0009093526750802994,-0.0009614271111786366
1761341782611511000,3.791510986328125,0.003378251101821661,0.0012827273458242416,0.002392292022705078
1761341782621577000,3.801576904296875,0.001518160104751587,-0.00011935830116271973,0.00007182033732533455
1761341782631643100,3.81164306640625,-0.0012589842081069946,0.001667889766395092,0.0009898114949464798
1761341782641710000,3.8217099609375,-0.0005680243484675884,0.0014493223279714584,0.0008723493665456772
1761341782651776000,3.83177587890625,0.00005728611722588539,-0.0006093010306358337,-0.0010624369606375694
1761341782661842200,3.84184228515625,0.0010970956645905972,0.0005110176280140877,-0.0017441865056753159
1761341782671908000,3.851908203125,0.00034661684185266495,-0.0011449363082647324,0.002316867932677269
1761341782681975000,3.86197509765625,-0.00018292292952537537,0.0005816537886857986,-0.002789505757391453
1761341782692041200,3.872041259765625,0.001070094294846058,-0.00003912951797246933,0.00230964832007885
1761341782702107100,3.882107177734375,0.0009867334738373756,-0.0023968787863850594,0.000007014721632003784
1761341782712173600,3.892173583984375,0.0003153509460389614,0.0029171938076615334,0.0020296857692301273
1761341782722240500,3.902240478515625,0.0006653573364019394,0.00028857775032520294,-0.003050863742828369
1761341782732306400,3.912306396484375,-0.0003975103609263897,-0.0001314021646976471,-0.0017331317067146301
1761341782742372600,3.92237255859375,0.0020499899983406067,0.0012310193851590157,-0.0017714127898216248
1761341782752439600,3.932439453125,-0.003998581785708666,0.000009959563612937927,-0.0012390469200909138
1761341782762505500,3.94250537109375,-0.0004162662662565708,0.0012991968542337418,0.0008885920979082584
1761341782772571600,3.952571533203125,0.0011523356661200523,0.00034392159432172775,-0.0017007989808917046
1761341782782637600,3.962637451171875,-0.0013593840412795544,-0.0005525648593902588,0.00033126864582300186
1761341782792704500,3.97270458984375,-0.0015292936004698277,0.00082375667989254,-0.0010844673961400986
1761341782802770700,3.982770751953125,-0.00006887596100568771,0.0003374135121703148,0.0025877635926008224
1761341782812836600,3.992836669921875,0.00031781522557139397,0.0010253079235553741,-0.0001457049511373043
1761341782822902500,4.002902587890625,-0.000023970380425453186,-0.00019295886158943176,-0.00044951029121875763
1761341782832968400,4.012968505859375,0.00010439381003379822,-0.0010105492547154427,-0.0019400818273425102
1761341782843034600,4.02303466796875,-0.00048647262156009674,-0.002099961042404175,-0.0004335083067417145
1761341782853100500,4.0331005859375,-0.0004451936110854149,-0.0008639879524707794,0.00020644906908273697
1761341782863167500,4.04316748046875,-0.0005411030724644661,-0.0005264487117528915,0.0008238311856985092
1761341782873233700,4.053233642578125,0.0011183125898241997,-0.0014391141012310982,-0.0032723769545555115
1761341782883299600,4.063299560546875,0.0017881179228425026,0.0005774451419711113,0.001399461179971695
1761341782893366500,4.073366455078125,0.0014925068244338036,0.0031362101435661316,0.0010809479281306267
1761341782903432700,4.0834326171875,-0.0012280791997909546,0.000363384373486042,0.0012934617698192596
1761341782913498600,4.09349853515625,-0.00012872647494077682,0.0001013297587633133,0.00047480594366788864
1761341782923564500,4.103564453125,0.00007775984704494476,-0.001598934642970562,0.0021928511559963226
1761341782933631500,4.113631591796875,-0.000003732740879058838,0.001501518301665783,0.0025089681148529053
1761341782943697400,4.123697509765625,0.0025773842353373766,-0.000717703253030777,-0.0025597666390240192
1761341782953763600,4.133763671875,0.0007906695827841759,0.0009853886440396309,-0.00002443743869662285
1761341782963830500,4.14383056640625,-0.0012045581825077534,0.001158837229013443,0.000161751639097929
1761341782973896400,4.153896484375,-0.0026077772490680218,-0.002643624320626259,0.0025996090844273567
1761341782983962600,4.163962646484375,0.001508709043264389,-0.00005591288208961487,0.0012249224819242954
1761341782994028500,4.174028564453125,0.00022213580086827278,-0.0007683085277676582,0.0007146601565182209
1761341783004095500,4.184095458984375,0.002469790866598487,-0.0004057129845023155,-0.0010692398063838482
1761341783014161700,4.19416162109375,0.000982415396720171,0.000011604279279708862,-0.002618134021759033
1761341783024227600,4.2042275390625,-0.00044925278052687645,0.00023732520639896393,0.0011224779300391674
1761341783034293800,4.214293701171875,-0.0013486025854945183,0.0005004452541470528,-0.0005097738467156887
1761341783044360700,4.224360595703125,-0.00032619526609778404,-0.0021668896079063416,-0.0003914269618690014
1761341783054426400,4.23442626953125,0.0016733058728277683,0.001417458988726139,0.00023441622033715248
1761341783064492500,4.244492431640625,-0.0003204513341188431,-0.0006203632801771164,0.001396253239363432
1761341783074559500,4.2545595703125,-0.0015369830653071404,0.001386062242090702,-0.00022800825536251068
1761341783084625400,4.26462548828125,-0.0009194836020469666,0.0002898387610912323,0.0022710138000547886
1761341783094691600,4.274691650390625,0.0004698876291513443,0.0005822544917464256,-0.001276316586881876
1761341783104757500,4.284757568359375,0.0012355665676295757,-0.0013742046430706978,-0.002407179679721594
1761341783114824400,4.294824462890625,0.001189227681607008,0.0008170446380972862,0.0007784934714436531
1761341783124890600,4.304890625,-0.0016130590811371803,0.00033270474523305893,0.00048468075692653656
1761341783134956500,4.31495654296875,-0.0007826848886907101,0.00040913745760917664,0.0008761659264564514
1761341783145022700,4.325022705078125,0.0015399158000946045,0.000657333992421627,-0.0008555329404771328
1761341783155089700,4.335089599609375,-0.00043162237852811813,-0.0001535983756184578,-0.0010028057731688023
1761341783165155600,4.345155517578125,0.0010180603712797165,-0.002110403962433338,0.0020475168712437153
1761341783175221500,4.355221435546875,0.0003328290767967701,-0.0009332867339253426,-0.0011306996457278728
1761341783185288400,4.365288330078125,-0.00033651571720838547,-0.0007067276164889336,0.0016460767947137356
1761341783195354400,4.375354248046875,-0.00011760415509343147,-0.0007330933585762978,-0.00160670792683959
1761341783205420500,4.385420654296875,0.0012974063865840435,0.0014360053464770317,-0.0002522347494959831
1761341783215487500,4.395487548828125,0.0011245673522353172,-0.0008886680006980896,-0.0009089699015021324
1761341783225553400,4.405553466796875,0.0016287881880998611,0.002386113628745079,-0.0012052645906805992
1761341783235620600,4.41562060546875,-0.001272992230951786,-0.00014788378030061722,-0.0009575905278325081
1761341783245686500,4.4256865234375,-0.0006302269175648689,-0.0016018589958548546,0.0008113635703921318
1761341783255752400,4.43575244140625,0.001573006622493267,0.0008975174278020859,-0.00043765921145677567
1761341783265818600,4.445818603515625,0.0023844270035624504,-0.001404082402586937,-0.0005476810038089752
1761341783275885600,4.455885498046875,-0.0002766032703220844,0.002559499815106392,-0.00007363827899098396
1761341783285951500,4.465951416015625,0.0013286531902849674,0.0034865420311689377,0.0022246846929192543
1761341783296017700,4.476017578125,-0.0010977527126669884,-0.00004853866994380951,0.0013895174488425255
1761341783306083300,4.486083251953125,0.0004916875623166561,0.0003508683294057846,0.0020523029379546642
1761341783316150500,4.496150634765625,0.00040939589962363243,-0.001699499785900116,0.0011825147084891796
1761341783326216400,4.506216552734375,-0.0008323430083692074,0.0013799937441945076,0.001254446804523468
1761341783336282400,4.516282470703125,0.00022386666387319565,-0.00024586543440818787,-0.001140800304710865
1761341783346349600,4.526349609375,-0.002341887913644314,-0.0005589807406067848,0.001832817681133747
1761341783356415500,4.53641552734375,0.001229411456733942,-0.00021596625447273254,0.0014210930094122887
1761341783366481700,4.546481689453125,0.0012932782992720604,0.00030111055821180344,0.00045671314001083374
1761341783376547600,4.556547607421875,0.0006890068762004375,0.0019354922696948051,0.0005059819668531418
1761341783386614500,4.566614501953125,0.00004969211295247078,-0.0036002350971102715,0.003208912443369627
1761341783396680700,4.5766806640625,0.0021716984920203686,-0.0003668917343020439,-0.0007493435405194759
1761341783406746600,4.58674658203125,0.0008712220005691051,0.00029681064188480377,0.0016433889977633953
1761341783416813600,4.5968134765625,0.0007580374367535114,0.0034835487604141235,0.00022632116451859474
1761341783426879700,4.606879638671875,-0.000380505807697773,0.0010638721287250519,-0.001676679588854313
1761341783436945400,4.6169453125,0.0014078067615628242,-0.0023977048695087433,-0.00042499369010329247
1761341783447011600,4.627011474609375,0.00041006971150636673,-0.0010647494345903397,-0.001221763901412487
1761341783457078500,4.63707861328125,-0.0025596213527023792,0.00010943878442049026,0.0003545614890754223
1761341783467144400,4.64714453125,-0.0006706872954964638,-0.002054736949503422,-0.002507935743778944
1761341783477210600,4.657210693359375,0.0023589248303323984,-0.0008840113878250122,0.0014814799651503563
1761341783487276500,4.667276611328125,0.00048604002222418785,-0.00354851596057415,0.00021763239055871964
1761341783497343500,4.677343505859375,0.0004314449615776539,-0.0002517886459827423,-0.001129393931478262
1761341783507409700,4.68740966796875,-0.001289652194827795,0.0004899632185697556,-0.0018563694320619106
1761341783517475600,4.6974755859375,0.00128269474953413,-0.00045625772327184677,-0.0004582097753882408
1761341783527542500,4.70754248046875,-0.001152146141976118,-0.0005470672622323036,-0.001386331394314766
1761341783537608700,4.717608642578125,0.0005283085629343987,-0.00020644906908273697,-0.00022572558373212814
1761341783547674600,4.727674560546875,0.002112059388309717,0.0005592247471213341,0.0010655722580850124
1761341783557740500,4.737740478515625,0.001334948930889368,-0.00022640731185674667,-0.0004308577626943588
1761341783567807500,4.747807373046875,0.00210346607491374,-0.0015315832570195198,0.0027176057919859886
1761341783577873400,4.757873291015625,-0.0014148359186947346,-0.0012996215373277664,-0.002457182388752699
1761341783587939600,4.767939697265625,0.001274272333830595,0.0025079604238271713,-0.0021292786113917828
1761341783598006500,4.778006591796875,-0.001367050688713789,0.00011005066335201263,0.0021083434112370014
1761341783608072400,4.788072509765625,-0.0007263673469424248,0.0011208998039364815,-0.0008076983503997326
1761341783618138600,4.798138671875,0.0008052163757383823,-0.00031827203929424286,-0.00042260531336069107
1761341783628204500,4.80820458984375,0.0035280126612633467,-0.0010524280369281769,-0.0016118008643388748
1761341783638271500,4.818271484375,-0.00004594959318637848,-0.00015281233936548233,-0.001062923576682806
1761341783648337700,4.828337646484375,-0.0017548049800097942,-0.0014116289094090462,0.0023644892498850822
1761341783658403600,4.838403564453125,0.0004399055615067482,-0.0006417091935873032,0.0033698324114084244
1761341783668469500,4.848469482421875,0.00022876868024468422,0.0003273971378803253,0.0008752956055104733
1761341783678536700,4.85853662109375,-0.00008069071918725967,0.00031780917197465897,-0.0009396481327712536
1761341783688602400,4.868602294921875,-0.001026310957968235,-0.0014114240184426308,0.0008348268456757069
1761341783698668500,4.87866845703125,0.00009168405085802078,0.0004466641694307327,-0.002271750010550022
1761341783708736000,4.888736083984375,-0.00171004980802536,-0.001407107338309288,-0.001610716339200735
1761341783718802000,4.898802001953125,-0.000004028435796499252,-0.00011920277029275894,0.0013544471003115177
1761341783728868000,4.9088681640625,-0.00010489346459507942,-0.003381689079105854,0.0006622178480029106
1761341783738934000,4.91893408203125,-0.0004018358886241913,0.0003584539517760277,-0.00016948720440268517
1761341783749001000,4.9290009765625,-0.0025978311896324158,-0.0014149481430649757,-0.000035594217479228973
1761341783759067100,4.939067138671875,-0.002300622873008251,0.0014317044988274574,-0.00159061374142766
1761341783769133000,4.949133056640625,-0.0007555545307695866,0.0006189094856381416,-0.00010501174256205559
1761341783779199200,4.95919921875,0.0013510058633983135,-0.0009941672906279564,-0.0011465740390121937
1761341783789266200,4.96926611328125,0.0002932031638920307,0.00017514917999505997,-0.001823892816901207
1761341783799332000,4.97933203125,0.0007712403312325478,-0.0022408701479434967,-0.0018859445117413998
1761341783809398000,4.98939794921875,-0.0027620731852948666,-0.0006754100322723389,-0.005331480875611305
1761341783819465000,4.99946484375,0.000399099662899971,0.0010244855657219887,0.0007099006325006485
1761341783829531000,5.00953076171875,0.0008488800376653671,-0.0006306786090135574,-0.0009469101205468178
1761341783839597000,5.01959716796875,-0.0007921596989035606,-0.0016932794824242592,0.0003367336466908455
1761341783849663000,5.0296630859375,-0.0007625957950949669,-0.0015405016019940376,-0.00016044406220316887
1761341783859730000,5.03972998046875,0.0009543439373373985,-0.000868053175508976,-0.0002054516226053238
1761341783869796000,5.049796142578125,-0.00005582999438047409,0.000014006160199642181,-0.0014919349923729897
1761341783879862000,5.059862060546875,-0.00012214295566082,-0.0013527283445000648,0.0022141197696328163
1761341783889928200,5.06992822265625,0.0013539893552660942,0.0007423907518386841,-0.002154212910681963
1761341783899995100,5.0799951171875,0.001433351542800665,0.0008971197530627251,0.0004450324922800064
1761341783910061000,5.09006103515625,-0.001383589580655098,-0.0006898026913404465,0.0012366194278001785
1761341783920127200,5.100127197265625,-0.00018996093422174454,0.0002223299816250801,0.0013362215831875801
1761341783930194200,5.110194091796875,-0.0005363533273339272,-0.0008669421076774597,0.0013765357434749603
1761341783940259800,5.120259765625,0.0016698092222213745,-0.0022864071652293205,-0.0013289698399603367
1761341783950326000,5.130325927734375,0.0007982361130416393,-0.00048633012920618057,0.0011030342429876328
1761341783960392000,5.140391845703125,0.00224672956392169,-0.0009577088057994843,-0.0002557104453444481
1761341783970459000,5.150458984375,0.002004755660891533,0.0005974434316158295,0.0002824808470904827
1761341783980525000,5.160525146484375,-0.002823821734637022,0.0000357823446393013,-0.0007281890138983727
1761341783990591000,5.170591064453125,-0.0016019991599023342,-0.001164216548204422,-0.0017682425677776337
1761341784000658000,5.180657958984375,-0.00278177997097373,0.0013852277770638466,-0.001452125608921051
1761341784010724000,5.19072412109375,-0.00036467332392930984,-0.0011491235345602036,0.002882939763367176
1761341784020790000,5.2007900390625,-0.00039956066757440567,0.0014346754178404808,-0.002459361217916012
1761341784030856200,5.210856201171875,0.0010384451597929,-0.0006805676966905594,-0.0011545531451702118
1761341784040923100,5.220923095703125,-0.00043747900053858757,-0.00041345320641994476,0.00036078551784157753
1761341784050989000,5.230989013671875,-0.0023000952787697315,0.0017052125185728073,0.0007384521886706352
1761341784061055000,5.241054931640625,-0.002146697137504816,-0.0005867034196853638,-0.0006253523752093315
1761341784071121000,5.251120849609375,-0.00236301077529788,-0.001318804919719696,-0.0005632699467241764
1761341784081187800,5.261187744140625,0.0002974872477352619,-0.0014157434925436974,0.000170963816344738
1761341784091254000,5.27125390625,-0.0017259768210351467,-0.0011400142684578896,0.002404500264674425
1761341784101320000,5.28131982421875,-0.0005563162267208099,0.0006179390475153923,-0.000980110839009285
1761341784111386000,5.29138623046875,-0.0016955789178609848,-0.0006649410352110863,0.0022593075409531593
1761341784121453000,5.301453125,0.00020432006567716599,0.0001574428752064705,-0.000856857281178236
1761341784131519000,5.31151904296875,0.0009038476273417473,-0.0008249133825302124,0.001905687153339386
1761341784141585200,5.321585205078125,-0.001216028816998005,0.0003775032237172127,-0.0010384377092123032
1761341784151652000,5.331652099609375,-0.00007796473801136017,0.0013447953388094902,-0.0002624094486236572
1761341784161718000,5.341718017578125,-0.0004742429591715336,-0.0022046659141778946,0.0005296142771840096
1761341784171784000,5.351783935546875,-0.0011389506980776787,0.001453137956559658,0.0018567549996078014
1761341784181849900,5.361849853515625,-0.0027176723815500736,0.0012965435162186623,-0.00012676743790507317
1761341784191917000,5.3719169921875,0.0007504853419959545,-0.0020144814625382423,-0.0009927921928465366
1761341784201983000,5.38198291015625,-0.0001619136892259121,-0.00037716981023550034,-0.0020756334997713566
1761341784212049000,5.392048828125,0.00041385041549801826,0.0005522407591342926,-0.0011102189309895039
1761341784222115000,5.402114990234375,-0.0025334698148071766,0.00023718923330307007,-0.000044421758502721786
1761341784232182000,5.41218212890625,0.004612268880009651,-0.0019172802567481995,0.000038461294025182724
1761341784242248000,5.422248046875,-0.00017609493806958199,-0.0010637370869517326,0.0019673886708915234
1761341784252314000,5.432314208984375,-0.0000863242894411087,-0.0018309149891138077,-0.0008628964424133301
1761341784262381000,5.442381103515625,-0.0005156258121132851,0.0016690120100975037,0.001806123647838831
1761341784272447200,5.452447265625,-0.0006792051717638969,-0.0006191395223140717,0.000669731292873621
1761341784282513200,5.46251318359375,0.000011618714779615402,0.0009486638009548187,-0.00202884990721941
1761341784292578800,5.472578857421875,0.0005296384915709496,-0.002362237311899662,-0.0017491532489657402
1761341784302646000,5.48264599609375,0.0003101942129433155,-0.0007824497297406197,0.0004626018926501274
1761341784312712000,5.4927119140625,0.0015590647235512733,0.00034492742270231247,-0.0005433708429336548
1761341784322778000,5.502778076171875,-0.0027477992698550224,0.0016866279765963554,-0.000783055555075407
1761341784332845000,5.512844970703125,0.001404289621859789,0.001878460869193077,-0.0007577347569167614
1761341784342911000,5.522910888671875,-0.0006527360528707504,0.0002872226759791374,-0.00009141163900494576
1761341784352977200,5.53297705078125,-0.0013346020132303238,0.0006952658295631409,-0.00030637579038739204
1761341784363043000,5.54304296875,-0.0016491212882101536,0.00138102937489748,0.0007285289466381073
1761341784373110000,5.553110107421875,0.0013106446713209152,0.0016368376091122627,0.0008307648822665215
1761341784383176200,5.56317626953125,0.00012393994256854057,0.00132072065025568,0.00041611120104789734
1761341784393242000,5.5732421875,-0.000035365112125873566,-0.002306140959262848,0.000985667109489441
1761341784403308000,5.58330810546875,0.0015417588874697685,0.00007978454232215881,-0.0006556394509971142
1761341784413375200,5.593375244140625,-0.0027268296107649803,-0.00024033896625041962,-0.0000070570968091487885
1761341784423441000,5.60344091796875,0.000656716525554657,-0.0018595410510897636,0.0008909613825380802
1761341784433507000,5.613507080078125,0.00029395800083875656,0.0003174617886543274,0.000367823988199234
1761341784443574000,5.623573974609375,0.0018947841599583626,0.0000700540840625763,0.0000048354268074035645
1761341784453640000,5.633639892578125,0.00035095401108264923,-0.00007408298552036285,-0.0019408795051276684
1761341784463706000,5.6437060546875,0.0003456277772784233,-0.0013904832303524017,-0.0009493846446275711
1761341784473772000,5.65377197265625,0.00005403673276305199,0.00047651398926973343,0.001637883484363556
1761341784483839000,5.6638388671875,0.0002577686682343483,-0.0004047257825732231,-0.00030249590054154396
1761341784493905200,5.6739052734375,0.00140102906152606,-0.0010321643203496933,0.001425230409950018
1761341784503971000,5.68397119140625,-0.00012576114386320114,-0.0019195303320884705,0.0018236399628221989
1761341784514037200,5.694037353515625,0.00011300574988126755,0.0010471241548657417,-0.0003314455971121788
1761341784524104200,5.704104248046875,-0.0007796860300004482,-0.0017481297254562378,-0.0018102987669408321
1761341784534170000,5.714170166015625,0.00019912747666239738,-0.0007502827793359756,0.0005834577605128288
1761341784544236000,5.724236083984375,0.0012452169321477413,0.00262580718845129,-0.0022461512126028538
1761341784554303000,5.734302978515625,-0.0003332989290356636,0.0007460974156856537,-0.0005836533382534981
1761341784564369000,5.744368896484375,0.000587888527661562,-0.00023980438709259033,-0.002514977939426899
1761341784574435000,5.75443505859375,0.0009572524577379227,-0.0007148822769522667,0.0033860383555293083
1761341784584501000,5.7645009765625,-0.0027677114121615887,-0.0003026248887181282,-0.002659869845956564
1761341784594568000,5.77456787109375,0.0006162249483168125,-0.0001768358051776886,-0.000318202655762434
1761341784604634000,5.784634033203125,0.000797320157289505,0.00011850893497467041,0.0025638705119490623
1761341784614700000,5.794699951171875,0.0005028517916798592,0.001439531333744526,-0.00031341100111603737
1761341784624766200,5.80476611328125,0.0008786236867308617,0.0019133081659674644,0.0013734353706240654
1761341784634833200,5.814833251953125,0.00007371045649051666,0.0006311768665909767,-0.0003965008072555065
1761341784644899000,5.824899169921875,-0.002153491135686636,0.000734240747988224,0.000051975250244140625
1761341784654965000,5.834965087890625,-0.0004985765554010868,-0.0018267389386892319,-0.0017703408375382423
1761341784665032200,5.8450322265625,0.002344614127650857,-0.0008674683049321175,0.0014070761390030384
1761341784675097900,5.855097900390625,-0.00019008107483386993,0.001959647983312607,-0.0023735305294394493
1761341784685164000,5.8651640625,-0.00010539265349507332,-0.0008270842954516411,0.0003567417152225971
1761341784695230000,5.87522998046875,-0.0014761043712496758,0.0017667841166257858,-0.000994078814983368
1761341784705297000,5.885296875,0.0014677541330456734,0.000029338523745536804,-0.00020098965615034103
1761341784715362800,5.89536279296875,0.0018660449422895908,0.00043517351150512695,0.0014028926379978657
1761341784725428700,5.9054287109375,0.001012501772493124,0.0006122738122940063,0.00019301893189549446
1761341784735495000,5.915494873046875,0.0013660243712365627,0.001465972512960434,0.0005201068706810474
1761341784745561900,5.925561767578125,-0.0007535857148468494,0.00024065189063549042,0.0008463435806334019
1761341784755627800,5.935627685546875,-0.0022106957621872425,-0.005127980373799801,0.001464704517275095
1761341784765694000,5.94569384765625,-0.0003909575752913952,0.00007317401468753815,-0.002063984051346779
1761341784775760000,5.955759765625,0.001717837993055582,-0.00169379822909832,0.0007067234255373478
1761341784785826800,5.965826904296875,0.0006842655129730701,-0.0007473109290003777,-0.0034137191250920296
1761341784795892700,5.975892822265625,0.0006584250368177891,-0.0019330661743879318,-0.0014512515626847744
1761341784805958700,5.985958740234375,-0.0002302718348801136,-0.0006286492571234703,0.004739532247185707
1761341784816025900,5.99602587890625,-0.0017668702639639378,-0.000535476952791214,-0.0014352998696267605
1761341784826091800,6.006091796875,-0.0010859002359211445,0.002509048208594322,-0.0005343523807823658
1761341784836157700,6.01615771484375,-0.00017937319353222847,-0.0006767157465219498,-0.000132677610963583
1761341784846224000,6.026223876953125,0.0016595395281910896,0.0008740425109863281,-0.0005438695661723614
1761341784856290800,6.036290771484375,-0.0004197615198791027,-0.0017055561766028404,-0.0008992222137749195
1761341784866356700,6.046356689453125,0.0003032865934073925,-0.0005686525255441666,0.00035885535180568695
1761341784876423000,6.0564228515625,-0.0015485319308936596,-0.0010506175458431244,-0.0011657951399683952
1761341784886488800,6.06648876953125,-0.00024198507890105247,-0.00270736962556839,-0.00036764563992619514
1761341784896555800,6.0765556640625,0.001864866353571415,0.0016412101686000824,-0.0009799455292522907
1761341784906622000,6.0866220703125,-0.0009165392257273197,-0.0008405894041061401,-0.0016007283702492714
1761341784916687600,6.0966875,-0.000031787436455488205,0.000551893375813961,-0.0010585961863398552
1761341784926754800,6.1067548828125,-0.0020893453620374203,0.00038411375135183334,0.00016379496082663536
1761341784936820700,6.11682080078125,0.00040896888822317123,-0.002672918140888214,0.00400716345757246
1761341784946886700,6.12688671875,-0.0017697629518806934,0.0005825301632285118,0.0007434599101543427
1761341784956952800,6.136952880859375,0.00028126826509833336,0.00016784854233264923,0.0010627489537000656
1761341784967019800,6.147019775390625,-0.0016647037118673325,-0.0036332812160253525,0.001005491241812706
1761341784977086000,6.1570859375,0.0009967111982405186,-0.0005832388997077942,0.0011932025663554668
1761341784987152000,6.16715185546875,-0.0005268831737339497,0.001332906074821949,0.0004863995127379894
1761341784997217800,6.1772177734375,0.00007577706128358841,0.0008988771587610245,-0.0018399255350232124
1761341785007285000,6.187284912109375,-0.001169783528894186,0.0009191175922751427,-0.00016852561384439468
1761341785017351000,6.197350830078125,-0.000028930604457855225,-0.0001694709062576294,0.0005599143914878368
1761341785027416800,6.207416748046875,0.00021421583369374275,0.00029658153653144836,-0.0013234736397862434
1761341785037484000,6.217484130859375,-0.00010388530790805817,-0.0004591941833496094,-0.0014138869009912014
1761341785047549700,6.2275498046875,0.0020399591885507107,-0.0009191222488880157,0.0020088073797523975
1761341785057616000,6.237615966796875,-0.00036214152351021767,-0.0011902200058102608,-0.0015096976421773434
1761341785067681800,6.247681884765625,0.0019558737985789776,0.0002300431951880455,0.0010903459042310715
1761341785077748700,6.257748779296875,0.0008875480853021145,0.0012575993314385414,-0.0021638507023453712
1761341785087815000,6.26781494140625,0.0021134009584784508,0.002323395572602749,-0.0011648987419903278
1761341785097880800,6.277880859375,0.0010748221538960934,-0.0021136654540896416,-0.0018954132683575153
1761341785107946800,6.28794677734375,-0.000681798905134201,0.00023364461958408356,-0.001451198011636734
1761341785118014000,6.298013916015625,-0.00033405888825654984,0.0015093917027115822,-0.0008179564028978348
1761341785128080000,6.308079833984375,-0.0015260898508131504,0.0011490657925605774,0.0011823438107967377
1761341785138146000,6.31814599609375,-0.0012081260792911053,0.0015569981187582016,0.00010315608233213425
1761341785148213000,6.328212890625,0.0010515660978853703,-0.0024137748405337334,-0.002026041503995657
1761341785158279000,6.33827880859375,-0.0007293326780200005,0.0004405742511153221,0.00008283788338303566
1761341785168344800,6.3483447265625,0.0008267522789537907,-0.0012521306052803993,-0.0019973572343587875
1761341785178410800,6.35841064453125,-0.0014700181782245636,-0.0008366480469703674,-0.00023703090846538544
1761341785188477700,6.368477783203125,0.001098334789276123,0.0011050626635551453,0.00157072301954031
1761341785198544000,6.3785439453125,-0.000871886033564806,-0.0020226985216140747,-0.0021514338441193104
1761341785208609800,6.38860986328125,0.0008114981465041637,0.000460699200630188,0.0013663358986377716
1761341785218676000,6.398676025390625,0.00028277281671762466,-0.0010449392721056938,0.0014583836309611797
1761341785228743000,6.408742919921875,-0.00004213256761431694,0.0008943751454353333,0.000520151574164629
1761341785238808800,6.418808837890625,-0.000596881378442049,0.0012023774906992912,-0.002093731425702572
1761341785248875000,6.428875,0.0024598948657512665,-0.0011870106682181358,-0.00027212919667363167
1761341785258941000,6.43894091796875,0.0010280110873281956,0.0006613451987504959,-0.00025023985654115677
1761341785269008000,6.4490078125,-0.0011339429765939713,0.00026666466146707535,-0.00004783971235156059
1761341785279073800,6.45907373046875,-0.0000708308070898056,-0.002218469977378845,-0.0005666003562510014
1761341785289139700,6.4691396484375,-0.0005736355669796467,0.0011477656662464142,-0.0021216203458607197
1761341785299206700,6.47920654296875,0.0021032714284956455,-0.000014066696166992188,0.0037513459101319313
1761341785309272800,6.48927294921875,0.0001154877245426178,0.00012654811143875122,0.000514274463057518
1761341785319338800,6.4993388671875,-0.0014999513514339924,-0.00043781381100416183,0.001375958789139986
1761341785329405000,6.509405029296875,0.001322466880083084,0.0010748617351055145,0.0005639609880745411
1761341785339472000,6.519471923828125,0.0006676944904029369,0.0016041025519371033,0.002142193727195263
1761341785349537800,6.529537841796875,0.0003830026835203171,-0.0015346994623541832,-0.0006173737347126007
1761341785359604000,6.53960400390625,0.0013935132883489132,-0.0020834002643823624,0.0012463773600757122
1761341785369670000,6.549669921875,-0.0010616546496748924,-0.0003009466454386711,0.002425092738121748
1761341785379736800,6.55973681640625,-0.00016304245218634605,-0.0001717936247587204,0.002190752886235714
1761341785389803000,6.569802978515625,0.0003986181691288948,0.0008854810148477554,-0.0008239448070526123
1761341785399868700,6.57986865234375,-0.00009976699948310852,0.0014256993308663368,0.002280585467815399
1761341785409935600,6.589935546875,-0.0005541024729609489,0.0018075965344905853,-0.0011967038735747337
1761341785420001800,6.600001708984375,-0.0014722030609846115,0.0005812598392367363,0.0038957777433097363
1761341785430067700,6.610067626953125,-0.0005797776393592358,0.0005050934851169586,0.0004557729698717594
1761341785440134000,6.6201337890625,0.0004549659788608551,0.00006638374179601669,-0.0003291475586593151
1761341785450200800,6.630200927734375,0.00008185720071196556,-0.0015765205025672913,0.0018413285724818707
1761341785460266800,6.640266845703125,-0.000692795030772686,-0.00020223110914230347,0.0009640641510486603
1761341785470333000,6.6503330078125,-0.000038722530007362366,-0.00008718296885490417,-0.000015979167073965073
1761341785480398800,6.66039892578125,0.001780183520168066,-0.0005019474774599075,-0.002144359517842531
1761341785490465800,6.6704658203125,-0.0005583381280303001,-0.00003589410334825516,-0.0012458087876439095
1761341785500532000,6.680531982421875,0.0010281330905854702,-0.0019943565130233765,-0.0005641547031700611
1761341785510598000,6.690597900390625,-0.0009828200563788414,-0.0016979463398456573,-0.0013130353763699532
1761341785520664800,6.700664794921875,-0.0015697209164500237,0.00026964209973812103,-0.0036397825460880995
1761341785530730800,6.710730712890625,-0.000380086712539196,-0.00006911158561706543,0.0006606904789805412
1761341785540796700,6.720796630859375,-0.0035498379729688168,-0.00017698481678962708,0.0028438307344913483
1761341785550862800,6.73086279296875,-0.0002411268651485443,-0.0010845893993973732,-0.0025725062005221844
1761341785560929800,6.7409296875,-0.0002801339142024517,-0.0006977003067731857,0.0022502532228827477
1761341785570995700,6.75099560546875,-0.0007901289500296116,0.0017231125384569168,-0.0002680323086678982
1761341785581062000,6.761061767578125,-0.00009792018681764603,0.0003202585503458977,-0.0009941481985151768
1761341785591127800,6.7711279296875,-0.0017813039012253284,-0.0011812308803200722,0.00022771023213863373
1761341785601194800,6.78119482421875,0.000295375008136034,0.0007665855810046196,-0.0009923079051077366
1761341785611261000,6.791260986328125,0.00221231859177351,-0.0009431634098291397,0.0016727172769606113
1761341785621326800,6.801326904296875,0.002078940160572529,-0.0005990546196699142,0.00006646569818258286
1761341785631392800,6.811392822265625,0.0002488158643245697,0.0015557091683149338,0.0015597003512084484
1761341785641460000,6.8214599609375,-0.0002785036340355873,0.0016138087958097458,-0.005626775790005922
1761341785651525600,6.831525634765625,0.003467764938250184,0.00043642520904541016,0.0008678748272359371
1761341785661591800,6.841591796875,0.0011539156548678875,0.0007437001913785934,0.000059412792325019836
1761341785671658800,6.85165869140625,0.00035816337913274765,-0.0001822812482714653,-0.0005722888745367527
1761341785681724700,6.861724609375,-0.0007488271221518517,-0.0004137493669986725,0.0016243336722254753
1761341785691790800,6.871790771484375,-0.0028836168348789215,-0.0022617168724536896,0.0014759954065084457
1761341785701856800,6.881856689453125,-0.00028376560658216476,-0.00026064086705446243,-0.002555481158196926
1761341785711923700,6.891923828125,0.0010155909694731236,-0.002207145094871521,0.0012962492182850838
1761341785721989600,6.90198974609375,-0.0007117576897144318,0.0008206330239772797,0.002567009534686804
1761341785732055600,6.9120556640625,-0.0036319135688245296,0.0015359586104750633,0.00015098974108695984
1761341785742121500,6.92212158203125,0.0005818260833621025,-0.0003516692668199539,-0.002272866666316986
1761341785752188400,6.9321884765625,0.0011946195736527443,-0.0012089405208826065,-0.0014568744227290154
1761341785762254600,6.942254638671875,0.0009367917664349079,-0.0021871859207749367,-0.0008090166375041008
1761341785772320500,6.952320556640625,-0.00034392252564430237,-0.00009447429329156876,-0.003399739507585764
1761341785782387500,6.962387451171875,-0.001429121010005474,0.0002075769007205963,0.0006462475284934044
1761341785792453600,6.97245361328125,-0.00002856459468603134,0.000049651600420475006,-0.00004510954022407532
1761341785802519600,6.98251953125,-0.002665091771632433,-0.0010451655834913254,0.0025221658870577812
1761341785812585500,6.99258544921875,-0.0006149904802441597,-0.0007279831916093826,0.0014094971120357513
1761341785822652700,7.002652587890625,-0.00034332508221268654,0.0026237359270453453,0.0009285872802138329
1761341785832718600,7.012718505859375,0.0012444513849914074,-0.0005811117589473724,-0.00030658720061182976
1761341785842784800,7.02278466796875,-0.0010538534261286259,0.00026828330010175705,0.00023761531338095665
1761341785852850400,7.032850341796875,0.0010854639112949371,-0.001302715390920639,-0.00032670842483639717
1761341785862917400,7.04291748046875,-0.0012034755200147629,0.0015758061781525612,0.0012137051671743393
1761341785872983600,7.052983642578125,0.00006631994619965553,0.0014961771667003632,0.0008496511727571487
1761341785883049500,7.063049560546875,-0.0004763253964483738,-0.0008404245600104332,-0.0009302906692028046
1761341785893115600,7.07311572265625,0.0009319544769823551,-0.0005208458751440048,-0.00038460874930024147
1761341785903182600,7.0831826171875,5.401670932769775e-7,-0.00004913844168186188,0.0010782894678413868
1761341785913248500,7.09324853515625,0.0007124030962586403,0.0020217355340719223,0.0006985231302678585
1761341785923314700,7.103314697265625,-0.0011544213630259037,-0.0002066129818558693,0.0007797298021614552
1761341785933381600,7.113381591796875,-0.0004923595115542412,-0.0003948984667658806,0.000875337515026331
1761341785943447600,7.123447509765625,-0.00009200302883982658,-0.0002377200871706009,0.00120926508679986
1761341785953513700,7.133513671875,-0.0005687088705599308,0.0010051773861050606,-0.0011588172055780888
1761341785963579600,7.14357958984375,-0.0013135476037859917,-0.002126355655491352,-0.0017511574551463127
1761341785973646600,7.153646484375,-0.0005359044298529625,-0.0016576386988162994,-0.0020694052800536156
1761341785983712500,7.16371240234375,0.001430534292012453,-0.0008830484002828598,-0.0006942339241504669
1761341785993778400,7.1737783203125,-0.00022648461163043976,0.0004099169746041298,-0.0034737749956548214
1761341786003844600,7.1838447265625,-0.0024223392829298973,-0.0018974924460053444,-0.0013578562065958977
1761341786013911600,7.19391162109375,0.001235778909176588,0.00015580467879772186,0.00043365219607949257
1761341786023977500,7.2039775390625,-0.0003314348869025707,0.0000711679458618164,0.00014727888628840446
1761341786034043600,7.214043701171875,0.0022816588170826435,0.0016128718852996826,0.0018479740247130394
1761341786044110600,7.224110595703125,0.00042579369619488716,-0.002265951596200466,-0.0025026127696037292
1761341786054176500,7.234176513671875,-0.0006935331039130688,0.0006243772804737091,0.0005461741238832474
1761341786064242700,7.24424267578125,0.0008895890787243843,0.0001610536128282547,0.0015891492366790771
1761341786074308600,7.25430859375,0.0013077054172754288,0.002882537432014942,-0.0009935847483575344
1761341786084375600,7.26437548828125,-0.0009239688515663147,0.0027525676414370537,-0.0006725173443555832
1761341786094441700,7.274441650390625,-0.0028014970012009144,-0.001799040473997593,0.0023243376053869724
1761341786104507400,7.28450732421875,0.0005016750656068325,-0.0016389014199376106,0.00024240324273705482
1761341786114573600,7.294573486328125,-0.0016938354820013046,0.0015185419470071793,-0.0018156878650188446
1761341786124640500,7.304640625,0.000986042432487011,0.0004901234060525894,-0.0005965479649603367
1761341786134706400,7.31470654296875,0.00011199293658137321,0.0005697524175047874,0.0016815196722745895
1761341786144772600,7.324772705078125,0.00044900504872202873,-0.0029625296592712402,0.001949915662407875
1761341786154839600,7.334839599609375,-0.0021891226060688496,-0.0031167268753051758,-0.0006147082895040512
1761341786164905500,7.344905517578125,0.001060348004102707,-0.001250673085451126,0.0037637571804225445
1761341786174971600,7.3549716796875,-0.0014286423102021217,-0.0010900851339101791,-0.001727681141346693
1761341786185037600,7.36503759765625,0.00011537829414010048,0.0006419382989406586,0.0022340831346809864
1761341786195104500,7.3751044921875,0.00013029202818870544,-0.0006976313889026642,-0.0021358984522521496
1761341786205170700,7.385170654296875,-0.0016295425593852997,-0.0008625071495771408,-0.0009808768518269062
1761341786215236400,7.395236328125,0.0023524160496890545,-0.00019804853945970535,-0.0027252472937107086
1761341786225302500,7.405302490234375,0.0013731960207223892,-0.0007540779188275337,0.0004727211780846119
1761341786235369500,7.415369384765625,-0.0030476516112685204,-0.00046512484550476074,0.0004908307455480099
1761341786245435400,7.425435302734375,-0.00143097760155797,-0.00203680619597435,0.001416690181940794
1761341786255501600,7.43550146484375,-0.0037607112899422646,-0.0017832731828093529,-0.00021156668663024902
1761341786265567500,7.4455673828125,0.00002500740811228752,-0.0019507929682731628,0.00008649379014968872
1761341786275634400,7.455634521484375,0.0003158249892294407,-0.0008660880848765373,0.003233551047742367
1761341786285700600,7.46570068359375,0.00006656302139163017,-0.0004626018926501274,0.0007033604197204113
1761341786295766500,7.4757666015625,-0.0015790043398737907,-0.001976609230041504,0.0009081573225557804
1761341786305833500,7.48583349609375,-0.0004068859852850437,0.0015934882685542107,-0.0015783961862325668
1761341786315899600,7.495899658203125,0.00027275271713733673,0.00018414296209812164,0.0037513882853090763
1761341786325965600,7.505965576171875,-0.0015932735987007618,0.0015285219997167587,0.0015230076387524605
1761341786336031500,7.516031494140625,-0.000005763489753007889,0.00037217792123556137,0.001935531385242939
1761341786346098400,7.526098388671875,-0.0031282082200050354,-0.0011973874643445015,0.0006712456233799458
1761341786356164400,7.536164306640625,0.002108098939061165,-0.0023164479061961174,-0.0022393236868083477
1761341786366230500,7.54623046875,-0.0003779809921979904,0.00025939662009477615,-0.001725096721202135
1761341786376296400,7.55629638671875,0.001368786208331585,-0.0016048159450292587,-0.000004961155354976654
1761341786386363400,7.56636328125,0.0009423173032701015,0.0011086612939834595,-0.001487633679062128
1761341786396429600,7.5764296875,0.0010941172949969769,0.001876983791589737,-0.004633625969290733
1761341786406495500,7.58649560546875,-0.0021582278423011303,0.0007075164467096329,-0.0004666866734623909
1761341786416561700,7.596561767578125,0.00131932832300663,0.0009511951357126236,0.0013107070699334145
1761341786426628600,7.606628662109375,-0.001278009731322527,0.0025246096774935722,0.0016211108304560184
1761341786436694500,7.616694580078125,0.0001680869609117508,0.0009972862899303436,0.002417661715298891
1761341786446760700,7.6267607421875,-0.0023444867692887783,0.0005936166271567345,0.00024045957252383232
1761341786456827600,7.63682763671875,0.0023767652455717325,0.0015757912769913673,0.00001941714435815811
1761341786466893300,7.646893310546875,0.0036325298715382814,-0.00007428321987390518,-0.0006867852061986923
1761341786476959500,7.65695947265625,-0.0013550380244851112,0.0019427957013249397,-0.0024703042581677437
1761341786487025400,7.667025390625,0.0003170757554471493,-0.003394877538084984,-0.0011722911149263382
1761341786497092600,7.677092529296875,0.0006414484232664108,-0.001360754482448101,-0.002554471604526043
1761341786507158500,7.687158447265625,-0.0014143222942948341,-0.0011793365702033043,0.001435610931366682
1761341786517224400,7.697224365234375,-0.0026308540254831314,-0.0006499001756310463,0.0006435862742364407
1761341786527290600,7.70729052734375,0.0031135117169469595,0.0004997365176677704,-0.0002396334894001484
1761341786537357600,7.717357666015625,0.0010881777852773666,-0.0006885658949613571,-0.00352970277890563
1761341786547423500,7.727423583984375,0.0010808608494699001,-0.00021791085600852966,0.0017530778422951698
1761341786557489700,7.73748974609375,0.0013386551290750504,-0.0010504154488444328,0.00012402236461639404
1761341786567556600,7.747556640625,0.0014815484173595905,0.0003772713243961334,-0.00040115322917699814
1761341786577622500,7.75762255859375,-0.00030330196022987366,-0.0006349962204694748,-0.002534877974539995
1761341786587688400,7.7676884765625,-0.0003303694538772106,0.0007741060107946396,0.0019442243501543999
1761341786597754400,7.77775439453125,0.0015844437293708324,0.0004971371963620186,0.00016896100714802742
1761341786607821600,7.787821533203125,0.0013959407806396484,-0.0010738717392086983,0.00037228548899292946
1761341786617887500,7.797887451171875,-0.00011300621554255486,-0.0022283513098955154,0.0022298400290310383
1761341786627953400,7.807953369140625,0.0010326290503144264,0.002861260436475277,-0.000587263610213995
1761341786638019600,7.81801953125,-0.0011492986232042313,0.0016545820981264114,0.0007999767549335957
1761341786648086500,7.82808642578125,0.0006543262861669064,-0.00014206208288669586,-0.002581685781478882
1761341786658152700,7.838152587890625,0.0007187752053141594,0.0015929872170090675,0.0006215637549757957
1761341786668218600,7.848218505859375,0.00009837234392762184,-0.0021303370594978333,-0.0005321269854903221
1761341786678284500,7.858284423828125,-0.0010933922603726387,0.0003964705392718315,0.0011888076551258564
1761341786688351700,7.868351806640625,0.000993785448372364,-0.0003758929669857025,0.0012595830485224724
1761341786698417400,7.87841748046875,-0.00015456974506378174,0.0007687341421842575,0.0014731688424944878
1761341786708483600,7.888483642578125,0.0002758796326816082,0.001596326008439064,0.0007364372722804546
1761341786718550500,7.898550537109375,0.0012013278901576996,-0.0007326090708374977,-0.0016233897767961025
1761341786728616400,7.908616455078125,-0.0035509667359292507,0.00030397623777389526,0.0014585484750568867
1761341786738682600,7.9186826171875,-0.00021482491865754128,0.00009438581764698029,0.001006875652819872
1761341786748748500,7.92874853515625,0.0006772875785827637,-0.00017193984240293503,0.0014568408951163292
1761341786758815500,7.9388154296875,0.0014975410886108875,0.0007063709199428558,-0.0020777066238224506
1761341786768881700,7.948881591796875,-0.00023188022896647453,0.000703948549926281,-0.0013244207948446274
1761341786778947600,7.958947509765625,0.000990244559943676,-0.00016397517174482346,-0.0005403859540820122
1761341786789013500,7.969013427734375,0.0003787665627896786,-0.0009197602048516273,-0.0006868848577141762
1761341786799080700,7.979080810546875,0.00017103971913456917,-0.0011519882827997208,0.001494244672358036
1761341786809146600,7.989146728515625,0.00009302422404289246,-0.00018911249935626984,-0.001562544610351324
1761341786819212500,7.999212646484375,-0.0010824953205883503,-0.0022440077736973763,0.002303565852344036
1761341786829278500,8.009278564453124,0.00010308297351002693,-0.00010661128908395767,-0.0017380062490701675
1761341786839344400,8.019344482421875,0.0009222710505127907,-0.0004999600350856781,-0.00029856758192181587
1761341786849410600,8.02941064453125,0.0011284677311778069,0.00007424596697092056,-0.0019489480182528496
1761341786859477500,8.0394775390625,0.00006240466609597206,0.032157883048057556,0.011883243918418884
1761341786869543700,8.049543701171874,-0.0005060420371592045,0.009189271368086338,0.0022224118001759052
1761341786879609600,8.059609619140625,0.0011658906005322933,0.011833789758384228,0.007081615272909403
1761341786889676500,8.069676513671874,0.0001868004910647869,0.001318514347076416,-0.0003915168344974518
1761341786899742700,8.07974267578125,0.0021980195306241512,-0.004119927063584328,0.00007640058174729347
1761341786909808600,8.08980859375,-0.0015120510943233967,-0.004107951186597347,-0.0024335142225027084
1761341786919874300,8.099874267578125,0.0008328622207045555,-0.005219288170337677,-0.003638328518718481
1761341786929941800,8.109941650390626,-0.000660313293337822,-0.004399746656417847,-0.0006082090549170971
1761341786940007400,8.12000732421875,0.0016736811958253384,-0.00342609453946352,0.0014450880698859692
1761341786950073600,8.130073486328126,-0.0004856758750975132,-0.0033791838213801384,-0.0010651955381035805
1761341786960139500,8.140139404296875,-0.0004417337477207184,0.0005947845056653023,0.00002670055255293846
