time,seconds_elapsed,z,y,x
1761340623261385500,0.080385498046875,-0.7400894680172204,1.1441685735747218,0.4256030281666666
1761340623271453400,0.090453369140625,-0.420040352538228,1.2915735959768295,0.4874052947482094
1761340623281520400,0.100520263671875,-0.025041502276062964,1.3519218278251588,0.2924061802665703
1761340623291587300,0.11058740234375,0.26444237906932827,1.2913517699196935,-0.009636480389011558
1761340623301655300,0.1206552734375,0.6547931112647056,1.8219725580707191,-0.9266121565818786
1761340623311722200,0.13072216796875,0.8962737169414758,2.8905341019973156,-1.6987215875856578
1761340623321789200,0.1407890625,0.5049252058804035,3.2234283782631157,-1.70078305016011
1761340623331857400,0.150857421875,-0.35274785450994967,2.9284222263649102,-1.8623003306753931
1761340623341924400,0.16092431640625,-1.2407470795810223,2.5204855685964227,-1.8751649268150328
1761340623351992300,0.170992431640625,-1.5199392840147017,1.697939497297257,-1.2057798841614276
1761340623362059300,0.181059326171875,-1.1484750385969877,0.7696098692730069,-0.6375972079224884
1761340623372126500,0.19112646484375,-0.4851987611472606,0.5631404808206484,-0.4964511728499084
1761340623382194200,0.201194091796875,0.6605722791880368,0.4039048084365204,-0.3959923913441598
1761340623392261400,0.211261474609375,2.2210861501753327,-0.09023242491520941,-0.3925107232408598
1761340623402328300,0.221328369140625,3.7179163612812753,-0.38672611195743084,-0.1302208368971478
1761340623412396500,0.231396484375,4.735307689940929,-0.48400860151462255,0.02183527184696868
1761340623422463500,0.24146337890625,5.16949873290658,-0.4493748027678579,0.035668439024128015
1761340623432531500,0.251531494140625,5.366357522046566,-0.32684184435904023,0.27777444659024475
1761340623442598400,0.261598388671875,5.636777806481719,-0.48082032686732706,0.5996144640740007
1761340623452665300,0.271665283203125,5.603688606828451,-0.762890936281532,1.446836053881049
1761340623462733300,0.2817333984375,5.481580815029144,-0.7104242514632642,2.165848247078061
1761340623472800300,0.29180029296875,5.824524483883381,-0.13527882353961468,0.9631517889499663
1761340623482867200,0.3018671875,5.940377891463041,0.4191566285062581,-0.27745895090028644
1761340623492935400,0.311935302734375,5.4315737983226775,0.7637238799743354,0.16440613382458685
1761340623503002400,0.32200244140625,4.302100981837511,0.5598792505349963,1.3134168867334723
1761340623513070300,0.3320703125,2.150462461897731,-0.36546365329604596,2.4749045516386627
1761340623523137300,0.34213720703125,-0.48877954224348064,-1.1894972232066094,2.1298726783335207
1761340623533204200,0.352204345703125,-0.8643138135790824,-1.2539280481934547,0.4496126301117241
1761340623543272200,0.362272216796875,-1.2967892847985028,-1.4619307471603153,-1.200048135576397
1761340623553340000,0.37233984375,-2.1983178535282613,-2.692837400728464,-2.2533779158405958
1761340623563406800,0.38240673828125,-2.1953443906754253,-4.057325426268577,-3.2020892376363275
1761340623573474800,0.392474853515625,-2.602402512043714,-4.9240667592555285,-3.5385526045605538
1761340623583541800,0.402541748046875,-3.1155624623060225,-4.916058809366822,-2.917842672422528
1761340623593610000,0.41260986328125,-3.4109646277844905,-3.4063960046947,-1.784687660293281
1761340623603677000,0.422677001953125,-5.17878561668992,-2.0574495394185184,-0.9431332294024527
1761340623613744000,0.432744140625,-6.372928766006231,-1.3440467105358838,-0.20255963113009928
1761340623623811800,0.442811767578125,-7.188709727084636,-1.2721364895790814,0.7727402762532234
1761340623633879000,0.452879150390625,-8.048948254048824,-1.7263941690176725,2.137520270477235
1761340623643946000,0.462946044921875,-8.63708365805745,-1.7396444034740328,3.2036183468997477
1761340623654014000,0.473013916015625,-9.422001863360405,-1.456284557966888,3.834247030983865
1761340623664081000,0.483080810546875,-10.735139640891552,-1.6017773170068859,3.820975753739476
1761340623674149000,0.493149169921875,-11.045927591550349,-1.9253141284711657,2.5691902705326677
1761340623684216000,0.503216064453125,-10.17852984048128,-1.9221090488195418,-0.23691337082646785
1761340623694283000,0.513282958984375,-8.10529733325839,-2.8657471590042114,-1.8112253924764692
1761340623704351000,0.52335107421875,-5.647216782909632,-5.500222971656918,-3.115613315710425
1761340623714418000,0.53341796875,-3.5682641444742678,-8.135057096228003,-4.924658879929781
1761340623724484900,0.54348486328125,-3.8794203439235684,-7.1777592940032475,-5.134805605188012
1761340623734552800,0.553552734375,-5.391631079512834,-2.6997689535573124,-4.9351481252402065
1761340623744619800,0.563619873046875,-6.943824281400442,2.620430336165428,-3.921656726628542
1761340623754688000,0.57368798828125,-10.927304719257354,5.962110999843478,0.6200275758970528
1761340623764755000,0.5837548828125,-12.868526464825868,6.813136292782425,5.070875861591101
1761340623774822000,0.59382177734375,-11.145132646667957,8.29614373024106,0.3059226096447557
1761340623784889900,0.603889892578125,-7.863204148641228,3.669544252300262,0.6034842181794345
1761340623794956800,0.613956787109375,-5.009508077436685,1.6954184543870388,7.595028428262472
1761340623805024000,0.62402392578125,-1.1397504648715258,5.249084895318746,3.9901083315640684
1761340623815092000,0.634092041015625,1.0315455262184143,5.467576839596033,1.424804839336872
1761340623825159000,0.644158935546875,2.5209365272343156,3.2399370299935337,3.20855638782382
1761340623835227100,0.65422705078125,4.410333393019438,3.6617984604790803,1.4879200516805051
1761340623845294000,0.664294189453125,5.076185658437013,2.9406007399365306,3.043587359419465
1761340623855361000,0.674361083984375,6.124295365965366,1.5541922667503356,3.350999696165323
1761340623865429000,0.684428955078125,7.553350263962149,1.231402035869658,1.4062728650853038
1761340623875496000,0.694495849609375,8.859325894778966,0.8337101471312344,0.271648894648347
1761340623885563000,0.70456298828125,10.405006353771686,-0.3217310772165656,-0.12036604443220421
1761340623895630800,0.714630859375,11.763622272408007,-1.6058315608337521,0.17287560027781873
1761340623905698000,0.724697998046875,12.473110265934466,-2.2521204631254075,0.22184256987944245
1761340623915766000,0.73476611328125,12.505402762252091,-2.0714336411073804,-0.33971111667379733
1761340623925833000,0.7448330078125,11.841397586005925,-1.5476947214245795,-1.212826222476363
1761340623935900000,0.75489990234375,10.52004961401224,-1.3609298946671187,-1.7383114013046026
1761340623945967900,0.7649677734375,9.865151288807391,-1.6666944642059505,-1.868444970910251
1761340623956034800,0.775034912109375,10.167444967365265,-1.8743949653558432,-2.1975188121050593
1761340623966101800,0.785101806640625,10.475638809877633,-1.9981157453097402,-2.4956004259258506
1761340623976170000,0.795169921875,10.372960525691509,-1.818263182158768,-2.3915309796422717
1761340623986237000,0.80523681640625,10.125286910593509,-1.8925801719963549,-1.968381262911856
1761340623996305000,0.815304931640625,9.876879136002064,-2.07002582013607,-1.5709966865569351
1761340624006372000,0.8253720703125,9.899984117257594,-2.079488937269151,-1.2332654916539787
1761340624016439000,0.83543896484375,9.949239438813924,-2.0859058185741306,-0.9528182456579058
1761340624026507000,0.845507080078125,9.78980933983624,-2.142011736677587,-0.742289023888111
1761340624036574000,0.855573974609375,9.426415003627538,-2.185434991079569,-0.6653611208997666
1761340624046641000,0.865640869140625,9.082869861748813,-2.164052303571999,-0.7589381070025265
1761340624056709000,0.875709228515625,9.030300885599852,-2.219141445848346,-1.1857492688499391
1761340624066776000,0.885776123046875,9.046044398176669,-2.566208624373376,-1.386108028934896
1761340624076844000,0.895843994140625,8.850864355903864,-3.11446648376286,-1.4361417875178157
1761340624086911000,0.905910888671875,8.373153904685378,-3.698589729520678,-1.700850270177424
1761340624096978000,0.91597802734375,7.5343094634056085,-4.108648494009674,-2.040723737806082
1761340624107046000,0.9260458984375,6.505632186099887,-3.2461428988963363,-2.0321724748209116
1761340624117112800,0.93611279296875,4.755134087917209,-1.2519269375041127,-0.9869762435864656
1761340624127179800,0.9461796875,2.35570797111094,1.0040204634983092,1.686150129173696
1761340624137248000,0.956248046875,-0.12047405311763286,2.1502890050269663,4.043251892730593
1761340624147315000,0.96631494140625,-2.6268507246017454,2.360042200922966,4.108004058626294
1761340624157383000,0.9763828125,-4.771369767925143,2.7633728262007233,2.6316084405228493
1761340624167449900,0.986449951171875,-6.058706164723635,3.3858354472249745,1.8468360734313725
1761340624177517000,0.99651708984375,-5.73558363314867,2.9111504813075064,2.10053786277771
1761340624187584800,1.006584716796875,-6.204096047911047,1.9308553959853947,3.5928514732420442
1761340624197652000,1.01665185546875,-9.607456045910716,1.5724261348381638,6.038557110664248
1761340624207719000,1.026718994140625,-16.256749683970213,3.19841084138453,7.107247833928465
1761340624217787100,1.036787109375,-26.268727026247976,5.975195522344112,6.050515259483456
1761340624227854000,1.04685400390625,-35.355465838384625,7.55787972408533,2.9657518400669094
1761340624237921000,1.056921142578125,-39.3760599091053,7.517871538823843,-2.5862048259586095
1761340624247989000,1.066989013671875,-36.37837914533615,4.641957498331368,-8.724173327967524
1761340624258056000,1.077055908203125,-28.02051574876308,-3.6796339768990873,-15.410558387058972
1761340624268124000,1.0871240234375,-19.756295097005367,-8.937469457167387,-20.498137546169758
1761340624278190800,1.09719091796875,-15.51598860030174,-6.524380725711584,-18.781257639950514
1761340624288257800,1.1072578125,-12.832251036351918,-1.8313254928275942,-11.108201384633778
1761340624298326000,1.117325927734375,-10.508913302969932,1.5023323156535624,-2.550574417389929
1761340624308393000,1.12739306640625,-9.341973802399634,3.259817788505554,3.4127254999771712
1761340624318460000,1.1374599609375,-8.978378975182771,4.644021445123851,6.260837925830483
1761340624328528000,1.14752783203125,-8.363850069767237,5.667746360719204,7.058903197476267
1761340624338594800,1.1575947265625,-6.310964769524335,6.246880712148547,7.187009937429428
1761340624348662800,1.167662841796875,-3.0380823322623964,6.099412269121408,7.333952310755849
1761340624358729700,1.177729736328125,0.9291028043538332,4.77234475043714,6.835154647845029
1761340624368797200,1.187797119140625,4.8807396587044,3.061855129776895,5.551085143887996
1761340624378865000,1.197864990234375,8.617904910334945,1.305192663745582,3.3129131266161798
1761340624388932000,1.20793212890625,11.93959726347327,-0.8205356082595884,1.0189138620518148
1761340624398999000,1.2179990234375,14.135076678705214,-2.0741171811029315,-0.5453667775904759
1761340624409067000,1.22806689453125,14.963789602071046,-2.0965812341064214,-1.474267520033568
1761340624419134000,1.238134033203125,14.442593644869326,-1.7766048916026949,-2.228561454492062
1761340624429201000,1.248200927734375,12.736673524081706,-1.1647991275407372,-2.440321021774411
1761340624439269000,1.25826904296875,11.111217517584562,-0.30360205774269994,-1.0466107742074877
1761340624449336000,1.268336181640625,9.431826507282256,-0.6173292036585509,0.08822276559323072
1761340624459404000,1.278404052734375,8.797478802675009,-1.0440401200018823,-0.5994430530298501
1761340624469471000,1.288470947265625,8.926256573757529,-0.871393396576494,-0.8828717990547418
1761340624479538000,1.298537841796875,9.315149508360028,-1.0706272442847489,-1.1138334949351847
1761340624489606000,1.30860595703125,9.508366141605377,-1.5820874048918485,-1.0561761096060276
1761340624499672800,1.3186728515625,9.364503029593825,-1.6522988591067491,-0.7276980423472821
1761340624509739800,1.32873974609375,9.232051538434623,-1.3906871734187005,-0.5052765035361051
1761340624519808000,1.33880810546875,9.365619466403126,-0.953318377199769,0.05426507600974291
1761340624529875000,1.348875,9.541982580003141,-0.606757759957388,0.7958218766331672
1761340624539943000,1.35894287109375,9.380863797286151,-0.5271333113614469,1.3856538554266093
1761340624550009900,1.369009765625,9.083080289629102,-0.4202186317145824,1.783533521822095
1761340624560077300,1.379077392578125,8.800015627676249,-0.3572415126673877,2.033199772042036
1761340624570145000,1.38914501953125,8.588900934168695,-0.5411708237379789,2.0144652609556912
1761340624580212500,1.39921240234375,8.336401506349445,-0.8303769110552967,1.6573144953116774
1761340624590279400,1.409279541015625,7.800549247285724,-1.0699943532086909,1.0627537344306708
1761340624600347400,1.419347412109375,7.0021870385199785,-1.1952836976535617,0.40040772356837984
1761340624610414300,1.429414306640625,6.644108928897976,-1.2623504241019488,-0.02132558702547103
1761340624620481300,1.439481201171875,6.954125310662389,-1.42489222535938,-0.1417551799468696
1761340624630549200,1.44954931640625,7.711609565594792,-1.5369788277514278,-0.15914905354660003
1761340624640616200,1.4596162109375,8.555039581099152,-1.5380764137297869,-0.21536875248914583
1761340624650684400,1.469684326171875,8.868056313723326,-1.4839857809714971,-0.3109402186110616
1761340624660751400,1.47975146484375,8.555913441324234,-1.4316156883955,-0.49761144880093633
1761340624670818300,1.489818359375,8.158366075623034,-1.3241601068049669,-0.6682373339232057
1761340624680886300,1.49988623046875,7.995370393118262,-1.1956016044963151,-0.6604115356683731
1761340624690953200,1.509953125,7.872327950817346,-1.0547995605558156,-0.4723542944801971
1761340624701020200,1.520020263671875,7.429969968008995,-0.8619254571378231,-0.31203586836066094
1761340624711088000,1.530088134765625,5.80604248625338,-0.5554060506436973,-0.17819116927739231
1761340624721155000,1.540155029296875,2.890578233399987,-0.1727344017088413,-0.14755243151616304
1761340624731222300,1.55022216796875,-0.4014794444531202,0.11487886345908045,-0.3830408110408112
1761340624741290200,1.560290283203125,-3.349407458537817,0.10844364277981221,-0.5468863518405706
1761340624751357400,1.570357421875,-5.549759448242187,-0.8811457059144974,0.04133358864635229
1761340624761425200,1.580425048828125,-7.267085344663262,-2.364920912875235,1.2061111619424074
1761340624771492400,1.590492431640625,-9.251543589890003,-3.1232404495880006,2.4291934785604474
1761340624781559300,1.600559326171875,-11.817421667134761,-2.5603277496412393,3.660653966619074
1761340624791627300,1.610627197265625,-15.450928975892067,-1.8242551160499452,5.1736576061517
1761340624801694200,1.620694091796875,-21.085612440443036,-0.6641162354052066,5.936138938719034
1761340624811761200,1.63076123046875,-29.10403696141243,1.765653289477527,5.246123707425594
1761340624821829400,1.640829345703125,-38.072543361878395,4.9893221984982485,3.214591576334834
1761340624831896300,1.650896240234375,-43.005702359127994,7.358861126562952,0.20442400022987275
1761340624841964300,1.66096435546875,-40.76753063411712,5.996095687031746,-3.2510034906700254
1761340624852031200,1.67103125,-33.18972806594372,2.1660788409635425,-6.264883986350894
1761340624862098200,1.68109814453125,-24.74482702190876,-1.2374803328700363,-8.554320619174838
1761340624872166100,1.691166259765625,-17.656637524193524,-3.3528727965608236,-9.664618195068835
1761340624882233000,1.701233154296875,-11.613397808670998,-4.35517966107428,-9.400386243879794
1761340624892300000,1.711300048828125,-6.368847049650549,-4.349681355918944,-7.741915272009372
1761340624902368300,1.7213681640625,-2.1374095035791396,-4.841161973814666,-5.980826221707463
1761340624912435200,1.731435302734375,1.4781138201981783,-7.774726823765039,-6.554561928963661
1761340624922502400,1.74150244140625,5.246026092270016,-6.6627212749093765,-7.4035554238140575
1761340624932570000,1.751570068359375,7.648364297130703,-1.616338926322758,-5.351759087851644
1761340624942637300,1.76163720703125,6.843911954796313,1.512284677608311,-0.4213795652527362
1761340624952705000,1.771705078125,4.901809334740042,3.6056773448064923,4.932191613522171
1761340624962772200,1.781772216796875,3.2689754929512738,5.0932922760605805,8.05110221721232
1761340624972839400,1.79183935546875,2.9797067156612873,3.7130075464516876,8.484576051819325
1761340624982907400,1.801907470703125,4.9994279974490405,3.41518019965291,5.953202886244655
1761340624992974300,1.811974365234375,6.866279269427061,3.3304496600896116,3.3156367063611745
1761340625003041300,1.822041259765625,8.835511888471245,1.9090401622794568,1.7379945904403924
1761340625013109200,1.832109130859375,11.138866572010517,0.7040390074055641,0.6103205670055002
1761340625023176200,1.84217626953125,13.248669106739758,-0.13817279141545294,-0.29531865191347895
1761340625033243100,1.8522431640625,14.749336704051494,-0.5578207471026108,-0.8611578337661921
1761340625043311400,1.862311279296875,15.359056163358687,-0.45152883899658913,-0.7718596940264105
1761340625053378300,1.87237841796875,15.108913527798652,0.04239076954908669,-0.18750632930714636
1761340625063446300,1.8824462890625,14.306148700159786,0.724220502429828,-0.04023585653752088
1761340625073513200,1.89251318359375,12.65078387761116,0.8601158504325896,0.7476461670070886
1761340625083580200,1.902580078125,10.960215639734267,0.7210184184528887,1.5681898124426603
1761340625093648100,1.912648193359375,9.772102418231963,0.9158300658047198,1.4943910012602806
1761340625103715000,1.922715087890625,8.326979598009586,1.1463656452275812,1.2354647552639246
1761340625113782300,1.9327822265625,7.37277917727828,0.8599952197276055,0.88333211004287
1761340625123850200,1.942850341796875,7.34937258272767,0.4086925907023251,0.33703020702674985
1761340625133917400,1.95291748046875,8.008994429323076,0.042903176050633186,-0.26058248877078294
1761340625143984400,1.962984375,9.023784635573625,-0.3779147367313504,-0.7399968943629414
1761340625154052400,1.97305224609375,9.943608154928684,-0.7555963953591883,-1.058159027051553
1761340625164119300,1.983119384765625,10.445717134344576,-1.1145715999513863,-1.1677030322887003
1761340625174187300,1.993187255859375,10.374248811936377,-1.6131125116221605,-1.3902465900443493
1761340625184254200,2.003254150390625,9.577461305141448,-2.3110233184710145,-2.059689281169325
1761340625194321200,2.013321044921875,8.332956334331632,-2.7265783422887324,-2.427835341949761
1761340625204389400,2.023389404296875,7.1351657684236764,-3.479993448086083,-3.5640211000770328
1761340625214456300,2.033456298828125,6.419937185418606,-4.212894173642993,-4.970229960015416
1761340625224523300,2.043523193359375,6.43604193252325,-3.9554812548190355,-5.321872483631968
1761340625234591200,2.05359130859375,6.113838269358873,-3.8672204953029747,-4.935899235868454
1761340625244658200,2.063658203125,5.799402317586541,-4.534032253402471,-4.147685203890502
1761340625254725000,2.07372509765625,5.851359299317002,-4.386415926337242,-3.313268515925109
1761340625264793000,2.08379296875,5.684106543889642,-3.22907135258615,-2.2483231166690585
1761340625274860000,2.093860107421875,5.493844084274769,-2.3740341936573386,-1.2149803317703305
1761340625284928300,2.10392822265625,4.445391846919059,-1.6798568742483853,-0.3495562553944066
1761340625294995200,2.1139951171875,2.550834237369895,-0.25342881762385366,0.3884751841144636
1761340625305062400,2.1240625,0.8990572101801634,1.231624884840101,1.2093536509949714
1761340625315130000,2.134130126953125,-0.5598731861203908,1.7206556253656744,1.7022835178509355
1761340625325197300,2.144197265625,-1.587951913011074,1.6087055088348685,1.3869452104113995
1761340625335264300,2.15426416015625,-2.538230191862583,0.711890524623543,1.4899419128969311
1761340625345332200,2.164332275390625,-4.2428889144122595,-0.01704100504145026,3.13328399695754
1761340625355399200,2.174399169921875,-8.432616147479415,0.18371099214479325,5.756204396373033
1761340625365466400,2.18446630859375,-16.025595826518536,2.206734238087386,7.7224477704733605
1761340625375534300,2.194534423828125,-26.50001532373428,6.238347861602902,8.588625039836764
1761340625385601300,2.204601318359375,-37.130773383653164,10.878646779072284,7.582571682271361
1761340625395669200,2.214669189453125,-43.727245532107354,14.04235747847557,5.076380888748169
1761340625405736200,2.224736083984375,-42.82786741940975,13.345432029402255,1.3791585020579398
1761340625415803100,2.23480322265625,-35.180703145718574,9.379251685914397,-2.752211672978103
1761340625425871000,2.24487109375,-25.94519649839401,4.900635030263662,-5.857888408824801
1761340625435938300,2.254938232421875,-18.530765460300444,1.659996866263449,-7.416861480110883
1761340625446005200,2.265005126953125,-13.193079905986785,0.05304696892425417,-7.223281858772039
1761340625456073200,2.2750732421875,-9.308294820159674,-0.647568274577707,-5.833159041237831
1761340625466140200,2.28514013671875,-6.5471361628770826,-0.7269041154906153,-4.096487808355689
1761340625476207400,2.295207275390625,-4.621854913762212,-0.7214476036503911,-2.788799820663035
1761340625486275000,2.305275146484375,-2.9053350730270147,-0.4512015067383647,-1.8446666204378008
1761340625496342300,2.31534228515625,-1.581006623917818,0.4605797220669687,-0.8781085301756858
1761340625506410200,2.32541015625,-1.165992575109005,1.109745787230134,-0.049723815850913525
1761340625516477400,2.3354775390625,-0.6226292097628117,1.6990870598971843,0.472041319540888
1761340625526544400,2.34554443359375,0.49754678606688973,2.070200738311559,0.9750874336764216
1761340625536612400,2.3556123046875,2.3600299259632824,1.984427119436115,1.5396606141813098
1761340625546679300,2.36567919921875,4.568235551777482,1.6388694686912,1.9529700510293244
1761340625556745500,2.375745361328125,6.657682111698389,1.4029137639157474,1.8439556956894694
1761340625566813400,2.3858134765625,8.088331585410236,1.0691436546634883,2.384035363189876
1761340625576880400,2.39588037109375,9.569503039613366,0.8450723028186709,2.581751353681087
1761340625586947300,2.405947265625,10.835282269120215,0.7717959811404347,2.607804663348198
1761340625597015300,2.416015380859375,11.82527530324459,0.8044188053909689,2.4935285880878566
1761340625607082500,2.42608251953125,12.622186728680132,0.8619342980314045,2.050630360922962
1761340625617149700,2.436149658203125,13.379527191227673,0.7684846646353602,2.5610282991260287
1761340625627217400,2.446217529296875,13.95460905239582,0.15837079918310046,2.9926123744636772
1761340625637284600,2.45628466796875,14.37367383790016,-0.4288457364149391,2.871463198563456
1761340625647352600,2.4663525390625,14.535164376538992,-0.6162672735154628,2.450304947911203
1761340625657419500,2.47641943359375,14.760725528550147,-0.6551420708328485,1.9937451290100812
1761340625667486500,2.486486572265625,14.625461318057775,-0.7537460913173853,1.74690416534394
1761340625677554700,2.4965546875,13.799472266697883,-0.9939606225810944,1.6899977445125578
1761340625687621600,2.50662158203125,12.60083998926878,-1.2203601251125336,1.5213472511164843
1761340625697688600,2.5166884765625,11.08693764733076,-1.2407500021904707,1.4701128845721483
1761340625707756500,2.526756591796875,9.10221928986311,-1.257874155470729,1.5105793349951504
1761340625717823500,2.536823486328125,6.971103917992115,-1.4735450509779155,1.7717434230461715
1761340625727890400,2.546890380859375,6.554499969643354,-1.5529463583424687,1.6360359988309443
1761340625737958400,2.55695849609375,6.170816878643632,-1.499774155603349,1.3807891719996928
1761340625748025300,2.567025390625,5.719368995928764,-1.724610208210349,1.2437857166245578
1761340625758093600,2.577093505859375,5.95425561016798,-2.1300683470360933,0.7699667198866605
1761340625768160500,2.587160400390625,6.2793871434777975,-2.3349960224717856,0.6321802243750542
1761340625778227500,2.5972275390625,6.627675095969439,-2.4005671035349367,0.4931758775062859
1761340625788295400,2.60729541015625,6.674325203463435,-2.41758838096261,0.20733290994651615
1761340625798362400,2.6173623046875,6.588926555380225,-2.3607515182361007,0.058938072789460415
1761340625808429600,2.6274296875,6.514069759577512,-2.2615056927166877,0.17147914095073938
1761340625818497500,2.63749755859375,6.594755407664179,-2.200607279639691,0.3566654663451016
1761340625828564500,2.647564453125,6.803477068555354,-2.241632386858761,0.4815808629110455
1761340625838631400,2.65763134765625,6.824565449291467,-2.160809814519435,0.3716775228422135
1761340625848699600,2.66769970703125,6.125730367204547,-2.0209281733594833,-0.0651109892707318
1761340625858766600,2.6777666015625,4.757055995890498,-1.8587018677920102,-0.49453101844228803
1761340625868833500,2.68783349609375,2.7749147954344746,-1.2985410969018936,-0.9081466716952621
1761340625878901500,2.697901611328125,0.17290099044740198,-0.496738319228217,-1.368598967990279
1761340625888968400,2.707968505859375,-2.196172073671222,0.36567141429521144,-1.8625678955703973
1761340625899036400,2.718036376953125,-3.4103298370122905,1.0040279161524026,-1.7041858443409204
1761340625909103400,2.728103271484375,-4.5104888807296755,1.1960337123032658,-0.5334100535433739
1761340625919170300,2.73817041015625,-6.786819948264956,1.3489843130685388,1.3063213755145668
1761340625929238500,2.748238525390625,-10.832723232287169,1.400849817123264,3.8512177472680804
1761340625939305500,2.758305419921875,-17.541104434609412,2.4020520813956856,5.82980330106914
1761340625949372400,2.768372314453125,-24.494272882938382,4.650321422050893,5.891185698270798
1761340625959440400,2.7784404296875,-29.619381854498386,6.130320617604255,4.809114392168819
1761340625969507300,2.78850732421875,-32.37781547073126,6.534595245733857,3.6390491607934234
1761340625979574500,2.798574462890625,-33.6745913115263,6.980499522846936,1.9691412874989211
1761340625989642500,2.808642578125,-32.86054638046026,6.8845596070051185,-0.7625419767133891
1761340625999709700,2.818709716796875,-29.74913869974613,4.901115507256985,-4.1783121050834655
1761340626009776600,2.828776611328125,-24.639655167341232,2.0962989100337026,-7.160646246638894
1761340626019844600,2.8388447265625,-18.83156510090828,-0.16227456515599042,-8.98218655077219
1761340626029911600,2.84891162109375,-13.205969782698153,-2.1859828342206775,-9.392800318795443
1761340626039979500,2.8589794921875,-7.802488106393814,-5.6707040414810175,-9.532014728218316
1761340626050046500,2.86904638671875,-2.6444617846161127,-12.713431764703989,-13.202703474378586
1761340626060113400,2.879113525390625,1.290386432018876,-11.588429371631145,-15.374424412882327
1761340626070181600,2.889181640625,3.5644840414136647,-2.6380185998260974,-10.930657536816597
1761340626080248600,2.89924853515625,2.762217810946703,2.1348070659957825,-3.1618536733597513
1761340626090315500,2.9093154296875,2.249005253714323,3.2820360500544306,3.1988176686197516
1761340626100383500,2.919383544921875,2.963119737997651,2.9007620660230518,5.7979497806906695
1761340626110450400,2.929450439453125,4.348171243616938,3.117558604559302,6.2723044917404644
1761340626120517400,2.939517333984375,5.438221565774083,3.930340091560781,5.9348097359418865
1761340626130585300,2.94958544921875,5.993488134881853,3.50519510935992,5.397085837787389
1761340626140652500,2.959652587890625,6.7510115527808665,2.9432752198427914,4.806382629117369
1761340626150720500,2.969720458984375,7.785554507249593,2.5852666683256627,4.17684846227169
1761340626160787500,2.979787353515625,9.158315271094441,2.277592904164642,3.6118981190174817
1761340626170854700,2.989854736328125,10.83857663449049,2.0784951039262114,3.235546686080098
1761340626180922600,2.999922607421875,12.437737339258193,1.6892258833572267,3.0731203278958796
1761340626190989600,3.009989501953125,13.728582620960474,1.1587648888777942,2.949323852357268
1761340626201056500,3.020056396484375,14.406213002455234,0.8916367778558284,3.025634354099631
1761340626211124500,3.03012451171875,14.59131939448118,0.6095830465111881,2.744697059564292
1761340626221191400,3.04019140625,14.571588273572921,0.31408947642222046,2.4806726136460897
1761340626231258400,3.05025830078125,14.084978476583958,0.1323889473170042,2.359892124927789
1761340626241326600,3.06032666015625,13.385654149675368,-0.06901048092730343,1.825287089446187
1761340626251393500,3.0703935546875,12.451274866223335,-0.16340411717519163,1.2024178603824227
1761340626261460500,3.08046044921875,11.34794771386385,-0.3019005875870585,0.4502741262277588
1761340626271528400,3.090528564453125,9.906804318666458,-0.6227838158026338,0.004429187219636515
1761340626281595400,3.100595458984375,8.630567992553114,-1.0387724087320267,-0.1128981562369503
1761340626291663400,3.110663330078125,7.402161339107155,-1.4010697434842585,-0.44770898844748735
1761340626301730300,3.120730224609375,6.6979416413724415,-1.6446715790987014,-0.46147805914618073
1761340626311797500,3.130797607421875,6.934825566908716,-1.7356050649553536,-0.10199103257432579
1761340626321865500,3.140865478515625,7.21546621658504,-1.927402332922071,0.2671536655883305
1761340626331932700,3.1509326171875,7.303492875084281,-2.092998845575005,0.5673530204817653
1761340626341999600,3.16099951171875,7.097240234655142,-2.0496631233260034,0.8610016933564096
1761340626352067600,3.171067626953125,6.775462103426456,-1.9740112316228449,1.1360578939639032
1761340626362134500,3.181134521484375,6.263158477732539,-1.9877548025541005,1.1511771371625363
1761340626372201500,3.191201416015625,5.804941831535101,-1.9698432982884346,0.7671651064693927
1761340626382269400,3.20126953125,5.626137754523754,-1.8905363912090658,0.15710355572625995
1761340626392336600,3.211336669921875,5.830025419387221,-1.934325410183519,-0.2815746425908059
1761340626402403600,3.221403564453125,6.273686886009574,-2.0976026861086488,-0.5206610466074199
1761340626412471600,3.231471435546875,6.489159190204739,-2.2447135478697717,-0.5905989811105653
1761340626422538500,3.24153857421875,6.037065995323657,-2.1434609125725923,-0.7105130987904965
1761340626432605400,3.25160546875,5.570318252146244,-1.7935874444551765,-0.8748609996218234
1761340626442673400,3.26167333984375,5.465349226674437,-1.544689402128756,-0.8563261758260429
1761340626452740400,3.271740234375,5.6399558519959445,-1.4413256198965012,-0.6420870666876435
1761340626462808600,3.28180859375,5.192687300792336,-1.399252464929223,-0.646590953978151
1761340626472875500,3.29187548828125,2.9028111075073477,-1.2438972141750155,-0.9962422307122498
1761340626482942500,3.3019423828125,-1.1596820767879485,-0.7238942661501466,-1.2991016533941029
1761340626493010400,3.312010498046875,-5.923256660792231,0.31875220753625033,-0.9741908501628785
1761340626503077600,3.32207763671875,-9.938985755825042,1.5026495649091898,0.33965748679041863
1761340626513144600,3.33214453125,-12.910616717058419,1.3746300648480654,2.740344417312741
1761340626523212500,3.342212646484375,-16.45483129290342,2.296461709155142,5.231792984256148
1761340626533279500,3.352279541015625,-21.10550722748041,5.273884990054369,5.946737489622831
1761340626543346400,3.362346435546875,-26.35026315368414,7.767204611566663,4.604548681913316
1761340626553414700,3.37241455078125,-31.32823627517223,8.673160933610797,2.359137653298676
1761340626563481600,3.382481689453125,-33.316807800936694,9.036281713575125,-0.3813117587585002
1761340626573549600,3.392549560546875,-31.511778486621377,8.134562006187439,-3.9432980650722977
1761340626583616500,3.402616455078125,-28.39240260350704,5.869799795892835,-8.391813012447953
1761340626593683500,3.412683349609375,-23.441474140810964,3.219425864623487,-12.156710905134677
1761340626603751400,3.42275146484375,-16.54429938238263,0.20679631885178387,-12.933203811919688
1761340626613818400,3.432818359375,-9.487452532914281,-3.1368323370888826,-11.23522383648157
1761340626623885300,3.44288525390625,-4.142374530261755,-5.340445666676759,-9.103813865578173
1761340626633953300,3.452953369140625,-1.4316384847491979,-5.189256741821765,-8.547370069384574
1761340626644020500,3.4630205078125,-1.3958984783262014,-3.729475281649828,-7.6760314717352385
1761340626654087400,3.47308740234375,-3.2672990841716527,-1.8943813761994241,-6.254684663897752
1761340626664155400,3.4831552734375,-6.6995689503133296,-0.36410971793644126,-5.898483454063534
1761340626674222600,3.49322265625,-12.499058361661433,1.2156861419521272,-3.0331738096937535
1761340626684289500,3.50328955078125,-13.790844723606108,4.912893038812279,0.36983240643218157
1761340626694357500,3.513357421875,-9.969991134941578,5.9711190666854375,1.9696333087995648
1761340626704424400,3.523424560546875,-3.3439228896468878,4.131386687779426,3.5392023006409405
1761340626714491400,3.533491455078125,3.6353549824506044,1.7688783890038728,3.1793156802922486
1761340626724559600,3.5435595703125,9.223208891287445,-1.072811383390799,1.611491778552532
1761340626734626600,3.55362646484375,12.36023675094843,-2.54744868658483,0.0887269157230854
1761340626744694500,3.563694580078125,13.790949937546252,-1.3321154497236012,0.7726324319645762
1761340626754761500,3.573761474609375,14.61113001036644,0.23111827468164264,1.8427384288541973
1761340626764828400,3.583828369140625,14.676576588267087,1.414922035486996,2.147989788173884
1761340626774896400,3.593896484375,14.15658708424568,2.419390169687569,2.3841091590784487
1761340626784963300,3.60396337890625,13.447746740972995,2.6214859826982018,2.2742438859976826
1761340626795030300,3.6140302734375,12.665816611570119,2.374335660821944,2.4890976199030876
1761340626805098500,3.624098388671875,12.520982608699798,1.871089640200138,2.81670957185179
1761340626815165400,3.63416552734375,12.657302465724944,1.3744441868871449,3.0284573025658723
1761340626825232400,3.644232421875,13.008420088684558,0.7001306017901748,3.214857826055586
1761340626835300400,3.65430029296875,13.419693197399377,0.1816387159153819,3.1566689641982317
1761340626845367600,3.664367431640625,13.469934022861718,-0.05271693325228989,3.0267534212574363
1761340626855434500,3.6744345703125,13.017446275705097,-0.6093146778985857,2.550848850417137
1761340626865502500,3.68450244140625,11.901634904825686,-1.2663241500385105,1.9923259098619222
1761340626875569400,3.6945693359375,10.486764599525928,-1.8122427528254688,1.2984184934355318
1761340626885636600,3.70463671875,9.200240103632211,-2.4188323896743356,0.5236701287629083
1761340626895704600,3.71470458984375,7.6622350015729666,-2.931684150770306,-0.25927429224904625
1761340626905771500,3.724771484375,5.879474217689037,-3.2114076856017113,-1.4227956914715467
1761340626915839500,3.734839599609375,4.418855137649178,-2.8925878196567294,-1.7101731020569801
1761340626925906400,3.744906494140625,3.9459395194917914,-2.7981945487350224,-1.6625317915685474
1761340626935973400,3.754973388671875,4.256860156619549,-2.766449164906144,-1.4493864690162241
1761340626946041300,3.765041259765625,4.972680860298872,-2.7661355689123273,-1.0983277366369961
1761340626956108500,3.775108642578125,5.737554056438803,-2.7346479592368005,-0.9800244516871869
1761340626966175500,3.785175537109375,6.46323389083147,-2.3982249243229625,-0.7820691725473851
1761340626976243500,3.795243408203125,7.235740358328819,-1.7841804414235054,-0.39255361253451554
1761340626986310400,3.805310302734375,7.936616006332636,-1.2128458039596677,0.16884833578942343
1761340626996377300,3.81537744140625,8.46123141658902,-0.7579079602371901,0.7442147312536835
1761340627006445300,3.8254453125,8.531236680707336,-0.459017514251545,0.9002387481149285
1761340627016512500,3.835512451171875,7.843546092969179,-0.15700981302820144,0.8088562763817608
1761340627026579500,3.845579345703125,6.403008846971392,0.6506840685106814,0.503507922961004
1761340627036647700,3.855647705078125,5.088021642181277,2.020616769322753,0.370368705265969
1761340627046714600,3.865714599609375,4.442912305063009,2.862071977622807,0.8648361569527536
1761340627056781600,3.875781494140625,3.932945597884059,3.199074565990269,1.322263041011989
1761340627066849500,3.885849609375,3.1842431998223066,3.3851530179187654,1.0470462430153042
1761340627076916500,3.89591650390625,2.334955690461397,2.2858074825413524,1.042100676371902
1761340627086983400,3.9059833984375,1.4875748915046452,-0.10393166351439431,1.1883427194092422
1761340627097051400,3.916051513671875,-0.39435529166162014,-2.0836915035255252,1.499118760434538
1761340627107118300,3.926118408203125,-5.195241076928377,-3.261285815231502,2.3513242030687627
1761340627117186600,3.9361865234375,-13.96361536567211,-2.6690748323470355,2.4383907843641937
1761340627127253500,3.94625341796875,-26.047609409642217,0.5288683915257454,0.8506693191081285
1761340627137320400,3.956320556640625,-36.997701130247115,4.459878052911162,-0.276656840737164
1761340627147388400,3.966388427734375,-44.52281723337173,6.404546139541268,-0.9236030378937721
1761340627157455400,3.976455322265625,-45.75040672521591,5.94931289306879,-3.287011500379443
1761340627167522300,3.986522216796875,-40.865346865224836,-1.479061622442305,-9.36699309284389
1761340627177590300,3.99659033203125,-34.58006715657711,-11.285062510883808,-18.98266868556738
1761340627187657500,4.006657470703125,-28.310499396324158,-12.762736186099051,-23.718783015716074
1761340627197724400,4.016724365234375,-28.342185158920287,-12.467681226623057,-23.59662963120937
1761340627207791600,4.02679150390625,-22.117714431500435,-8.865771417656541,-18.862402137720583
1761340627217858600,4.036858642578125,-14.614976164400577,-5.148390478426218,-9.929488444161414
1761340627227926500,4.046926513671875,-7.580567356711626,-2.4221231017827987,-3.756322079782188
1761340627237993500,4.056993408203125,-2.4326795671105383,-0.746976377986744,0.3129579881742596
1761340627248060400,4.067060302734375,-0.6189718562990426,1.3042916232526303,4.0492251219213005
1761340627258128400,4.07712841796875,-2.9063498030275103,2.199381683367491,6.010370296099782
1761340627268195300,4.0871953125,-4.7429947373121975,3.4775399174541235,6.041805883327126
1761340627278262300,4.09726220703125,-4.4216228487968445,4.126107286071777,4.79789478675723
1761340627288330500,4.10733056640625,-1.316405254894495,4.716327679660916,4.153892534098029
1761340627298397400,4.1173974609375,3.2277146772801872,5.7211915351808065,4.434682821378112
1761340627308464600,4.127464599609375,7.430209037461877,6.066171093776822,4.603746425619721
1761340627318532400,4.137532470703125,10.738556755858658,6.090766021329165,4.438506179058551
1761340627328599600,4.147599609375,12.879534181052446,6.012745208537578,4.060047544708848
1761340627338666500,4.15766650390625,13.762373831403254,5.794197734680772,3.8053029683113095
1761340627348734500,4.167734375,13.699026856130361,5.3164715013712645,3.412832175222039
1761340627358801400,4.177801513671875,13.281906190431117,4.96033868059814,2.5840987935900688
1761340627368868400,4.187868408203125,13.067365614128112,5.352562220928073,2.55185013641417
1761340627378936600,4.1979365234375,13.040014665865897,5.728118119573593,3.3873987510189414
1761340627389003500,4.20800341796875,13.139670971882342,5.5114913846462965,3.943484527555108
1761340627399071500,4.218071533203125,13.26455524265766,4.988783269315958,3.8596848391011354
1761340627409138400,4.228138427734375,13.235840020304918,3.9469127484381197,2.9779888058274984
1761340627419205400,4.238205322265625,13.13566816598177,1.962246559549123,1.451756705278903
1761340627429273300,4.2482734375,13.036285416209697,-0.5569425760285929,-0.6705395464509725
1761340627439340300,4.25834033203125,12.765651781284808,-2.738037017153203,-2.1987533223360773
1761340627449407200,4.2684072265625,11.775710185086727,-4.738251049916446,-3.14296426397264
1761340627459475500,4.278475341796875,9.626550622481107,-5.800387821492553,-4.456731279318034
1761340627469542400,4.28854248046875,6.631590808108449,-5.3041281526267525,-5.6625756800830365
1761340627479609600,4.298609619140625,4.06036026391983,-4.209043635694682,-5.483050303059816
1761340627489677300,4.30867724609375,2.348573881447315,-2.8633292842075226,-3.5888656184762713
1761340627499744500,4.31874462890625,1.8754776460260152,-1.395486974915862,-0.9443915589004754
1761340627509811500,4.3288115234375,2.6150954048782586,-0.29299641951099037,0.8170680782794952
1761340627519879400,4.33887939453125,4.355268508401513,0.06477554677128791,1.5478455280721186
1761340627529946600,4.348946533203125,6.110072194823623,-0.21694895261898636,1.5995755691789089
1761340627540013600,4.359013671875,7.07441523938477,-0.6588596300512551,1.4392891456328332
1761340627550081500,4.36908154296875,7.8680691243290894,-1.1540119221970437,1.0310653414860367
1761340627560149000,4.37914892578125,8.47630506708026,-1.8069937462560832,0.6702675976417959
1761340627570216000,4.3892158203125,8.613125859364867,-2.4827935513228176,0.1769482200115919
1761340627580285000,4.399284912109375,7.635141827464103,-1.5409657054305075,-0.2758703665345907
1761340627590352100,4.40935205078125,6.411307888761162,-0.5671333498490974,0.1360501001730561
1761340627600419000,4.419419189453125,5.375139378917217,0.17700261707995085,1.195266454257816
1761340627610487000,4.429487060546875,4.88467582910955,0.7378867703411728,2.4127295427545903
1761340627620554000,4.439553955078125,4.399875711891055,0.632632059795782,2.8633260693371296
1761340627630621000,4.449620849609375,4.331367992854118,0.8101274653613567,2.365840658068657
1761340627640689000,4.45968896484375,4.558512614664435,1.859069532060623,2.6279697917595506
1761340627650755800,4.469755859375,3.935170288196206,2.4651918436586855,3.9775218217134474
1761340627660822800,4.47982275390625,2.0931974368870256,2.316588697513193,4.771488718129694
1761340627670891000,4.48989111328125,-1.2164929282903671,2.1391545936807987,4.310895698189735
1761340627680958000,4.4999580078125,-6.296938582259417,2.395609042736143,2.6211434528708457
1761340627691026000,4.51002587890625,-10.350319654816388,2.7142791249468923,0.7438410756357013
1761340627701092900,4.5200927734375,-12.502072156524658,2.232969041801244,0.6454363771155476
1761340627711160000,4.53016015625,-13.253580259656905,1.753985209646076,2.159147580395639
1761340627721227800,4.540227783203125,-14.125226315820216,2.5048446396112443,3.550570082351565
1761340627731295000,4.550294921875,-16.624577618712184,3.6253877151876686,3.903789646026492
1761340627741362000,4.56036181640625,-19.191929860162734,3.7929029209434986,1.9479530996501444
1761340627751430100,4.57043017578125,-19.609084428131577,-1.2986018871784208,-2.34687189983502
1761340627761497000,4.5804970703125,-15.897365752446651,-15.450557219970225,-11.819555172032118
1761340627771564000,4.59056396484375,-13.491082024830579,-14.81264159374833,-19.755885931682585
1761340627781632000,4.600632080078125,-19.833566552734375,-1.7228886451147496,-14.263288048076628
1761340627791699000,4.610698974609375,-22.619014432621,-2.7546087972477076,-0.8339457825180142
1761340627801766000,4.620765869140625,-15.655876378941535,-3.0583357234790918,3.5889433598875997
1761340627811833900,4.630833740234375,-7.418383575111627,-0.3103755704656243,1.659736169500649
1761340627821900800,4.64090087890625,-3.330907340729236,1.1695280557587742,3.197448133832216
1761340627831968000,4.650968017578125,-1.6354530843764543,1.3744921176820992,5.651127818873524
1761340627842036000,4.661035888671875,-0.6288064370930194,1.4197946099594234,6.1270396962374445
1761340627852103000,4.67110302734375,-0.11446283000409603,1.1471718470439314,5.188174791803956
1761340627862169900,4.681169921875,-0.8901870905041694,2.2105706013798714,4.10275212944746
1761340627872237800,4.69123779296875,0.09072481154203414,2.208450102094561,3.29518545448482
1761340627882305000,4.701304931640625,0.3108300362348556,1.3095588961310685,2.227448963205516
1761340627892372700,4.711372802734375,0.33543373161554335,1.296631317757815,2.001424723727256
1761340627902440200,4.721440185546875,1.44601363158226,2.175941478808224,1.4715201210215687
1761340627912507100,4.731507080078125,1.8963684583634137,1.9020961883604526,1.1823628412820397
1761340627922575000,4.7415751953125,2.1368091995984315,1.831806115951389,1.2550282645203172
1761340627932642000,4.75164208984375,2.671743759295344,1.8691802994474767,1.7014958746045827
1761340627942709000,4.761708984375,3.619834757235646,1.6002692505314946,2.3524049840427934
1761340627952777000,4.77177685546875,5.020020119100809,1.4795733713567256,2.6332097382396458
1761340627962844000,4.781843994140625,6.097217389425635,1.1860919448077678,2.4104345636852083
1761340627972910800,4.791910888671875,6.796511905717849,0.7297108434744178,1.7724476257927715
1761340627982979000,4.80197900390625,7.31084206880331,0.23611776346936822,0.9445720300339162
1761340627993046000,4.8120458984375,7.381324302783608,-0.1614501335632056,-0.23128990492150187
1761340628003113000,4.822113037109375,7.303171388044953,-0.5503565852344036,-1.7262040532730518
1761340628013181000,4.832180908203125,6.767303346890211,-1.4697757615722715,-3.1887638921171426
1761340628023248000,4.842247802734375,5.127467517384886,-2.1455857957720754,-4.697872862298786
1761340628033314800,4.852314697265625,4.563431950888037,-1.8141431796193122,-4.4469197871387
1761340628043382800,4.8623828125,4.266120152395963,-1.0214400925938039,-2.6284371170103547
1761340628053450000,4.872449951171875,3.392111458754539,-0.10548705799654126,-0.8378742810733616
1761340628063517000,4.882516845703125,3.016156916180253,0.5816152084596454,0.6615757571421563
1761340628073585200,4.892585205078125,2.9608856953352687,0.7019513144113123,1.520794001147896
1761340628083652000,4.902652099609375,2.577020818027854,0.3533719046924263,1.1135679758667945
1761340628093719000,4.912718994140625,1.7661504253447056,0.08087715207077563,0.48373351090028877
1761340628103787000,4.922787109375,0.5566098004102706,0.09446370580941438,0.05059299990087747
1761340628113854000,4.93285400390625,-0.4397761496216058,0.21566373511403797,-0.4703105502255261
1761340628123922000,4.942921875,-0.8563204767376184,0.4303212157949805,-0.5360447128958999
1761340628133988900,4.95298876953125,-1.5079770435422657,0.7707437686737626,-0.6146680216252803
1761340628144055800,4.963055908203125,-2.359427868416905,1.025863754254952,-0.9309238823011518
1761340628154124000,4.9731240234375,-3.3918460858166215,1.1314234390962867,-1.0558356256052852
1761340628164191000,4.98319091796875,-4.37461384486258,1.3981740220427512,-1.0429217834964395
1761340628174258000,4.9932578125,-5.260668365606666,1.630418012818694,-1.1345850449323653
1761340628184326000,5.003325927734375,-5.525152245730161,1.7353925912484525,-1.4136504081159829
1761340628194392800,5.013392822265625,-4.558444225603342,1.4435219608969985,-1.5782205003306269
1761340628204460000,5.0234599609375,-2.899963316860795,0.8989419863026589,-1.521096637356281
1761340628214527700,5.03352783203125,-1.477722190532088,0.5587601103119552,-1.3353520935572682
1761340628224595000,5.043594970703125,-0.8672901990413665,0.5024381383050233,-0.9015222851194441
1761340628234662100,5.053662109375,-0.5454968702435493,0.7180475859485567,-0.1694128560706973
1761340628244730000,5.063730224609375,-0.13936463154852388,0.885743555098772,0.39528424307480453
1761340628254797000,5.073797119140625,0.1224853929400444,0.9116730191905051,0.6409354124344885
1761340628264864000,5.083864013671875,0.20095336497724056,0.8443344900634139,0.7649659889899194
1761340628274932000,5.093931884765625,0.2938303861171007,0.5954580750469118,0.6479638497665524
1761340628284999000,5.1039990234375,0.9642840078502893,0.2721908012390137,0.4199151187233627
1761340628295065900,5.11406591796875,1.971868812766671,-0.1922977648347616,0.4333380793981254
1761340628305134000,5.124134033203125,2.7785522751539946,-0.6214105546880513,0.7092315345473587
1761340628315201000,5.134200927734375,3.235600462093949,-0.765581052148342,1.0037906733304263
1761340628325268000,5.14426806640625,3.14721607619822,-0.8197984530914575,1.3184849837779997
1761340628335336000,5.1543359375,2.3590619577139615,-0.9034009384728967,1.310820586629957
1761340628345403000,5.16440283203125,1.4914613775491714,-0.9138065240878611,1.0682653374589979
1761340628355469800,5.1744697265625,0.8365835106104612,-1.146571762258932,0.8425326282732188
1761340628365537800,5.184537841796875,0.2285702706992626,-1.2478273932307957,0.6120002637207508
1761340628375605000,5.19460498046875,-0.3885825534790754,-1.3491896263822913,0.21686638890206814
1761340628385672000,5.204671875,-0.5253028079986573,-1.359214469051361,-0.306749635053426
1761340628395740200,5.214740234375,0.02182955449223518,-1.429997147282958,-0.4563312708422541
1761340628405807000,5.22480712890625,0.36590310415923594,-1.5135681415475903,-0.4141811051160097
1761340628415875000,5.234875,0.17415069824755192,-1.3887518214419483,-0.5250245755791664
1761340628425942000,5.24494189453125,-0.2359042668491602,-1.0299551152218132,-0.48087505272924896
1761340628436009000,5.255009033203125,-0.6854577141195535,-0.582598301212862,-0.16079188885018228
1761340628446077000,5.265076904296875,-1.2260925312846898,-0.22307532654479145,-0.0911579422622919
1761340628456144000,5.275143798828125,-1.6285031191080808,-0.005941518878191709,-0.28694413373470307
1761340628466210800,5.2852109375,-1.6880805127143859,0.11063187353909015,-0.4570762439906597
1761340628476279000,5.295279052734375,-1.2980857543498276,0.21030673812553285,-0.6416165265664457
1761340628486346000,5.305345947265625,-0.6921849765479564,0.17436594843342898,-0.8346751927711069
1761340628496413000,5.315412841796875,-0.20444588326811788,0.14424436641409993,-0.9567674947403371
1761340628506481000,5.32548095703125,0.2106149272918701,0.26174641798362136,-0.8576014564588665
1761340628516547800,5.3355478515625,0.46476212231814856,0.3622446547169238,-0.6153542503237724
1761340628526614800,5.34561474609375,0.5238555317997932,0.37460159359537065,-0.25793621204569933
1761340628536682800,5.355682861328125,0.33652912563681603,0.39792058292776344,0.06866787803471087
1761340628546750000,5.36575,0.024175240835547444,0.45785687297433614,0.35228827417418357
1761340628556817200,5.375817138671875,-0.3381850761502981,0.6717688690502196,0.4737402324132621
1761340628566885000,5.385885009765625,-0.5615916804760694,0.9114295658234506,0.7573382705904543
1761340628576952300,5.395952392578125,-0.42708851748406884,0.8097481106549501,1.0860961777038871
1761340628587019300,5.406019287109375,-0.10152677606344222,0.41318771016448735,0.8981680062554777
1761340628597087200,5.416087158203125,0.3260229291915893,0.10792290684133768,0.4346883249633014
1761340628607154200,5.426154296875,0.4962012166768312,-0.121532183868438,0.17987609015703201
1761340628617221400,5.436221435546875,0.5242214425027371,-0.2368853868409991,0.02142345790937543
1761340628627289300,5.446289306640625,0.48281391183733935,-0.2043050134927034,-0.21785803028792142
1761340628637356300,5.456356201171875,0.41452246589958663,-0.07517506797164678,-0.33704671977013345
1761340628647423200,5.46642333984375,0.3495177865475416,0.04893354225605726,-0.30967019867524503
1761340628657491200,5.4764912109375,0.3856973534315824,0.01803600742816925,-0.1989594146810472
1761340628667558100,5.48655810546875,0.4528139103710651,-0.0631856472313404,-0.19332228557690978
1761340628677625000,5.496625,0.5370926145136357,-0.056379328217357395,-0.1934764532253146
1761340628687693300,5.506693359375,0.7017927628487348,-0.06580649725422263,-0.11681626126244664
1761340628697760300,5.51676025390625,0.8527525551229714,-0.2672569980986416,-0.17587722977921366
1761340628707827500,5.526827392578125,1.0461199950158595,-0.45167000103294846,-0.14826689992845057
1761340628717895200,5.536895263671875,1.3123124326229094,-0.5841746836841106,-0.063887658020854
1761340628727962400,5.54696240234375,1.6591116078615187,-0.7095880929000675,0.13412380828559398
1761340628738029300,5.557029296875,2.048651023674011,-0.8359272386588156,0.334458018451184
1761340628748097300,5.56709716796875,2.2400907103747127,-0.805876529918611,0.39954496925920246
1761340628758164200,5.577164306640625,2.323607197973132,-0.8963710398361087,0.4646025478422641
1761340628768231200,5.587231201171875,2.3653753786444662,-1.094869266746193,0.40477220238819717
1761340628778299400,5.59729931640625,2.296353864866495,-1.223637100956589,0.10239961337521672
1761340628788366300,5.607366455078125,1.9978531488507985,-1.3247837916612624,-0.30904446799233554
1761340628798433300,5.617433349609375,1.6771090368449686,-1.1217131422691047,-0.34573958318307996
1761340628808501200,5.627501220703125,1.3073685464799403,-0.6577984305605292,-0.1041445573464036
1761340628818568200,5.637568115234375,0.8485667938709258,-0.4065978103801608,-0.11487740215435624
1761340628828635100,5.64763525390625,0.4404927734583616,-0.4200193097501993,-0.20335180442109702
1761340628838703000,5.657703125,-0.18641046036183834,-0.4891524672091007,-0.2870721440285444
1761340628848770000,5.66777001953125,-1.6848311555296183,-0.40051439881324763,-0.3584722235061228
1761340628858837200,5.677837158203125,-3.713773270127177,-0.04677914070114493,-0.5107227862432598
1761340628868905200,5.6879052734375,-5.753053238865733,0.43591596706211566,-0.4710764200314879
1761340628878972400,5.697972412109375,-7.641808884137869,0.7288824298262596,-0.5964100420095027
1761340628889040100,5.7080400390625,-8.410109132117032,0.9642144497454166,-0.9381959191307425
1761340628899107300,5.718107421875,-7.138353750810027,0.8016727946184575,-1.2296395562417803
1761340628909174300,5.72817431640625,-4.750051085564494,0.3746745857663452,-1.1766481168970464
1761340628919242200,5.7382421875,-2.7106922063708305,0.1988657450482249,-0.8726523105964064
1761340628929309200,5.74830908203125,-1.3730237986952065,0.08086451178491115,-0.5941456042088568
1761340628939376400,5.75837646484375,-0.7178320435017347,0.019744857172667978,-0.5099750366158783
1761340628949444400,5.7684443359375,-0.4219312808513641,0.03277794174700975,-0.4974621765233576
1761340628959511300,5.77851123046875,-0.14779694432914256,0.022652195986732838,-0.3627110301196575
1761340628969578200,5.788578125,0.42694940127432346,-0.09440744557753204,-0.164816175930202
1761340628979646200,5.798646240234375,1.1558365072757004,-0.3556936256382614,-0.06026069969534874
1761340628989713200,5.808713134765625,1.7231582558363676,-0.6908332696780562,-0.09026121261827647
1761340628999780000,5.818780029296875,1.9685405451267957,-0.6888956526789813,-0.08624401286616921
1761340629009848300,5.828848388671875,2.199938732728362,-0.5611166833754628,0.15095212042443454
1761340629019915300,5.838915283203125,2.4806676452100276,-0.6400417515303939,0.39261670436598356
1761340629029982200,5.848982177734375,2.8322774356007576,-0.6743127083141356,0.24520145283080635
1761340629040050200,5.85905029296875,3.001550298678875,-0.6518889142557979,0.2765470967523753
1761340629050117400,5.869117431640625,3.466995142564177,-0.812068735622242,0.4114280800808221
1761340629060184300,5.879184326171875,3.9206665465474124,-1.2055984631799161,0.3137049340840429
1761340629070252300,5.889252197265625,4.017527668887377,-1.4091954745337367,0.04031688588447869
1761340629080319200,5.8993193359375,3.7411248029112816,-1.3149357668638229,-0.23638335560299456
1761340629090386200,5.90938623046875,3.238243670079112,-0.9379948436006903,-0.391467607396096
1761340629100454400,5.919454345703125,3.0589439185053107,-0.5812821771129966,-0.04678944289945066
1761340629110521300,5.929521240234375,3.4062720860540865,-0.5489573859609663,0.33959085129499433
1761340629120588300,5.93958837890625,3.9493531273275613,-0.54543958709836,0.18819369051679968
1761340629130656300,5.94965625,4.842495560505986,-0.41949046357050535,-0.027701588330790398
1761340629140723200,5.95972314453125,5.967444762086868,-0.6671447894461453,-0.10318309190310537
1761340629150790100,5.9697900390625,6.697818307253718,-1.0422348241455852,-0.2823667793491855
1761340629160858000,5.979858154296875,6.946653951868415,-1.1610696586888283,-0.43976603008639065
1761340629170925000,5.989925048828125,6.890996362054348,-1.0554315748490393,-0.16863175216298548
1761340629180992000,5.999991943359375,5.706967779517173,-0.7902803899232298,0.23442940852362662
1761340629191060200,6.010060302734375,3.145123487833142,0.2699737097114324,0.23697114716200157
1761340629201127200,6.020127197265625,0.7362170104980469,1.8053792967967688,0.5749307987922803
1761340629211194400,6.0301943359375,-1.434998901093006,2.9652368762820958,1.6755983400210737
1761340629221262300,6.040262451171875,-4.077900596785545,3.7904730634480712,2.545419811105728
1761340629231329300,6.050329345703125,-7.905562696421146,3.9535315820559855,3.127902596180141
1761340629241396200,6.060396240234375,-14.732292045748233,3.8225790972828864,2.403860592122376
1761340629251464200,6.070464111328125,-22.648822710907456,4.570471055744588,0.06943904507029801
1761340629261531400,6.080531494140625,-28.295416393482682,5.619513952469825,-1.937892308884859
1761340629271598300,6.090598388671875,-30.20429186671972,5.111478505614399,-3.3074171595484017
1761340629281666300,6.100666259765625,-27.19657603114843,1.1176727808371185,-6.346421282830834
1761340629291733200,6.110733154296875,-20.412666417372225,-7.520438758963346,-13.536050462847948
1761340629301800200,6.12080029296875,-15.232633430969715,-8.654991070669888,-17.784108888852597
1761340629311868200,6.1308681640625,-13.150433188915251,-4.952433022040128,-13.325685710924864
1761340629321935000,6.14093505859375,-11.324700109267233,-1.0094440229170023,-4.060140775950253
1761340629332002000,6.151001953125,-8.816028604844211,2.2886264854848384,3.0949034128978847
1761340629342070300,6.1610703125,-6.099876379501819,3.235247995394468,4.961719905823469
1761340629352137200,6.17113720703125,-3.5647137585163113,2.993355009524524,5.595096135050058
1761340629362204400,6.181204345703125,-1.4644734173804521,1.9769424627691505,4.912283382481336
1761340629372272000,6.191272216796875,0.026750644281506537,2.013716196154058,3.6806048677578564
1761340629382339300,6.20133935546875,1.4931652588576076,2.462061144417524,2.9906998188406226
1761340629392406300,6.21140625,3.4952684663683176,2.8565672427266833,2.7599486969709393
1761340629402474200,6.22147412109375,5.939056871992349,3.1676720042496918,2.6065716144219038
1761340629412541200,6.231541259765625,8.309615790754556,3.2149203698977824,2.421596155299246
1761340629422608100,6.241608154296875,10.30432596540451,3.0679210056871176,2.4041724345505235
1761340629432676400,6.25167626953125,11.794804177135228,2.6804148492679,2.4508288256548343
1761340629442743300,6.261743408203125,13.081139287936686,2.3522046391651035,2.658413153079152
1761340629452810200,6.271810302734375,14.400180736553668,2.053246242509782,2.8471473802134395
1761340629462878200,6.281878173828125,15.597314299857615,1.5469241754435001,2.818992129831016
1761340629472945200,6.291945068359375,16.663505607521532,1.0128927020661533,2.8460455564513802
1761340629483013000,6.30201318359375,17.26193444200754,0.41835711215902116,2.849071041752398
1761340629493080000,6.312080078125,17.08181051456928,0.05364303512126207,2.7344036290869114
1761340629503147000,6.32214697265625,16.01277141625881,0.035195524282753465,2.420874855287373
1761340629513215200,6.33221533203125,14.34090670980811,-0.06262691737003624,2.1977662109948692
1761340629523282200,6.3422822265625,12.190689162582158,-0.20112572586946187,1.7015655788399278
1761340629533349400,6.352349365234375,10.276417383259535,-0.5440017363149673,1.1169814375720917
1761340629543417000,6.3624169921875,8.736761006861924,-0.9610073973324149,0.5899915898019448
1761340629553484300,6.372484375,7.608764692670106,-1.1493628542821854,0.13234594842549413
1761340629563551200,6.38255126953125,6.5992907130062575,-1.202428016450256,0.1567852835573256
1761340629573619200,6.392619140625,5.515822691848874,-0.9852551919475198,0.5271095651596784
1761340629583686100,6.40268603515625,4.5085979524165385,-0.6880974149733782,0.9040861442580819
1761340629593753000,6.412753173828125,3.86218513148427,-0.6333294674754142,1.0927496442437172
1761340629603821000,6.422821044921875,3.9397184530198572,-0.7944407975383102,1.3482231194376946
1761340629613888000,6.432887939453125,4.6150563396632664,-1.124473400762677,1.5433238128639757
1761340629623955000,6.442954833984375,5.599463098087907,-1.240492228037119,1.7761871045820414
1761340629634023200,6.453023193359375,6.463365992778539,-1.1023944015540181,2.054444220122695
1761340629644090000,6.463090087890625,6.722309189909696,-1.027284361642599,2.106899214503169
1761340629654157000,6.473156982421875,6.347400356996059,-1.0843510876022278,1.706056898909807
1761340629664225000,6.48322509765625,5.56590394283533,-1.7603430542401968,0.6826508400052785
1761340629674292000,6.4932919921875,4.288405633962154,-2.9682956793308257,-1.1946757218230515
1761340629684359200,6.503359130859375,3.349048562097549,-3.275634658579528,-3.076753131440282
1761340629694427100,6.51342724609375,2.5425094766169787,-2.1242071999177337,-3.608825579704344
1761340629704494300,6.523494384765625,1.1979624153435229,-0.5618444861933589,-1.8927590356945991
1761340629714561300,6.533561279296875,-1.0138935496717691,1.4082337898947297,0.333324374778755
1761340629724629200,6.543629150390625,-3.2807232138901945,3.336285526636243,1.936114777818322
1761340629734696200,6.5536962890625,-4.727783139654994,2.9503549489706753,2.33561663858816
1761340629744763100,6.56376318359375,-6.18734365055263,1.9659959752105176,1.5101523417547345
1761340629754831000,6.5738310546875,-7.962312757647037,1.5390781381182372,0.9829572172034531
1761340629764898000,6.58389794921875,-10.82010924990773,1.0915466981947421,1.6914014738306402
1761340629774965000,6.593965087890625,-14.751167426609992,1.4398358197301626,2.02268699972555
1761340629785033200,6.604033203125,-18.016000412929056,2.294343109565973,1.3732919481121002
1761340629795100200,6.61410009765625,-20.461315005207062,1.7335896334797143,0.07337948522518854
1761340629805167000,6.6241669921875,-23.945678046679497,-1.5371543304488062,-3.7874981392905114
1761340629815235000,6.634235107421875,-27.498551729798315,-5.328405684792995,-11.590540664696693
1761340629825302000,6.644302001953125,-28.029891479873655,-7.5765972840368745,-19.141159457868337
1761340629835369200,6.654369140625,-24.794609582209585,-7.3450389374375336,-20.370347032558918
1761340629845437000,6.66443701171875,-18.381251775181294,-4.1996363404020665,-14.160349067127704
1761340629855504100,6.674504150390625,-12.08741934224367,-0.6301965762771665,-6.744919665646552
1761340629865571000,6.684571044921875,-7.762837648528814,1.915198831039667,-1.4443069737948477
1761340629875639300,6.694639404296875,-4.920194886258244,3.3463869416728613,1.2073738753546028
1761340629885706200,6.704706298828125,-2.780804437994957,3.5865713700592514,2.4830264832958577
1761340629895773200,6.714773193359375,-1.166570667257905,2.3684121159918603,2.477291154514253
1761340629905841200,6.724841064453125,-0.4813976152986288,1.7936279225960372,2.149399947232753
1761340629915908000,6.734908203125,-0.7178630231618881,2.303449229954928,2.0167378820627926
1761340629925975000,6.74497509765625,-1.5893401524990796,3.4566420908540487,2.520317226292193
1761340629936043000,6.75504296875,-2.629831786239147,4.978029235589504,3.0270106108888983
1761340629946110000,6.76510986328125,-3.2998663057774302,5.976649228283763,3.894798822580278
1761340629956177200,6.77517724609375,-2.9390514646679162,5.800763669067621,4.793951602089405
1761340629966245000,6.7852451171875,-1.6341420017778872,4.772698678441345,4.674111755222082
1761340629976312000,6.79531201171875,0.28783669866025446,3.2890438829898834,3.4015462265759706
1761340629986379300,6.805379150390625,2.857739793637395,1.9795038376897571,1.6630717436641453
1761340629996447000,6.815447021484375,5.743650619748235,0.8809072209835052,0.48810588076561684
1761340630006514200,6.82551416015625,8.202161378207803,-0.02774447762444615,0.11574015646353364
1761340630016581000,6.8355810546875,10.126716651135682,-0.6116445090856403,0.6495931314688176
1761340630026649300,6.8456494140625,11.432212389481068,-0.6572159544974565,1.6912857384964823
1761340630036716300,6.85571630859375,11.853215449571609,-0.47366029904484747,2.5600685141831634
1761340630046783200,6.865783203125,11.479866121059656,-0.6269373552855104,2.815783396917581
1761340630056851200,6.875851318359375,10.884891810941696,-1.019764049140364,2.3797394195616244
1761340630066918100,6.885918212890625,10.615532433736323,-1.4608980431117116,1.7817574520602821
1761340630076985000,6.895985107421875,10.549204396826028,-2.0515949681714174,1.1950481353320181
1761340630087053000,6.906052978515625,10.599320134603976,-2.5255115800648924,0.4993213945239782
1761340630097120000,6.9161201171875,10.606516768109797,-2.838523636513948,-0.07515614407546818
1761340630107187000,6.92618701171875,10.146872134935855,-3.2737747099265455,-0.8214495812993496
1761340630117255200,6.936255126953125,9.803696410891414,-3.4160707187518478,-0.969244406736642
1761340630127322000,6.946322021484375,9.429771912840009,-2.68280145214349,-0.310897402382642
1761340630137389000,6.95638916015625,8.28288618926108,-2.3880872689291834,-0.08973967296220361
1761340630147457000,6.96645703125,7.139370818898081,-2.266899806845188,0.13220854924879968
1761340630157524200,6.976524169921875,6.2878288086086505,-2.075288562969863,0.30796821706295013
1761340630167591200,6.986591064453125,5.687275821575522,-2.0338331015095115,0.43911125597208733
1761340630177659100,6.9966591796875,5.3954912620723245,-2.1176295750930905,0.615249109448865
1761340630187726000,7.00672607421875,4.933253689795732,-2.3490172413006425,0.48760545696280894
1761340630197793000,7.01679296875,4.760504675039649,-2.1676076579660175,-0.02734568756520748
1761340630207861200,7.026861328125,5.485996877905726,-2.407804069051146,-0.20885661238245665
1761340630217928200,7.03692822265625,5.579060946050286,-2.7121652015328404,-0.4582143811751157
1761340630227995100,7.0469951171875,6.5663312772125,-2.304640047174692,-2.155857306678593
1761340630238063000,7.05706298828125,6.873923062178492,-3.3463863571509718,-2.4389772059500214
1761340630248130000,7.067130126953125,6.484916145807504,-3.5532787567883726,-1.2926520388633012
1761340630258197000,7.077197021484375,5.988958674758672,-2.4444004000425337,0.4707595361020416
1761340630268265000,7.087264892578125,6.452019838377833,-1.0199236236162483,2.246557860562205
1761340630278332200,7.097332275390625,5.814457263377308,-0.1852132134012878,3.015809417916834
1761340630288399000,7.107399169921875,3.478424299073219,0.2582080147244036,3.1802915395870803
1761340630298467000,7.117467041015625,0.6710901660710573,0.7239945116542279,3.4484921021461483
1761340630308534300,7.1275341796875,-1.9174767128437757,1.0123749618023634,3.6516722032621503
1761340630318601200,7.137601318359375,-4.559525006577372,1.4487339964568615,2.5949267693355678
1761340630328669200,7.147669189453125,-3.965830214875936,1.7539784876443445,1.4989837358780205
1761340630338736000,7.157736083984375,-3.7040012331753966,2.0674543622128665,1.716096646887064
1761340630348803000,7.167802978515625,-5.775111925938725,2.3445870037682353,0.8769001772992312
1761340630358871300,7.177871337890625,-9.407183648934959,2.5798008041352034,0.15862747735790908
1761340630368938200,7.187938232421875,-13.877349287104606,3.7142566697299477,-0.3517598663859069
1761340630379005200,7.198005126953125,-17.817358832025526,4.843521688683331,-1.099307760650292
1761340630389073200,7.2080732421875,-19.267948100960254,4.788146130681038,-1.7254601030379533
1761340630399140000,7.21814013671875,-18.697213913607595,4.10495226984024,-2.1043772948101163
1761340630409207000,7.22820703125,-16.597817037558556,3.542846794623136,-1.980852914211154
1761340630419275000,7.23827490234375,-14.134884955525397,2.8221421182945368,-1.8874317031919956
1761340630429342000,7.248342041015625,-12.106881583082675,2.044743348710984,-1.7320964723125098
1761340630439409000,7.258408935546875,-10.599510688740015,1.4968706892468033,-1.5530812367685138
1761340630449477000,7.26847705078125,-9.154097945660352,1.0912421622902155,-1.5096512603648007
1761340630459544000,7.2785439453125,-7.343478263992071,0.48077699918225403,-1.354601568428427
1761340630469611300,7.288611328125,-5.428716655325889,-0.2482591599009931,-0.8548357180725783
1761340630479679200,7.29867919921875,-3.6604870856195686,-1.0433847248330712,-0.3355442793179303
1761340630489746200,7.30874609375,-2.17578979537785,-1.924102268463373,0.24318083372339605
1761340630499813000,7.318813232421875,-0.7691928129047155,-2.584541861182451,0.534995642234385
1761340630509881000,7.328881103515625,-0.3491337556660175,-2.423283962255716,1.1064010068468748
1761340630519948000,7.338947998046875,0.13166004852056504,-1.8765189717724917,2.3179142470285297
1761340630530015200,7.34901513671875,-0.3655179042339325,-1.652956592363119,2.9633085385680196
1761340630540083200,7.359083251953125,-2.3090777373611924,-1.737381719239056,2.106816796916723
1761340630550150100,7.369150146484375,-4.017736927723885,-1.629482193273306,0.7746856381673365
1761340630560216800,7.379216796875,-4.337445851463079,-1.39859575458616,-0.042785906346514815
1761340630570284800,7.389284912109375,-3.4489345852166413,-1.0586527288526295,-0.4848810004349798
1761340630580351700,7.399351806640625,-1.7883698559373615,-0.9380880748420953,-0.837397530407086
1761340630590418700,7.409418701171875,0.348502472025156,-1.0974198280118406,-1.0395611479569227
1761340630600486000,7.41948583984375,2.4642250444531437,-1.1852557862445712,-1.2075015933874993
1761340630610553900,7.429553955078125,4.360121209129691,-1.297192020380497,-1.3630913104847073
1761340630620620800,7.439620849609375,5.760823872867226,-1.406649004921317,-1.3035641857609153
1761340630630689000,7.44968896484375,6.544404692086577,-1.3858254126012324,-1.1767474856182931
1761340630640756000,7.459755859375,6.85484894387424,-1.3190361879199743,-1.0564892672084272
1761340630650823000,7.469822998046875,6.667893709111214,-1.2251016205511986,-0.787591077774018
1761340630660889900,7.479889892578125,6.177684426325559,-1.1579844790898264,-0.32117738885656
1761340630670957800,7.489957763671875,5.873046814990043,-1.1314409016877411,0.11337481557168066
1761340630681024800,7.500024658203125,5.5049651977479455,-1.2360593601562082,0.39985125872939825
1761340630691091700,7.510091796875,4.841006198731065,-1.433073047596961,0.43946423412822183
1761340630701159700,7.52015966796875,4.157997631329298,-1.4299474629223345,0.5320476791489869
1761340630711227000,7.530226806640625,3.339749987876415,-1.4982723727382719,0.5346418603606522
1761340630721293800,7.5402939453125,2.5560136858344076,-1.4047336728192865,0.35648126888461407
1761340630731361800,7.55036181640625,2.035810831323266,-1.3644867103658616,0.28641419157646597
1761340630741428700,7.5604287109375,1.751384233367443,-1.4797167253501713,0.27903686774149533
1761340630751496000,7.570495849609375,1.5247212575942277,-1.4540056532494723,0.16638817448727786
1761340630761564000,7.58056396484375,1.192180909332633,-1.2616501668781042,0.1142269754216075
1761340630771630800,7.590630859375,0.8092045052975416,-1.1395806612625718,0.058024465075880285
1761340630781697800,7.60069775390625,0.3139835318297148,-0.8961134118132292,-0.2775998206757009
1761340630791766000,7.61076611328125,-0.20593407599925995,-0.46674189795851706,-0.6993645858537405
1761340630801833000,7.6208330078125,-0.41592239582538604,-0.12945917747542263,-0.9269567322358488
1761340630811900000,7.63089990234375,-0.1900724900007248,0.0961319312825799,-0.8773333810847253
1761340630821968000,7.6409677734375,-0.08466682667732238,0.3044802288167178,-0.8590853383410721
1761340630832034800,7.651034912109375,-0.3524070782482624,0.4890862701050937,-0.8636104145500808
1761340630842101800,7.661101806640625,-0.9665455230414867,0.7412580734051764,-0.6770831959407776
1761340630852169700,7.671169677734375,-1.8428244997024534,1.1220564027488231,-0.26452428519912063
1761340630862236700,7.681236572265625,-2.8545360291600224,1.479868847171962,0.026688173504546282
1761340630872303600,7.6913037109375,-3.3938094948440787,1.7388982612818478,0.1470262522175908
1761340630882371800,7.701371826171875,-3.249095903483033,1.7243715771488843,0.23010559050776064
1761340630892438800,7.711438720703125,-2.828530065765977,1.6025694902978838,0.25417751709930597
1761340630902506000,7.721506103515625,-2.3515946905732155,1.4849375287383795,0.29110278778411447
1761340630912573700,7.73157373046875,-1.860247928190231,1.216382015261799,0.3192323922686279
1761340630922641000,7.741640869140625,-1.4655524447888135,0.9133481858611107,0.2510156190022826
1761340630932707800,7.751707763671875,-1.063603629258275,0.6713624071411788,-0.0006673778675496578
1761340630942775800,7.76177587890625,-0.5491548082292079,0.3035509851425886,-0.1911642307601869
1761340630952842800,7.7718427734375,-0.03067103259563446,-0.09284078078269958,-0.2648898305758834
1761340630962910000,7.781909912109375,0.4279612086653709,-0.44946299250796434,-0.31177374682575465
1761340630972978000,7.79197802734375,0.8071645239025353,-0.9013390375070274,-0.25756591742858287
1761340630983044900,7.802044921875,0.9738573073595762,-1.3258257019296287,-0.12762538617700336
1761340630993111800,7.81211181640625,1.0018687653571368,-1.6028426081508398,0.053394028796255585
1761340631003179800,7.8221796875,0.8500894733935594,-1.812435498918593,0.02137231224402785
1761340631013246700,7.832246826171875,0.7856184625267982,-1.873400255230069,-0.04973682146295905
1761340631023313700,7.842313720703125,0.8191630047321319,-1.793811170208454,-0.03044321518912911
1761340631033382000,7.8523818359375,0.9287854089677333,-1.5593426352508366,-0.049327071618288754
1761340631043448800,7.86244873046875,1.1238181517243384,-1.3910760266058146,-0.02785188352167606
1761340631053516000,7.87251611328125,1.278625851598382,-1.2471591385804115,-0.07833060939311981
1761340631063583700,7.882583740234375,1.3792413580358027,-1.0299453975453972,-0.12367109559327363
1761340631073651000,7.89265087890625,1.4026754251152276,-0.8218845386505127,-0.06789557848796247
1761340631083718000,7.9027177734375,1.1895476382195949,-0.6723787445768713,-0.13800970980823038
1761340631093785900,7.912785888671875,0.6724252140671014,-0.47641252036243675,-0.40479982104748485
1761340631103852800,7.922852783203125,0.3647363984674215,-0.21203779970183967,-0.501944874895364
1761340631113919700,7.932919677734375,0.36853812883794307,0.04355959413275123,-0.4114784220285713
1761340631123988000,7.942988037109375,0.33241116892397404,0.29373554744049907,-0.3736123633623123
1761340631134055000,7.953054931640625,0.4150163868963718,0.38618469855710863,-0.3658046122208237
1761340631144121900,7.963121826171875,0.6100123047739267,0.3464787111125886,-0.36250600906684993
1761340631154189800,7.97318994140625,0.63684361307621,0.23835823587253688,-0.7083937685489654
1761340631164256800,7.9832568359375,1.0570376948714255,0.20606194016262888,-1.179119329316169
1761340631174323700,7.99332373046875,1.270052084520459,0.1137795239150524,-0.9570438274636864
1761340631184391700,8.0033916015625,0.9301274712264537,0.12604732320532203,-0.9272210822604596
1761340631194458600,8.013458740234375,0.0958902314811945,0.0019920506000518797,-0.9250878696240484
1761340631204525800,8.02352587890625,-0.5443786798685789,-0.19380568517968058,-1.0119256105996668
1761340631214593000,8.033593017578125,-0.7721861495018005,-0.04747165300995111,-1.2858672010287642
