time,seconds_elapsed,z,y,x
1761340623261385500,0.080385498046875,0.3409947454929352,0.1915140300989151,0.32843390107154846
1761340623271453400,0.090453369140625,0.3674396276473999,0.20594149827957153,0.3356756865978241
1761340623281520400,0.100520263671875,0.33872276544570923,0.139126256108284,0.3109554350376129
1761340623291587300,0.11058740234375,0.21559123694896698,-0.02514633722603321,0.26240333914756775
1761340623301655300,0.1206552734375,-0.10559743642807007,-0.2856711447238922,0.19123327732086182
1761340623311722200,0.13072216796875,-0.46777352690696716,-0.6691959500312805,0.0934368222951889
1761340623321789200,0.1407890625,-0.8326382637023926,-0.9901883602142334,0.052961304783821106
1761340623331857400,0.150857421875,-1.1921894550323486,-1.022149920463562,0.21098436415195465
1761340623341924400,0.16092431640625,-1.4764379262924194,-0.828632116317749,0.5738965272903442
1761340623351992300,0.170992431640625,-1.6353931427001953,-0.3970361649990082,1.0464688539505005
1761340623362059300,0.181059326171875,-1.7104567289352417,0.18831545114517212,1.5318608283996582
1761340623372126500,0.19112646484375,-1.7348308563232422,0.8376418352127075,1.9798235893249512
1761340623382194200,0.201194091796875,-1.708026647567749,1.442528247833252,2.1922693252563477
1761340623392261400,0.211261474609375,-1.5970563888549805,1.7774080038070679,1.9864776134490967
1761340623402328300,0.221328369140625,-1.3934566974639893,1.7134380340576172,1.574150800704956
1761340623412396500,0.231396484375,-1.14531409740448,1.598235011100769,1.0096946954727173
1761340623422463500,0.24146337890625,-0.8934705853462219,1.7060651779174805,0.43834465742111206
1761340623432531500,0.251531494140625,-0.7082988023757935,2.001768112182617,-0.07199783623218536
1761340623442598400,0.261598388671875,-0.6269730925559998,2.3149116039276123,-0.5080606341362
1761340623452665300,0.271665283203125,-0.6131811141967773,2.5192720890045166,-0.8627210855484009
1761340623462733300,0.2817333984375,-0.6771292090415955,2.440505266189575,-1.1268233060836792
1761340623472800300,0.29180029296875,-0.788331925868988,2.1142561435699463,-1.283452033996582
1761340623482867200,0.3018671875,-0.7802838087081909,1.6673136949539185,-1.3189197778701782
1761340623492935400,0.311935302734375,-0.5495463609695435,1.047423243522644,-1.2033765316009521
1761340623503002400,0.32200244140625,-0.16263695061206818,0.12205327302217484,-0.9157000780105591
1761340623513070300,0.3320703125,0.2346964180469513,-0.6029012203216553,-0.4498608410358429
1761340623523137300,0.34213720703125,0.4411933720111847,-0.8041062355041504,0.05936167389154434
1761340623533204200,0.352204345703125,0.501252293586731,-0.6901429295539856,0.4625436067581177
1761340623543272200,0.362272216796875,0.479013055562973,-0.528056263923645,0.7432226538658142
1761340623553340000,0.37233984375,0.34421777725219727,-0.5317602753639221,0.9472529292106628
1761340623563406800,0.38240673828125,0.05423707887530327,-0.55262291431427,1.0361878871917725
1761340623573474800,0.392474853515625,-0.33774009346961975,-0.5387970805168152,1.0675584077835083
1761340623583541800,0.402541748046875,-0.7001854181289673,-0.76101154088974,1.0037754774093628
1761340623593610000,0.41260986328125,-1.0026408433914185,-0.9772238731384277,0.8196290731430054
1761340623603677000,0.422677001953125,-1.0605965852737427,-0.8195742964744568,0.790522038936615
1761340623613744000,0.432744140625,-0.849315345287323,-0.6216367483139038,0.8095488548278809
1761340623623811800,0.442811767578125,-0.5402589440345764,-0.8478744029998779,0.8993668556213379
1761340623633879000,0.452879150390625,-0.23865154385566711,-1.436042070388794,0.8430046439170837
1761340623643946000,0.462946044921875,0.07102267444133759,-1.819982647895813,0.5091398358345032
1761340623654014000,0.473013916015625,0.47083503007888794,-1.7715144157409668,0.15752644836902618
1761340623664081000,0.483080810546875,0.9042527675628662,-1.3934600353240967,-0.028156334534287453
1761340623674149000,0.493149169921875,1.0608381032943726,-1.3020107746124268,-0.09076456725597382
1761340623684216000,0.503216064453125,0.9419402480125427,-1.4323954582214355,-0.24184702336788177
1761340623694283000,0.513282958984375,0.7698683142662048,-1.5969964265823364,-0.7176063060760498
1761340623704351000,0.52335107421875,0.3034766614437103,-2.1068737506866455,-1.7262334823608398
1761340623714418000,0.53341796875,-0.10492902249097824,-2.7016422748565674,-3.3135626316070557
1761340623724484900,0.54348486328125,0.11080566793680191,-2.9337680339813232,-4.976791858673096
1761340623734552800,0.553552734375,1.1653501987457275,-2.744967460632324,-5.91681432723999
1761340623744619800,0.563619873046875,2.8656821250915527,-2.6030023097991943,-5.573279857635498
1761340623754688000,0.57368798828125,3.940819025039673,-1.6247285604476929,-3.602712869644165
1761340623764755000,0.5837548828125,0.30269330739974976,2.238739013671875,-1.5423543453216553
1761340623774822000,0.59382177734375,-2.7895026206970215,1.3450099229812622,-1.1602238416671753
1761340623784889900,0.603889892578125,-1.3897297382354736,-0.27495211362838745,-0.05277365446090698
1761340623794956800,0.613956787109375,0.13956625759601593,0.16511063277721405,1.246936559677124
1761340623805024000,0.62402392578125,-0.001626830082386732,0.006011530756950378,1.3270947933197021
1761340623815092000,0.634092041015625,-0.1485741287469864,0.24249374866485596,1.2877960205078125
1761340623825159000,0.644158935546875,0.029922913759946823,0.6258562803268433,1.0479469299316406
1761340623835227100,0.65422705078125,0.010083885863423347,1.325453758239746,0.5997841358184814
1761340623845294000,0.664294189453125,0.18604505062103271,2.1013588905334473,0.27880987524986267
1761340623855361000,0.674361083984375,0.3271796703338623,2.565138339996338,-0.029167786240577698
1761340623865429000,0.684428955078125,0.3059998154640198,2.6909875869750977,-0.22476951777935028
1761340623875496000,0.694495849609375,0.18883627653121948,2.480879306793213,-0.24848642945289612
1761340623885563000,0.70456298828125,0.16061502695083618,1.710634469985962,-0.1492096483707428
1761340623895630800,0.714630859375,0.22879907488822937,0.5740025043487549,0.09640596807003021
1761340623905698000,0.724697998046875,0.36449962854385376,-0.4763573110103607,0.2990344166755676
1761340623915766000,0.73476611328125,0.49596962332725525,-1.0930014848709106,0.33073845505714417
1761340623925833000,0.7448330078125,0.6022307872772217,-1.1547883749008179,0.2828865051269531
1761340623935900000,0.75489990234375,0.6548498868942261,-0.8932170867919922,0.2446397840976715
1761340623945967900,0.7649677734375,0.6081271171569824,-0.5750218033790588,0.17519760131835938
1761340623956034800,0.775034912109375,0.4614342749118805,-0.25089505314826965,0.030008967965841293
1761340623966101800,0.785101806640625,0.2721269428730011,0.08168823271989822,-0.19289015233516693
1761340623976170000,0.795169921875,0.12148935347795486,0.4461970627307892,-0.4085969924926758
1761340623986237000,0.80523681640625,0.000130433589220047,0.6602023243904114,-0.5001170635223389
1761340623996305000,0.815304931640625,-0.10620974749326706,0.6361667513847351,-0.457991361618042
1761340624006372000,0.8253720703125,-0.17400451004505157,0.43273720145225525,-0.3409470021724701
1761340624016439000,0.83543896484375,-0.2196095734834671,0.16821856796741486,-0.18011975288391113
1761340624026507000,0.845507080078125,-0.24218198657035828,-0.13151302933692932,0.009627535939216614
1761340624036574000,0.855573974609375,-0.2628709077835083,-0.36007291078567505,0.21963083744049072
1761340624046641000,0.865640869140625,-0.3005964457988739,-0.4018259644508362,0.3630894720554352
1761340624056709000,0.875709228515625,-0.38257333636283875,-0.31456562876701355,0.37988603115081787
1761340624066776000,0.885776123046875,-0.5154675245285034,-0.2101697027683258,0.32305708527565
1761340624076844000,0.895843994140625,-0.6775202751159668,-0.1966850310564041,0.23641513288021088
1761340624086911000,0.905910888671875,-0.9035115838050842,-0.2562732696533203,0.15086454153060913
1761340624096978000,0.91597802734375,-1.1460926532745361,-0.17236000299453735,-0.03927382081747055
1761340624107046000,0.9260458984375,-1.3167022466659546,0.3231559991836548,-0.31636589765548706
1761340624117112800,0.93611279296875,-1.3234739303588867,1.166008710861206,-0.5902982354164124
1761340624127179800,0.9461796875,-1.008056879043579,2.1292803287506104,-0.841147780418396
1761340624137248000,0.956248046875,-0.532524824142456,2.898792028427124,-0.930329442024231
1761340624147315000,0.96631494140625,-0.24952131509780884,3.2955734729766846,-0.7815186977386475
1761340624157383000,0.9763828125,-0.24883106350898743,3.2537591457366943,-0.41091594099998474
1761340624167449900,0.986449951171875,-0.4139670133590698,2.584538698196411,-0.06085514277219772
1761340624177517000,0.99651708984375,-0.7099633812904358,1.2510981559753418,-0.12517249584197998
1761340624187584800,1.006584716796875,-0.9205634593963623,-0.578213095664978,-0.6274340152740479
1761340624197652000,1.01665185546875,-0.7109668850898743,-2.300565719604492,-1.2349869012832642
1761340624207719000,1.026718994140625,0.018346183001995087,-3.5979273319244385,-1.5114285945892334
1761340624217787100,1.036787109375,1.1214715242385864,-4.44627046585083,-0.9549221396446228
1761340624227854000,1.04685400390625,2.07144832611084,-4.823215961456299,0.3714335560798645
1761340624237921000,1.056921142578125,2.2903246879577637,-4.527769565582275,1.9530109167099
1761340624247989000,1.066989013671875,1.5682207345962524,-3.329625129699707,2.645493984222412
1761340624258056000,1.077055908203125,0.004738916642963886,-1.6369940042495728,2.0077712535858154
1761340624268124000,1.0871240234375,-1.744291067123413,-0.10596322268247604,0.9592480659484863
1761340624278190800,1.09719091796875,-2.9576172828674316,1.1682696342468262,0.08680792897939682
1761340624288257800,1.1072578125,-3.233301877975464,2.035238742828369,-0.6427807807922363
1761340624298326000,1.117325927734375,-2.898118495941162,2.4524710178375244,-1.1951391696929932
1761340624308393000,1.12739306640625,-2.310288429260254,2.3592607975006104,-1.393911600112915
1761340624318460000,1.1374599609375,-1.752752423286438,1.9933165311813354,-1.179918885231018
1761340624328528000,1.14752783203125,-1.3000187873840332,1.6521259546279907,-0.6092751622200012
1761340624338594800,1.1575947265625,-0.8241069316864014,1.346462607383728,0.134328693151474
1761340624348662800,1.167662841796875,-0.29873502254486084,0.9500306248664856,0.8135061860084534
1761340624358729700,1.177729736328125,0.16413891315460205,0.5868603587150574,1.3212741613388062
1761340624368797200,1.187797119140625,0.41930195689201355,0.27895262837409973,1.5570802688598633
1761340624378865000,1.197864990234375,0.39454081654548645,0.04409762844443321,1.4235421419143677
1761340624388932000,1.20793212890625,0.17969322204589844,0.06003957614302635,0.9614734649658203
1761340624398999000,1.2179990234375,-0.027100691571831703,0.2603295147418976,0.39739471673965454
1761340624409067000,1.22806689453125,-0.28112420439720154,0.4290540814399719,-0.2309030443429947
1761340624419134000,1.238134033203125,-0.5991842150688171,0.44837895035743713,-0.6958160400390625
1761340624429201000,1.248200927734375,-0.7714457511901855,0.30539757013320923,-0.8294398784637451
1761340624439269000,1.25826904296875,-0.6983117461204529,0.12351731210947037,-0.7024206519126892
1761340624449336000,1.268336181640625,-0.4927586019039154,-0.07964698225259781,-0.3843926191329956
1761340624459404000,1.278404052734375,-0.32131069898605347,-0.27050694823265076,-0.09836404770612717
1761340624469471000,1.288470947265625,-0.24150905013084412,-0.30820292234420776,0.05826923996210098
1761340624479538000,1.298537841796875,-0.23272225260734558,-0.254568487405777,0.09086472541093826
1761340624489606000,1.30860595703125,-0.23685280978679657,-0.1494460552930832,0.05829400196671486
1761340624499672800,1.3186728515625,-0.25672587752342224,-0.04662628844380379,-0.005061937961727381
1761340624509739800,1.32873974609375,-0.26022741198539734,0.08960504829883575,-0.09558890759944916
1761340624519808000,1.33880810546875,-0.17504198849201202,0.24299246072769165,-0.22481106221675873
1761340624529875000,1.348875,-0.02243434078991413,0.3491327464580536,-0.36789339780807495
1761340624539943000,1.35894287109375,0.17280112206935883,0.3652023673057556,-0.4650423228740692
1761340624550009900,1.369009765625,0.39342135190963745,0.2919984459877014,-0.4843904674053192
1761340624560077300,1.379077392578125,0.6201592087745667,0.12634722888469696,-0.42993345856666565
1761340624570145000,1.38914501953125,0.8280543088912964,-0.1376979947090149,-0.3117077648639679
1761340624580212500,1.39921240234375,0.9717378616333008,-0.41991204023361206,-0.14468443393707275
1761340624590279400,1.409279541015625,1.021320104598999,-0.6329028606414795,0.10917314141988754
1761340624600347400,1.419347412109375,1.0112485885620117,-0.7857305407524109,0.42814671993255615
1761340624610414300,1.429414306640625,0.9837802052497864,-0.8540542125701904,0.7272140979766846
1761340624620481300,1.439481201171875,0.9566215872764587,-0.859380304813385,0.9252810478210449
1761340624630549200,1.44954931640625,0.9275462627410889,-0.8018389940261841,0.9792763590812683
1761340624640616200,1.4596162109375,0.9084248542785645,-0.682033360004425,0.9214062690734863
1761340624650684400,1.469684326171875,0.8822624683380127,-0.5012774467468262,0.816379725933075
1761340624660751400,1.47975146484375,0.8525628447532654,-0.2975030839443207,0.7264811396598816
1761340624670818300,1.489818359375,0.8345673680305481,-0.10726046562194824,0.6136930584907532
1761340624680886300,1.49988623046875,0.8271610140800476,0.06686804443597794,0.4388788640499115
1761340624690953200,1.509953125,0.8634870648384094,0.25742068886756897,0.18209341168403625
1761340624701020200,1.520020263671875,0.9236626029014587,0.5066484808921814,-0.1398899257183075
1761340624711088000,1.530088134765625,1.0243502855300903,0.8356013298034668,-0.377941370010376
1761340624721155000,1.540155029296875,1.145434856414795,1.1454616785049438,-0.43803805112838745
1761340624731222300,1.55022216796875,1.2043147087097168,1.377146601676941,-0.33725497126579285
1761340624741290200,1.560290283203125,1.168104887008667,1.432111144065857,-0.12015101313591003
1761340624751357400,1.570357421875,0.9751701951026917,1.1525721549987793,-0.014549756422638893
1761340624761425200,1.580425048828125,0.6823835372924805,0.5777026414871216,-0.10672850161790848
1761340624771492400,1.590492431640625,0.43400779366493225,-0.0916360467672348,-0.3843265473842621
1761340624781559300,1.600559326171875,0.3714439570903778,-0.9112311005592346,-0.8095574975013733
1761340624791627300,1.610627197265625,0.5607009530067444,-2.051785707473755,-1.2214899063110352
1761340624801694200,1.620694091796875,0.9818697571754456,-3.282707691192627,-1.381372094154358
1761340624811761200,1.63076123046875,1.4820647239685059,-4.093766212463379,-1.0035935640335083
1761340624821829400,1.640829345703125,1.978879690170288,-3.9033329486846924,-0.030589789152145386
1761340624831896300,1.650896240234375,2.337869167327881,-2.980802059173584,1.0822674036026
1761340624841964300,1.66096435546875,2.378840684890747,-1.8932898044586182,1.7295067310333252
1761340624852031200,1.67103125,2.024017572402954,-0.9367925524711609,1.7053343057632446
1761340624862098200,1.68109814453125,1.3237980604171753,-0.0414186455309391,1.3010201454162598
1761340624872166100,1.691166259765625,0.42260727286338806,0.8364511132240295,0.7569000720977783
1761340624882233000,1.701233154296875,-0.5148364305496216,1.6099122762680054,0.2152380794286728
1761340624892300000,1.711300048828125,-1.308910608291626,2.089890241622925,-0.24730080366134644
1761340624902368300,1.7213681640625,-2.0812830924987793,2.0399696826934814,-0.5040054321289062
1761340624912435200,1.731435302734375,-2.9521374702453613,1.623140573501587,-0.681774914264679
1761340624922502400,1.74150244140625,-3.777108907699585,1.2736003398895264,-1.064576268196106
1761340624932570000,1.751570068359375,-4.085992813110352,1.3487416505813599,-1.5072429180145264
1761340624942637300,1.76163720703125,-3.641777992248535,1.6504136323928833,-1.724493384361267
1761340624952705000,1.771705078125,-2.6636030673980713,1.495461344718933,-1.418792963027954
1761340624962772200,1.781772216796875,-1.4486092329025269,0.6556992530822754,-0.5089998245239258
1761340624972839400,1.79183935546875,-0.47054341435432434,0.004237603396177292,0.37413743138313293
1761340624982907400,1.801907470703125,0.16530904173851013,-0.34145915508270264,1.0931541919708252
1761340624992974300,1.811974365234375,0.5164777636528015,-0.4990866184234619,1.5372051000595093
1761340625003041300,1.822041259765625,0.6825442314147949,-0.40774840116500854,1.7139575481414795
1761340625013109200,1.832109130859375,0.6518044471740723,-0.12297260761260986,1.5511553287506104
1761340625023176200,1.84217626953125,0.4529189169406891,0.2747962772846222,1.090129017829895
1761340625033243100,1.8522431640625,0.1989324390888214,0.7740505933761597,0.4446268081665039
1761340625043311400,1.862311279296875,0.03494255617260933,1.254140853881836,-0.23921996355056763
1761340625053378300,1.87237841796875,-0.025193752720952034,1.493074893951416,-0.8736749291419983
1761340625063446300,1.8824462890625,-0.02555089257657528,1.565181851387024,-1.3416666984558105
1761340625073513200,1.89251318359375,0.12526658177375793,1.5761820077896118,-1.561617374420166
1761340625083580200,1.902580078125,0.37522196769714355,1.3387309312820435,-1.5999479293823242
1761340625093648100,1.912648193359375,0.626683235168457,0.9724389910697937,-1.407725214958191
1761340625103715000,1.922715087890625,0.8735406994819641,0.5000852346420288,-1.071082592010498
1761340625113782300,1.9327822265625,1.10341477394104,0.03231535106897354,-0.6827551126480103
1761340625123850200,1.942850341796875,1.2702785730361938,-0.32888901233673096,-0.34720584750175476
1761340625133917400,1.95291748046875,1.3725557327270508,-0.6015099287033081,-0.18466751277446747
1761340625143984400,1.962984375,1.4206541776657104,-0.7657691836357117,-0.19862769544124603
1761340625154052400,1.97305224609375,1.4455488920211792,-0.8135004639625549,-0.3610605299472809
1761340625164119300,1.983119384765625,1.4417519569396973,-0.8172127604484558,-0.6281401515007019
1761340625174187300,1.993187255859375,1.3904584646224976,-0.7972704768180847,-0.8806294202804565
1761340625184254200,2.003254150390625,1.2921651601791382,-0.7470049262046814,-1.001152515411377
1761340625194321200,2.013321044921875,1.131988763809204,-0.6916590929031372,-0.9387772679328918
1761340625204389400,2.023389404296875,0.8350666165351868,-0.6866008639335632,-0.7188555598258972
1761340625214456300,2.033456298828125,0.42700186371803284,-0.6939557194709778,-0.4500373899936676
1761340625224523300,2.043523193359375,0.02044052444398403,-0.6857858300209045,-0.19612273573875427
1761340625234591200,2.05359130859375,-0.3028283715248108,-0.6507514119148254,0.025664513930678368
1761340625244658200,2.063658203125,-0.5250312089920044,-0.5481002330780029,0.19698995351791382
1761340625254725000,2.07372509765625,-0.6350823640823364,-0.3977828919887543,0.28986236453056335
1761340625264793000,2.08379296875,-0.6086211204528809,-0.1860915720462799,0.28677991032600403
1761340625274860000,2.093860107421875,-0.45642703771591187,0.09116799384355545,0.23605945706367493
1761340625284928300,2.10392822265625,-0.31164976954460144,0.5421077013015747,0.17586977779865265
1761340625294995200,2.1139951171875,-0.10056178271770477,1.1448731422424316,0.10340064018964767
1761340625305062400,2.1240625,0.17961359024047852,1.8612076044082642,0.00854758732020855
1761340625315130000,2.134130126953125,0.33901309967041016,2.4584598541259766,-0.11172530055046082
1761340625325197300,2.144197265625,0.24806983768939972,2.4752495288848877,-0.21795865893363953
1761340625335264300,2.15426416015625,-0.0591694638133049,1.6968790292739868,-0.3941209316253662
1761340625345332200,2.164332275390625,-0.325511634349823,0.127808079123497,-0.7613804936408997
1761340625355399200,2.174399169921875,-0.35189157724380493,-1.8808095455169678,-1.1309559345245361
1761340625365466400,2.18446630859375,-0.05886624753475189,-3.777437210083008,-1.227144479751587
1761340625375534300,2.194534423828125,0.4984753131866455,-5.012486934661865,-0.7531508803367615
1761340625385601300,2.204601318359375,1.2754088640213013,-5.215410232543945,0.3119117021560669
1761340625395669200,2.214669189453125,2.0855729579925537,-4.42445182800293,1.5356533527374268
1761340625405736200,2.224736083984375,2.5524380207061768,-3.090263843536377,2.2752153873443604
1761340625415803100,2.23480322265625,2.467033624649048,-1.8214900493621826,2.2114341259002686
1761340625425871000,2.24487109375,1.9673508405685425,-0.8262292742729187,1.6515071392059326
1761340625435938300,2.254938232421875,1.2612714767456055,-0.22874481976032257,0.9667025208473206
1761340625446005200,2.265005126953125,0.5535700917243958,-0.026971181854605675,0.35723569989204407
1761340625456073200,2.2750732421875,-0.024432513862848282,-0.13377246260643005,-0.10738019645214081
1761340625466140200,2.28514013671875,-0.47871333360671997,-0.527225136756897,-0.3852331340312958
1761340625476207400,2.295207275390625,-0.7753669023513794,-0.9638131260871887,-0.5196287035942078
1761340625486275000,2.305275146484375,-0.9741678237915039,-1.3464601039886475,-0.6256798505783081
1761340625496342300,2.31534228515625,-1.0329903364181519,-1.6702046394348145,-0.5985749959945679
1761340625506410200,2.32541015625,-1.000975489616394,-1.7877451181411743,-0.4090580344200134
1761340625516477400,2.3354775390625,-0.9530652761459351,-1.6890149116516113,-0.09591822326183319
1761340625526544400,2.34554443359375,-0.9142647981643677,-1.423980474472046,0.2407740354537964
1761340625536612400,2.3556123046875,-0.8464247584342957,-1.008488416671753,0.48888638615608215
1761340625546679300,2.36567919921875,-0.817406415939331,-0.5088991522789001,0.5650054812431335
1761340625556745500,2.375745361328125,-0.8304327130317688,0.07702077180147171,0.5547283887863159
1761340625566813400,2.3858134765625,-0.8136295676231384,0.6264159083366394,0.5602786540985107
1761340625576880400,2.39588037109375,-0.80214524269104,1.0100094079971313,0.5881190896034241
1761340625586947300,2.405947265625,-0.788196325302124,1.223678469657898,0.6177833676338196
1761340625597015300,2.416015380859375,-0.8099881410598755,1.391631841659546,0.6177908182144165
1761340625607082500,2.42608251953125,-0.7891912460327148,1.4290964603424072,0.6029853224754333
1761340625617149700,2.436149658203125,-0.7319026589393616,1.320925235748291,0.603602945804596
1761340625627217400,2.446217529296875,-0.6403636932373047,1.1304152011871338,0.5323230624198914
1761340625637284600,2.45628466796875,-0.5271306037902832,0.8772670030593872,0.4000292122364044
1761340625647352600,2.4663525390625,-0.4425845444202423,0.6563161015510559,0.15554851293563843
1761340625657419500,2.47641943359375,-0.3870658874511719,0.5631190538406372,-0.2472604513168335
1761340625667486500,2.486486572265625,-0.32892537117004395,0.578071653842926,-0.7075057625770569
1761340625677554700,2.4965546875,-0.2708796560764313,0.6180046796798706,-1.1217851638793945
1761340625687621600,2.50662158203125,-0.21982286870479584,0.6129686832427979,-1.4116380214691162
1761340625697688600,2.5166884765625,-0.1267632246017456,0.5767651200294495,-1.5497915744781494
1761340625707756500,2.526756591796875,-0.028652336448431015,0.6091835498809814,-1.4416723251342773
1761340625717823500,2.536823486328125,0.10706687718629837,0.4785941243171692,-1.1827811002731323
1761340625727890400,2.546890380859375,0.23083657026290894,0.3303888440132141,-0.8548964858055115
1761340625737958400,2.55695849609375,0.33148807287216187,0.16038274765014648,-0.4740745723247528
1761340625748025300,2.567025390625,0.38903841376304626,-0.010028805583715439,-0.12953798472881317
1761340625758093600,2.577093505859375,0.41212135553359985,-0.08303271234035492,0.14854370057582855
1761340625768160500,2.587160400390625,0.43525218963623047,-0.12628388404846191,0.3429255485534668
1761340625778227500,2.5972275390625,0.43547242879867554,-0.15401697158813477,0.45434632897377014
1761340625788295400,2.60729541015625,0.4032880663871765,-0.12014717608690262,0.5364670157432556
1761340625798362400,2.6173623046875,0.37732648849487305,-0.031142203137278557,0.5878953337669373
1761340625808429600,2.6274296875,0.3885875344276428,0.06745847314596176,0.6412344574928284
1761340625818497500,2.63749755859375,0.4144255220890045,0.1296781748533249,0.6560956835746765
1761340625828564500,2.647564453125,0.43464502692222595,0.17179054021835327,0.6302173733711243
1761340625838631400,2.65763134765625,0.42930033802986145,0.2795571982860565,0.5772753357887268
1761340625848699600,2.66769970703125,0.3817690908908844,0.4388393461704254,0.5552186369895935
1761340625858766600,2.6777666015625,0.27020686864852905,0.6389809250831604,0.5964395999908447
1761340625868833500,2.68783349609375,0.12212112545967102,0.942752480506897,0.7229598760604858
1761340625878901500,2.697901611328125,-0.03429938107728958,1.3520126342773438,0.9228444695472717
1761340625888968400,2.707968505859375,-0.1953280121088028,1.815456748008728,0.9812962412834167
1761340625899036400,2.718036376953125,-0.3739970922470093,2.203606605529785,0.6637496948242188
1761340625909103400,2.728103271484375,-0.4742199778556824,2.4582629203796387,-0.036950141191482544
1761340625919170300,2.73817041015625,-0.40437406301498413,2.3347737789154053,-0.931171178817749
1761340625929238500,2.748238525390625,-0.1298326849937439,1.6103785037994385,-1.6252827644348145
1761340625939305500,2.758305419921875,0.2779894471168518,0.5871142148971558,-1.7215956449508667
1761340625949372400,2.768372314453125,0.6502463817596436,-0.662344753742218,-1.172582983970642
1761340625959440400,2.7784404296875,0.935786247253418,-2.1812045574188232,-0.20644423365592957
1761340625969507300,2.78850732421875,1.2561182975769043,-3.6707382202148438,0.7986510396003723
1761340625979574500,2.798574462890625,1.6126084327697754,-4.50391149520874,1.6435604095458984
1761340625989642500,2.808642578125,1.8084113597869873,-4.584535121917725,2.146479368209839
1761340625999709700,2.818709716796875,1.6708813905715942,-4.043338775634766,2.2142770290374756
1761340626009776600,2.828776611328125,1.2087429761886597,-3.031067371368408,1.8887568712234497
1761340626019844600,2.8388447265625,0.5363475680351257,-1.7872426509857178,1.3103044033050537
1761340626029911600,2.84891162109375,-0.26939332485198975,-0.6084399819374084,0.5836313366889954
1761340626039979500,2.8589794921875,-1.320923089981079,0.45507559180259705,-0.28280365467071533
1761340626050046500,2.86904638671875,-3.006364345550537,1.02178156375885,-1.0470387935638428
1761340626060113400,2.879113525390625,-4.55192756652832,1.4166995286941528,-1.9498645067214966
1761340626070181600,2.889181640625,-5.130756855010986,2.0475735664367676,-2.6296162605285645
1761340626080248600,2.89924853515625,-4.8760986328125,2.7353596687316895,-2.716938018798828
1761340626090315500,2.9093154296875,-4.288819789886475,2.7828404903411865,-2.332796573638916
1761340626100383500,2.919383544921875,-3.6365396976470947,2.2157981395721436,-1.770273208618164
1761340626110450400,2.929450439453125,-3.000506639480591,1.5968332290649414,-1.2419668436050415
1761340626120517400,2.939517333984375,-2.408289670944214,1.1592705249786377,-0.700012743473053
1761340626130585300,2.94958544921875,-1.881198763847351,0.8014589548110962,-0.14700698852539062
1761340626140652500,2.959652587890625,-1.46649169921875,0.5472503900527954,0.32000309228897095
1761340626150720500,2.969720458984375,-1.164271354675293,0.488175630569458,0.643531322479248
1761340626160787500,2.979787353515625,-0.9416374564170837,0.6147477030754089,0.7852820754051208
1761340626170854700,2.989854736328125,-0.7524207234382629,0.8057639598846436,0.744599461555481
1761340626180922600,2.999922607421875,-0.5758659243583679,0.9037432074546814,0.5871110558509827
1761340626190989600,3.009989501953125,-0.3688749074935913,0.8582380414009094,0.3494493365287781
1761340626201056500,3.020056396484375,-0.15064962208271027,0.6758480072021484,0.07719916850328445
1761340626211124500,3.03012451171875,0.07210467010736465,0.40394866466522217,-0.1807899922132492
1761340626221191400,3.04019140625,0.31649816036224365,0.08417519181966782,-0.4143926501274109
1761340626231258400,3.05025830078125,0.5382126569747925,-0.26153355836868286,-0.6685720682144165
1761340626241326600,3.06032666015625,0.705772876739502,-0.46119925379753113,-0.9100576639175415
1761340626251393500,3.0703935546875,0.8282997012138367,-0.5576640367507935,-1.121809482574463
1761340626261460500,3.08046044921875,0.8706727027893066,-0.6436700224876404,-1.253537893295288
1761340626271528400,3.090528564453125,0.8647902011871338,-0.6453624963760376,-1.2621588706970215
1761340626281595400,3.100595458984375,0.8228486180305481,-0.6335005164146423,-1.132182002067566
1761340626291663400,3.110663330078125,0.7386366724967957,-0.6127898097038269,-0.8924849033355713
1761340626301730300,3.120730224609375,0.6652524471282959,-0.6009570956230164,-0.6658579111099243
1761340626311797500,3.130797607421875,0.6358691453933716,-0.6130523681640625,-0.5346893072128296
1761340626321865500,3.140865478515625,0.644050657749176,-0.629159688949585,-0.5058552622795105
1761340626331932700,3.1509326171875,0.6911446452140808,-0.5988066792488098,-0.5242870450019836
1761340626341999600,3.16099951171875,0.7775557041168213,-0.5591535568237305,-0.5361154675483704
1761340626352067600,3.171067626953125,0.8956053256988525,-0.5521793365478516,-0.5150073766708374
1761340626362134500,3.181134521484375,1.0054495334625244,-0.5146273970603943,-0.429738312959671
1761340626372201500,3.191201416015625,1.0542415380477905,-0.4318946301937103,-0.277119517326355
1761340626382269400,3.20126953125,1.048086166381836,-0.318194717168808,-0.07836353033781052
1761340626392336600,3.211336669921875,1.0053683519363403,-0.20828422904014587,0.10577292740345001
1761340626402403600,3.221403564453125,0.9286841750144958,-0.14841796457767487,0.21928776800632477
1761340626412471600,3.231471435546875,0.806912362575531,-0.06106935441493988,0.2992202639579773
1761340626422538500,3.24153857421875,0.6584922671318054,0.10102314502000809,0.37294748425483704
1761340626432605400,3.25160546875,0.5040526986122131,0.3647214472293854,0.42022794485092163
1761340626442673400,3.26167333984375,0.3876185417175293,0.6336700916290283,0.3976648449897766
1761340626452740400,3.271740234375,0.31295424699783325,0.72141432762146,0.24637764692306519
1761340626462808600,3.28180859375,0.22490109503269196,0.544632077217102,0.026239696890115738
1761340626472875500,3.29187548828125,0.07759975641965866,0.3583248257637024,-0.13480868935585022
1761340626482942500,3.3019423828125,-0.15652833878993988,0.2735212445259094,-0.09168890863656998
1761340626493010400,3.312010498046875,-0.4623851478099823,0.26944872736930847,0.1615740805864334
1761340626503077600,3.32207763671875,-0.6627421975135803,-0.02685537561774254,0.334073930978775
1761340626513144600,3.33214453125,-0.6471896171569824,-0.7486670017242432,0.24259430170059204
1761340626523212500,3.342212646484375,-0.45808151364326477,-1.495178461074829,0.013148062862455845
1761340626533279500,3.352279541015625,-0.05602940171957016,-2.222661018371582,-0.07863112539052963
1761340626543346400,3.362346435546875,0.5658115148544312,-2.9219863414764404,0.22491012513637543
1761340626553414700,3.37241455078125,1.4015690088272095,-3.386427879333496,0.9625965356826782
1761340626563481600,3.382481689453125,2.2293381690979004,-3.4960556030273438,1.8550828695297241
1761340626573549600,3.392549560546875,2.777797222137451,-3.181776762008667,2.747783660888672
1761340626583616500,3.402616455078125,2.77484130859375,-2.4709835052490234,3.5862810611724854
1761340626593683500,3.412683349609375,2.2672927379608154,-1.6556648015975952,3.954232931137085
1761340626603751400,3.42275146484375,1.5650008916854858,-1.097833275794983,3.4982588291168213
1761340626613818400,3.432818359375,1.0433036088943481,-1.0903136730194092,2.288463830947876
1761340626623885300,3.44288525390625,0.6232262253761292,-0.7852139472961426,0.6816939115524292
1761340626633953300,3.452953369140625,0.2937833070755005,0.026907987892627716,-1.1302850246429443
1761340626644020500,3.4630205078125,0.10029320418834686,0.783515214920044,-2.7571399211883545
1761340626654087400,3.47308740234375,-1.087514042854309,2.0131895542144775,-3.65592098236084
1761340626664155400,3.4831552734375,-2.3645336627960205,2.506138324737549,-3.4049365520477295
1761340626674222600,3.49322265625,-2.33622407913208,2.435464859008789,-2.2569363117218018
1761340626684289500,3.50328955078125,-2.092332363128662,2.8832931518554688,-0.685652494430542
1761340626694357500,3.513357421875,-1.6087411642074585,2.7146472930908203,0.5575805306434631
1761340626704424400,3.523424560546875,-1.1262145042419434,2.189868211746216,1.347264289855957
1761340626714491400,3.533491455078125,-0.9017436504364014,1.3017232418060303,1.7094861268997192
1761340626724559600,3.5435595703125,-0.9932642579078674,0.36986106634140015,1.767621397972107
1761340626734626600,3.55362646484375,-1.2233387231826782,-0.23939332365989685,1.6161375045776367
1761340626744694500,3.563694580078125,-1.3279708623886108,-0.36818644404411316,1.2881122827529907
1761340626754761500,3.573761474609375,-1.285178780555725,-0.1281624287366867,0.7804166674613953
1761340626764828400,3.583828369140625,-1.2033987045288086,0.4325381815433502,0.221471905708313
1761340626774896400,3.593896484375,-1.0789107084274292,0.9770474433898926,-0.1862976998090744
1761340626784963300,3.60396337890625,-0.951600193977356,1.3451290130615234,-0.35361427068710327
1761340626795030300,3.6140302734375,-0.8173230886459351,1.4503133296966553,-0.33571845293045044
1761340626805098500,3.624098388671875,-0.6609808802604675,1.308083176612854,-0.22941172122955322
1761340626815165400,3.63416552734375,-0.4977845549583435,1.0109601020812988,-0.1269105225801468
1761340626825232400,3.644232421875,-0.379694402217865,0.7961577773094177,-0.17126627266407013
1761340626835300400,3.65430029296875,-0.19046396017074585,0.5408168435096741,-0.3162218928337097
1761340626845367600,3.664367431640625,-0.025745579972863197,0.30635106563568115,-0.53916335105896
1761340626855434500,3.6744345703125,0.07230937480926514,0.24128176271915436,-0.8259958028793335
1761340626865502500,3.68450244140625,0.1626344919204712,0.21908485889434814,-1.0741711854934692
1761340626875569400,3.6945693359375,0.23596712946891785,0.22190873324871063,-1.2339290380477905
1761340626885636600,3.70463671875,0.30015918612480164,0.17453056573867798,-1.2949976921081543
1761340626895704600,3.71470458984375,0.25917795300483704,0.20002959668636322,-1.1932917833328247
1761340626905771500,3.724771484375,0.24906513094902039,0.10125376284122467,-0.8494430780410767
1761340626915839500,3.734839599609375,0.3717559278011322,0.04940864443778992,-0.3870915472507477
1761340626925906400,3.744906494140625,0.42845410108566284,0.044705770909786224,0.06242872402071953
1761340626935973400,3.754973388671875,0.4905923902988434,-0.11915554106235504,0.4580782651901245
1761340626946041300,3.765041259765625,0.5060341954231262,-0.27928662300109863,0.7732950448989868
1761340626956108500,3.775108642578125,0.4732506573200226,-0.3995814025402069,1.0025558471679688
1761340626966175500,3.785175537109375,0.42632097005844116,-0.430544912815094,1.1311596632003784
1761340626976243500,3.795243408203125,0.4054454267024994,-0.44018957018852234,1.18314528465271
1761340626986310400,3.805310302734375,0.43340328335762024,-0.503918468952179,1.1853010654449463
1761340626996377300,3.81537744140625,0.47088557481765747,-0.5559811592102051,1.107538104057312
1761340627006445300,3.8254453125,0.4888368844985962,-0.5060067176818848,0.9925407767295837
1761340627016512500,3.835512451171875,0.5355477929115295,-0.2971327602863312,0.9384956955909729
1761340627026579500,3.845579345703125,0.5412752032279968,0.0453561469912529,0.9787997007369995
1761340627036647700,3.855647705078125,0.6169266700744629,0.45592597126960754,1.0745590925216675
1761340627046714600,3.865714599609375,0.8027031421661377,0.7752994894981384,1.1370480060577393
1761340627056781600,3.875781494140625,0.9909212589263916,0.935640275478363,1.1084988117218018
1761340627066849500,3.885849609375,1.1261272430419922,1.0859593152999878,0.904736340045929
1761340627076916500,3.89591650390625,1.1327449083328247,1.099164605140686,0.515447735786438
1761340627086983400,3.9059833984375,0.9674316644668579,0.6164976954460144,-0.09771499782800674
1761340627097051400,3.916051513671875,0.7450652718544006,-0.40562254190444946,-0.8342791795730591
1761340627107118300,3.926118408203125,0.5581082105636597,-1.8187215328216553,-1.4617513418197632
1761340627117186600,3.9361865234375,0.4670952260494232,-3.0970547199249268,-1.584312081336975
1761340627127253500,3.94625341796875,0.5542296171188354,-3.477823257446289,-1.1715785264968872
1761340627137320400,3.956320556640625,0.9412865042686462,-3.1536524295806885,-0.43994012475013733
1761340627147388400,3.966388427734375,1.5081888437271118,-2.4134747982025146,0.5165917277336121
1761340627157455400,3.976455322265625,1.8368406295776367,-1.6794644594192505,1.3152551651000977
1761340627167522300,3.986522216796875,1.0666645765304565,-1.463365912437439,1.8742808103561401
1761340627177590300,3.99659033203125,-0.7737866640090942,-1.661293864250183,2.2881526947021484
1761340627187657500,4.006657470703125,-2.4476404190063477,-1.550919771194458,2.5534889698028564
1761340627197724400,4.016724365234375,-3.056685447692871,-1.1434910297393799,2.4666085243225098
1761340627207791600,4.02679150390625,-2.76487398147583,-0.7023594379425049,1.987402319908142
1761340627217858600,4.036858642578125,-2.2524123191833496,-0.25282779335975647,1.107682704925537
1761340627227926500,4.046926513671875,-1.584837555885315,0.7555350065231323,-0.2895796298980713
1761340627237993500,4.056993408203125,-0.9313377737998962,1.199388861656189,-1.0505437850952148
1761340627248060400,4.067060302734375,-0.4862633943557739,0.4798799455165863,-0.7893562912940979
1761340627258128400,4.07712841796875,-0.3270348012447357,-0.7988119125366211,0.3810385763645172
1761340627268195300,4.0871953125,-0.3722640573978424,-1.941604495048523,1.6922261714935303
1761340627278262300,4.09726220703125,-0.4254307746887207,-2.2518177032470703,2.383957624435425
1761340627288330500,4.10733056640625,-0.3860609829425812,-1.8164117336273193,2.284942865371704
1761340627298397400,4.1173974609375,-0.3133188784122467,-0.8788197636604309,1.6344945430755615
1761340627308464600,4.127464599609375,-0.2404784858226776,0.23546943068504333,0.6945194005966187
1761340627318532400,4.137532470703125,-0.1837315708398819,1.2216205596923828,-0.22265270352363586
1761340627328599600,4.147599609375,-0.16575311124324799,1.8140119314193726,-0.8778313398361206
1761340627338666500,4.15766650390625,-0.2451496422290802,1.9856714010238647,-1.1848584413528442
1761340627348734500,4.167734375,-0.3961050808429718,1.8219783306121826,-1.206917405128479
1761340627358801400,4.177801513671875,-0.42744919657707214,1.520173192024231,-1.1288284063339233
1761340627368868400,4.187868408203125,-0.2707759439945221,1.152852177619934,-1.011763334274292
1761340627378936600,4.1979365234375,-0.02915625274181366,0.7588733434677124,-0.9268003106117249
1761340627389003500,4.20800341796875,0.2205534428358078,0.3789962828159332,-0.9134597182273865
1761340627399071500,4.218071533203125,0.4038555920124054,0.1689189225435257,-1.0014293193817139
1761340627409138400,4.228138427734375,0.3806823492050171,0.08710981905460358,-1.2373040914535522
1761340627419205400,4.238205322265625,0.18514706194400787,-0.014135245233774185,-1.689781904220581
1761340627429273300,4.2482734375,0.03541694954037666,-0.0018013473600149155,-2.264643907546997
1761340627439340300,4.25834033203125,-0.040813133120536804,0.09743551909923553,-2.698367118835449
1761340627449407200,4.2684072265625,-0.19665305316448212,0.19327284395694733,-2.773744583129883
1761340627459475500,4.278475341796875,-0.5258251428604126,0.29132789373397827,-2.4261069297790527
1761340627469542400,4.28854248046875,-0.8888369202613831,0.3208381235599518,-1.8019803762435913
1761340627479609600,4.298609619140625,-1.0509932041168213,0.3020738959312439,-1.0701452493667603
1761340627489677300,4.30867724609375,-0.957145094871521,0.23543228209018707,-0.357528954744339
1761340627499744500,4.31874462890625,-0.7860208749771118,0.046874064952135086,0.18993565440177917
1761340627509811500,4.3288115234375,-0.674830436706543,-0.20135252177715302,0.5176059603691101
1761340627519879400,4.33887939453125,-0.594113290309906,-0.45398861169815063,0.6867101192474365
1761340627529946600,4.348946533203125,-0.5965823531150818,-0.6508289575576782,0.7408082485198975
1761340627540013600,4.359013671875,-0.6435965299606323,-0.8711040019989014,0.6980320811271667
1761340627550081500,4.36908154296875,-0.8053681254386902,-1.0844128131866455,0.6266516447067261
1761340627560149000,4.37914892578125,-1.0215352773666382,-1.2212896347045898,0.5354623794555664
1761340627570216000,4.3892158203125,-1.2412564754486084,-1.1366500854492188,0.40038925409317017
1761340627580285000,4.399284912109375,-1.4311991930007935,-0.8113223314285278,0.2798828184604645
1761340627590352100,4.40935205078125,-1.570890188217163,-0.20337165892124176,0.17864647507667542
1761340627600419000,4.419419189453125,-1.6166069507598877,0.452464759349823,0.08083435148000717
1761340627610487000,4.429487060546875,-1.509870171546936,0.940363347530365,0.04869825392961502
1761340627620554000,4.439553955078125,-1.3289061784744263,1.1953076124191284,0.10913357883691788
1761340627630621000,4.449620849609375,-1.0892137289047241,1.3865976333618164,0.026306068524718285
1761340627640689000,4.45968896484375,-0.667997419834137,1.7723348140716553,-0.34916335344314575
1761340627650755800,4.469755859375,-0.16570870578289032,2.1117148399353027,-0.9072313904762268
1761340627660822800,4.47982275390625,0.2796638011932373,1.9782295227050781,-1.4088538885116577
1761340627670891000,4.48989111328125,0.456133097410202,1.3991488218307495,-1.5966767072677612
1761340627680958000,4.4999580078125,0.3539113402366638,0.6097295880317688,-1.3820253610610962
1761340627691026000,4.51002587890625,-0.04477213695645332,-0.1921151727437973,-1.0382709503173828
1761340627701092900,4.5200927734375,-0.5054601430892944,-0.9664878249168396,-0.8920736908912659
1761340627711160000,4.53016015625,-0.7145922780036926,-1.584530234336853,-1.1200405359268188
1761340627721227800,4.540227783203125,-0.4707164466381073,-1.7334585189819336,-1.5902976989746094
1761340627731295000,4.550294921875,0.07328162342309952,-1.328614354133606,-1.9785988330841064
1761340627741362000,4.56036181640625,0.4328870177268982,-0.7554546594619751,-2.031796932220459
1761340627751430100,4.57043017578125,0.18301591277122498,0.07248854637145996,-2.4537363052368164
1761340627761497000,4.5804970703125,-0.9784522652626038,0.9275659918785095,-3.9021849632263184
1761340627771564000,4.59056396484375,-2.2498955726623535,1.720435619354248,-4.225708484649658
1761340627781632000,4.600632080078125,-2.608290195465088,2.1472930908203125,-2.3930141925811768
1761340627791699000,4.610698974609375,-1.9336224794387817,1.7736283540725708,-0.17820413410663605
1761340627801766000,4.620765869140625,-1.5972658395767212,0.831597626209259,0.9151182770729065
1761340627811833900,4.630833740234375,-1.6390191316604614,0.10084384679794312,1.152355432510376
1761340627821900800,4.64090087890625,-1.2188246250152588,-0.42532140016555786,1.164128303527832
1761340627831968000,4.650968017578125,-0.6556810140609741,-0.8923937678337097,1.1003727912902832
1761340627842036000,4.661035888671875,-0.2475595623254776,-1.4649393558502197,1.02669358253479
1761340627852103000,4.67110302734375,0.013868315145373344,-1.45560622215271,0.912788450717926
1761340627862169900,4.681169921875,0.21234282851219177,-1.514270544052124,0.7209829092025757
1761340627872237800,4.69123779296875,0.2825562655925751,-1.1939953565597534,0.5341781377792358
1761340627882305000,4.701304931640625,0.3010139465332031,-1.041487693786621,0.5889367461204529
1761340627892372700,4.711372802734375,0.33067411184310913,-0.5810127854347229,0.5539377331733704
1761340627902440200,4.721440185546875,0.3777991235256195,-0.1353175938129425,0.4883098304271698
1761340627912507100,4.731507080078125,0.4221988022327423,0.27926281094551086,0.5025956034660339
1761340627922575000,4.7415751953125,0.5357109308242798,0.4393008053302765,0.6551832556724548
1761340627932642000,4.75164208984375,0.7021241784095764,0.3267609477043152,0.9191275835037231
1761340627942709000,4.761708984375,0.9196107387542725,-0.02909335121512413,1.1948317289352417
1761340627952777000,4.77177685546875,1.1354166269302368,-0.48441293835639954,1.3689217567443848
1761340627962844000,4.781843994140625,1.2674504518508911,-0.7887750267982483,1.3963017463684082
1761340627972910800,4.791910888671875,1.3044923543930054,-0.8890246748924255,1.2556674480438232
1761340627982979000,4.80197900390625,1.2422274351119995,-0.7880086302757263,0.9782723188400269
1761340627993046000,4.8120458984375,1.1033456325531006,-0.5352951288223267,0.6339769959449768
1761340628003113000,4.822113037109375,0.8426566123962402,-0.2899702489376068,0.29332542419433594
1761340628013181000,4.832180908203125,0.4164627194404602,0.033515941351652145,0.04607221484184265
1761340628023248000,4.842247802734375,-0.02073107846081257,0.2719995081424713,-0.046854060143232346
1761340628033314800,4.852314697265625,-0.27412232756614685,0.4191815257072449,-0.04908525571227074
1761340628043382800,4.8623828125,-0.2917017638683319,0.6343090534210205,-0.01170727051794529
1761340628053450000,4.872449951171875,-0.1353321522474289,0.6934064626693726,-0.01609296351671219
1761340628063517000,4.882516845703125,0.11795565485954285,0.6065922975540161,-0.05337868630886078
1761340628073585200,4.892585205078125,0.37071147561073303,0.42842474579811096,-0.0960790142416954
1761340628083652000,4.902652099609375,0.5035824179649353,0.11676480621099472,-0.12475209683179855
1761340628093719000,4.912718994140625,0.5180727243423462,-0.2223602533340454,-0.09728052467107773
1761340628103787000,4.922787109375,0.4547378122806549,-0.5310853123664856,-0.013467203825712204
1761340628113854000,4.93285400390625,0.33947914838790894,-0.7820552587509155,0.05611667037010193
1761340628123922000,4.942921875,0.24171651899814606,-0.9221515655517578,0.036276623606681824
1761340628133988900,4.95298876953125,0.14184078574180603,-0.9402725100517273,-0.05659019947052002
1761340628144055800,4.963055908203125,0.01639893651008606,-0.8573079109191895,-0.18909071385860443
1761340628154124000,4.9731240234375,-0.11269406974315643,-0.6953549385070801,-0.30204707384109497
1761340628164191000,4.98319091796875,-0.2063831388950348,-0.48592787981033325,-0.3227916955947876
1761340628174258000,4.9932578125,-0.2575456500053406,-0.15464796125888824,-0.19357407093048096
1761340628184326000,5.003325927734375,-0.28000614047050476,0.1903471201658249,-0.011683056131005287
1761340628194392800,5.013392822265625,-0.2760116755962372,0.42347729206085205,0.07981889694929123
1761340628204460000,5.0234599609375,-0.2302951216697693,0.5220765471458435,0.05092760920524597
1761340628214527700,5.03352783203125,-0.1669883131980896,0.533180832862854,-0.05859915167093277
1761340628224595000,5.043594970703125,-0.049240946769714355,0.5381382703781128,-0.15482474863529205
1761340628234662100,5.053662109375,0.0860457718372345,0.4945727288722992,-0.22662650048732758
1761340628244730000,5.063730224609375,0.21096453070640564,0.4096015691757202,-0.24501578509807587
1761340628254797000,5.073797119140625,0.3071214258670807,0.32879728078842163,-0.2064598649740219
1761340628264864000,5.083864013671875,0.3465469777584076,0.24750058352947235,-0.09508799016475677
1761340628274932000,5.093931884765625,0.3354559540748596,0.23065850138664246,0.04847050458192825
1761340628284999000,5.1039990234375,0.28634971380233765,0.20869308710098267,0.12726666033267975
1761340628295065900,5.11406591796875,0.23440341651439667,0.1965959519147873,0.09327913820743561
1761340628305134000,5.124134033203125,0.19751903414726257,0.20445457100868225,-0.023845849558711052
1761340628315201000,5.134200927734375,0.19033782184123993,0.19996261596679688,-0.17762528359889984
1761340628325268000,5.14426806640625,0.22416086494922638,0.1851629614830017,-0.3091660439968109
1761340628335336000,5.1543359375,0.2712863087654114,0.15540586411952972,-0.3573916256427765
1761340628345403000,5.16440283203125,0.284603089094162,0.08292312920093536,-0.32448410987854004
1761340628355469800,5.1744697265625,0.2865261435508728,-0.01837659627199173,-0.23742347955703735
1761340628365537800,5.184537841796875,0.27103322744369507,-0.15906481444835663,-0.1328318864107132
1761340628375605000,5.19460498046875,0.23537641763687134,-0.22976242005825043,0.0050764428451657295
1761340628385672000,5.204671875,0.15839305520057678,-0.2677224576473236,0.10389813035726547
1761340628395740200,5.214740234375,0.10115799307823181,-0.3324625790119171,0.09518426656723022
1761340628405807000,5.22480712890625,0.06454676389694214,-0.35625141859054565,0.016157779842615128
1761340628415875000,5.234875,0.02650989405810833,-0.2993900179862976,-0.06693897396326065
1761340628425942000,5.24494189453125,0.0036095522809773684,-0.21678423881530762,-0.13284078240394592
1761340628436009000,5.255009033203125,0.02275688201189041,-0.12509238719940186,-0.15625183284282684
1761340628446077000,5.265076904296875,0.04896438494324684,-0.062033213675022125,-0.07542697340250015
1761340628456144000,5.275143798828125,0.07527747750282288,-0.06031041219830513,0.0848737582564354
1761340628466210800,5.2852109375,0.11287351697683334,-0.07030957192182541,0.25406894087791443
1761340628476279000,5.295279052734375,0.14747090637683868,-0.057646241039037704,0.33682507276535034
1761340628486346000,5.305345947265625,0.15625,-0.005068976432085037,0.3240891098976135
1761340628496413000,5.315412841796875,0.12836883962154388,0.09308075904846191,0.2286352664232254
1761340628506481000,5.32548095703125,0.07935726642608643,0.21063068509101868,0.07755889743566513
1761340628516547800,5.3355478515625,0.02137758582830429,0.28548815846443176,-0.08907828480005264
1761340628526614800,5.34561474609375,-0.04157467558979988,0.3077125549316406,-0.2031761258840561
1761340628536682800,5.355682861328125,-0.09411963820457458,0.2968822717666626,-0.25632667541503906
1761340628546750000,5.36575,-0.12349748611450195,0.2803289294242859,-0.25365760922431946
1761340628556817200,5.375817138671875,-0.11124774813652039,0.28255265951156616,-0.20099999010562897
1761340628566885000,5.385885009765625,-0.032309405505657196,0.24973610043525696,-0.13060331344604492
1761340628576952300,5.395952392578125,0.06746592372655869,0.11929021775722504,-0.060520902276039124
1761340628587019300,5.406019287109375,0.12731260061264038,-0.026766305789351463,-0.013437008485198021
1761340628597087200,5.416087158203125,0.15017476677894592,-0.13874636590480804,-0.02612137794494629
1761340628607154200,5.426154296875,0.14416299760341644,-0.20894227921962738,-0.07766160368919373
1761340628617221400,5.436221435546875,0.10806065797805786,-0.20940087735652924,-0.14132259786128998
1761340628627289300,5.446289306640625,0.05773945152759552,-0.16231976449489594,-0.19715476036071777
1761340628637356300,5.456356201171875,0.01700027845799923,-0.10724534094333649,-0.2253829389810562
1761340628647423200,5.46642333984375,0.0017038402147591114,-0.07412996143102646,-0.23098598420619965
1761340628657491200,5.4764912109375,0.0077356332913041115,-0.06233428418636322,-0.2275683581829071
1761340628667558100,5.48655810546875,0.031953178346157074,-0.04961329326033592,-0.206971675157547
1761340628677625000,5.496625,0.07521836459636688,-0.005883657373487949,-0.18643870949745178
1761340628687693300,5.506693359375,0.12494181841611862,0.01855628937482834,-0.15947511792182922
1761340628697760300,5.51676025390625,0.17808334529399872,0.042007554322481155,-0.11741875857114792
1761340628707827500,5.526827392578125,0.21774226427078247,0.05122608691453934,-0.07322900742292404
1761340628717895200,5.536895263671875,0.24388624727725983,0.03234240412712097,-0.026203442364931107
1761340628727962400,5.54696240234375,0.2710939347743988,0.028439277783036232,-0.015457851812243462
1761340628738029300,5.557029296875,0.28856346011161804,0.031574614346027374,-0.03847208991646767
1761340628748097300,5.56709716796875,0.2919357120990753,0.03724696487188339,-0.03149402141571045
1761340628758164200,5.577164306640625,0.27807796001434326,-0.009930665604770184,0.011960778385400772
1761340628768231200,5.587231201171875,0.25029563903808594,-0.06718314439058304,0.08996444940567017
1761340628778299400,5.59729931640625,0.1841467320919037,-0.12250498682260513,0.18717089295387268
1761340628788366300,5.607366455078125,0.10555534064769745,-0.16273200511932373,0.277275025844574
1761340628798433300,5.617433349609375,0.07605071365833282,-0.17541344463825226,0.3216680586338043
1761340628808501200,5.627501220703125,0.09770458191633224,-0.1433582901954651,0.29018300771713257
1761340628818568200,5.637568115234375,0.12646672129631042,-0.07836171239614487,0.18497617542743683
1761340628828635100,5.64763525390625,0.14087717235088348,-0.08718914538621902,-0.024551983922719955
1761340628838703000,5.657703125,0.13612475991249084,-0.13505014777183533,-0.29936516284942627
1761340628848770000,5.66777001953125,0.10157522559165955,-0.17992880940437317,-0.5099682807922363
1761340628858837200,5.677837158203125,0.07420644909143448,-0.1633913815021515,-0.5677778124809265
1761340628868905200,5.6879052734375,0.06860920786857605,-0.09380361437797546,-0.41990482807159424
1761340628878972400,5.697972412109375,0.07709909230470657,0.07564347237348557,-0.07542040944099426
1761340628889040100,5.7080400390625,0.08148735016584396,0.267692893743515,0.33192557096481323
1761340628899107300,5.718107421875,0.07765000313520432,0.3542080819606781,0.6110568642616272
1761340628909174300,5.72817431640625,0.09652536362409592,0.36497387290000916,0.6904130578041077
1761340628919242200,5.7382421875,0.14116448163986206,0.34210506081581116,0.6106692552566528
1761340628929309200,5.74830908203125,0.19366993010044098,0.32757002115249634,0.48537731170654297
1761340628939376400,5.75837646484375,0.21674755215644836,0.35463947057724,0.36561256647109985
1761340628949444400,5.7684443359375,0.2243698090314865,0.44717898964881897,0.2735684812068939
1761340628959511300,5.77851123046875,0.23505467176437378,0.5035706162452698,0.22790589928627014
1761340628969578200,5.788578125,0.24811029434204102,0.4762455224990845,0.21739600598812103
1761340628979646200,5.798646240234375,0.2520533800125122,0.4355814456939697,0.18556617200374603
1761340628989713200,5.808713134765625,0.2531836926937103,0.42600804567337036,0.13994866609573364
1761340628999780000,5.818780029296875,0.27197813987731934,0.42914098501205444,0.09057711809873581
1761340629009848300,5.828848388671875,0.3288742005825043,0.4223123788833618,0.029664229601621628
1761340629019915300,5.838915283203125,0.40061840415000916,0.324312299489975,-0.01761833019554615
1761340629029982200,5.848982177734375,0.4756045937538147,0.29267266392707825,-0.055169183760881424
1761340629040050200,5.85905029296875,0.5597034692764282,0.23943635821342468,-0.1333329677581787
1761340629050117400,5.869117431640625,0.6086647510528564,0.15165375173091888,-0.23243726789951324
1761340629060184300,5.879184326171875,0.6208752989768982,0.026209015399217606,-0.316947340965271
1761340629070252300,5.889252197265625,0.5886872410774231,-0.04678508639335632,-0.3516051769256592
1761340629080319200,5.8993193359375,0.5369947552680969,-0.04253947734832764,-0.2960050404071808
1761340629090386200,5.90938623046875,0.5339197516441345,0.042667485773563385,-0.1310775727033615
1761340629100454400,5.919454345703125,0.608306348323822,0.12419857084751129,0.07638506591320038
1761340629110521300,5.929521240234375,0.7077925801277161,0.21315042674541473,0.2781124413013458
1761340629120588300,5.93958837890625,0.7844231724739075,0.42895007133483887,0.42463240027427673
1761340629130656300,5.94965625,0.8306467533111572,0.6653555631637573,0.48397883772850037
1761340629140723200,5.95972314453125,0.8183999061584473,0.8694671988487244,0.4529900550842285
1761340629150790100,5.9697900390625,0.7308428883552551,1.0769177675247192,0.3619832992553711
1761340629160858000,5.979858154296875,0.6187339425086975,1.241721272468567,0.21151627600193024
1761340629170925000,5.989925048828125,0.5264222025871277,1.3246142864227295,-0.017660947516560555
1761340629180992000,5.999991943359375,0.4506038427352905,1.4214158058166504,-0.2105979174375534
1761340629191060200,6.010060302734375,0.3693242073059082,1.515053391456604,-0.3054310083389282
1761340629201127200,6.020127197265625,0.38880789279937744,1.3794931173324585,-0.420735239982605
1761340629211194400,6.0301943359375,0.5123398303985596,0.8378631472587585,-0.6108181476593018
1761340629221262300,6.040262451171875,0.7118614315986633,-0.24738751351833344,-0.9263553619384766
1761340629231329300,6.050329345703125,1.0023703575134277,-1.6694464683532715,-1.2385882139205933
1761340629241396200,6.060396240234375,1.2121771574020386,-2.7126426696777344,-1.0982996225357056
1761340629251464200,6.070464111328125,1.2441976070404053,-3.259413719177246,-0.3996827006340027
1761340629261531400,6.080531494140625,1.2364158630371094,-3.369535446166992,0.5987348556518555
1761340629271598300,6.090598388671875,1.1856003999710083,-2.9695379734039307,1.4553714990615845
1761340629281666300,6.100666259765625,0.5323960185050964,-1.8965626955032349,1.453468680381775
1761340629291733200,6.110733154296875,-0.8970820903778076,-0.4576868414878845,0.6310292482376099
1761340629301800200,6.12080029296875,-2.38442063331604,0.6086002588272095,-0.11712247133255005
1761340629311868200,6.1308681640625,-3.083609104156494,1.1334019899368286,-0.4048474133014679
1761340629321935000,6.14093505859375,-2.5940353870391846,1.2338001728057861,-0.48527991771698
1761340629332002000,6.151001953125,-1.9683247804641724,1.1655243635177612,-0.4274646043777466
1761340629342070300,6.1610703125,-1.451318621635437,0.7808823585510254,-0.27559515833854675
1761340629352137200,6.17113720703125,-1.0868394374847412,0.33097127079963684,0.0054467590525746346
1761340629362204400,6.181204345703125,-0.9484013915061951,-0.2698109745979309,0.42765793204307556
1761340629372272000,6.191272216796875,-0.9525918364524841,-0.7756739258766174,0.8968360424041748
1761340629382339300,6.20133935546875,-0.9289975166320801,-0.7921415567398071,1.2176498174667358
1761340629392406300,6.21140625,-0.8754398822784424,-0.397176057100296,1.2877578735351562
1761340629402474200,6.22147412109375,-0.7739963531494141,0.21497255563735962,1.1366914510726929
1761340629412541200,6.231541259765625,-0.6575626134872437,0.9263580441474915,0.8581601977348328
1761340629422608100,6.241608154296875,-0.556967556476593,1.5653139352798462,0.5574004054069519
1761340629432676400,6.25167626953125,-0.4702787697315216,2.0093162059783936,0.3251170814037323
1761340629442743300,6.261743408203125,-0.35514897108078003,2.180595636367798,0.18390589952468872
1761340629452810200,6.271810302734375,-0.23469123244285583,2.0448780059814453,0.101571224629879
1761340629462878200,6.281878173828125,-0.11139006912708282,1.6478277444839478,0.039639681577682495
1761340629472945200,6.291945068359375,0.002141832374036312,1.0308152437210083,-0.02797781117260456
1761340629483013000,6.30201318359375,0.10465036332607269,0.3992348909378052,-0.19728349149227142
1761340629493080000,6.312080078125,0.271037757396698,-0.2430739551782608,-0.3689061999320984
1761340629503147000,6.32214697265625,0.39514294266700745,-0.5947305560112,-0.6289820075035095
1761340629513215200,6.33221533203125,0.5244331359863281,-0.7399997711181641,-0.845639705657959
1761340629523282200,6.3422822265625,0.6133968234062195,-0.7652239203453064,-0.9641727209091187
1761340629533349400,6.352349365234375,0.6431326270103455,-0.7104525566101074,-0.9975905418395996
1761340629543417000,6.3624169921875,0.5990167856216431,-0.5806546211242676,-0.9902652502059937
1761340629553484300,6.372484375,0.5090460777282715,-0.3889947533607483,-0.9730206727981567
1761340629563551200,6.38255126953125,0.42825910449028015,-0.1190871000289917,-0.9477014541625977
1761340629573619200,6.392619140625,0.40617746114730835,0.18244022130966187,-0.8692135214805603
1761340629583686100,6.40268603515625,0.42985615134239197,0.44113409519195557,-0.6857821941375732
1761340629593753000,6.412753173828125,0.48307564854621887,0.6005756855010986,-0.41855743527412415
1761340629603821000,6.422821044921875,0.5405985713005066,0.6233885884284973,-0.13797558844089508
1761340629613888000,6.432887939453125,0.6105738282203674,0.5366858243942261,0.09585772454738617
1761340629623955000,6.442954833984375,0.7248681783676147,0.44473564624786377,0.20374584197998047
1761340629634023200,6.453023193359375,0.8979580998420715,0.3827694356441498,0.19018371403217316
1761340629644090000,6.463090087890625,1.0837724208831787,0.33631405234336853,0.16756682097911835
1761340629654157000,6.473156982421875,1.2063394784927368,0.23687593638896942,0.21106074750423431
1761340629664225000,6.48322509765625,1.123301386833191,-0.0208464115858078,0.46811944246292114
1761340629674292000,6.4932919921875,0.8273026943206787,-0.3249804675579071,0.8377217054367065
1761340629684359200,6.503359130859375,0.4534153938293457,-0.5970522165298462,1.174132227897644
1761340629694427100,6.51342724609375,0.22696582973003387,-0.6532836556434631,1.2625555992126465
1761340629704494300,6.523494384765625,0.3240598738193512,-0.4396613836288452,1.1895476579666138
1761340629714561300,6.533561279296875,0.6590890884399414,0.029978005215525627,1.0611886978149414
1761340629724629200,6.543629150390625,1.011032223701477,0.5369051098823547,0.8001550436019897
1761340629734696200,6.5536962890625,1.2190678119659424,0.8661420345306396,0.42229291796684265
1761340629744763100,6.56376318359375,1.1266428232192993,0.933207094669342,-0.05089621618390083
1761340629754831000,6.5738310546875,0.8701663017272949,0.6461478471755981,-0.4949359595775604
1761340629764898000,6.58389794921875,0.6088212728500366,0.013561876490712166,-0.7416695952415466
1761340629774965000,6.593965087890625,0.4920085072517395,-0.7296764254570007,-0.7616477012634277
1761340629785033200,6.604033203125,0.6634332537651062,-1.371486783027649,-0.7727163434028625
1761340629795100200,6.61410009765625,1.0735746622085571,-1.67520272731781,-0.6808435320854187
1761340629805167000,6.6241669921875,1.2837955951690674,-1.7952086925506592,-0.11664457619190216
1761340629815235000,6.634235107421875,0.7868005037307739,-1.8195103406906128,1.0078617334365845
1761340629825302000,6.644302001953125,-0.4834170639514923,-1.8003240823745728,2.286008834838867
1761340629835369200,6.654369140625,-1.7212035655975342,-1.6188609600067139,3.0209741592407227
1761340629845437000,6.66443701171875,-2.3259997367858887,-1.3850349187850952,2.8435590267181396
1761340629855504100,6.674504150390625,-2.2917137145996094,-0.9518837332725525,1.98025381565094
1761340629865571000,6.684571044921875,-1.9072506427764893,-0.2350502610206604,0.8227934241294861
1761340629875639300,6.694639404296875,-1.4294103384017944,0.573249340057373,-0.34286049008369446
1761340629885706200,6.704706298828125,-1.2338757514953613,1.1367214918136597,-1.3802783489227295
1761340629895773200,6.714773193359375,-1.381990909576416,1.1768474578857422,-2.109617233276367
1761340629905841200,6.724841064453125,-1.76596200466156,0.7404305338859558,-2.433544158935547
1761340629915908000,6.734908203125,-2.1349549293518066,-0.04910381883382797,-2.365833044052124
1761340629925975000,6.74497509765625,-2.286276340484619,-0.859281063079834,-2.009294033050537
1761340629936043000,6.75504296875,-2.1229443550109863,-1.352024793624878,-1.481439471244812
1761340629946110000,6.76510986328125,-1.6430962085723877,-1.3973027467727661,-0.9405373930931091
1761340629956177200,6.77517724609375,-0.9653592705726624,-1.179735779762268,-0.4588335156440735
1761340629966245000,6.7852451171875,-0.3507402837276459,-0.8093339204788208,-0.07905048877000809
1761340629976312000,6.79531201171875,0.008870547637343407,-0.3173733949661255,0.14274388551712036
1761340629986379300,6.805379150390625,0.08289444446563721,0.1750810444355011,0.1814127266407013
1761340629996447000,6.815447021484375,-0.05909131094813347,0.5819838643074036,0.05856563523411751
1761340630006514200,6.82551416015625,-0.2683909833431244,0.888228714466095,-0.16854262351989746
1761340630016581000,6.8355810546875,-0.3766493797302246,1.0669276714324951,-0.46531596779823303
1761340630026649300,6.8456494140625,-0.3330901861190796,1.1217319965362549,-0.7395480275154114
1761340630036716300,6.85571630859375,-0.1287936270236969,1.0307575464248657,-0.9075315594673157
1761340630046783200,6.865783203125,0.1264466494321823,0.799085259437561,-0.8716031312942505
1761340630056851200,6.875851318359375,0.30484381318092346,0.44121474027633667,-0.6849496960639954
1761340630066918100,6.885918212890625,0.411162793636322,0.03758072853088379,-0.4635709822177887
1761340630076985000,6.895985107421875,0.4484361708164215,-0.25794732570648193,-0.2868941128253937
1761340630087053000,6.906052978515625,0.38585615158081055,-0.3818109631538391,-0.23546314239501953
1761340630097120000,6.9161201171875,0.26060551404953003,-0.3283802270889282,-0.319492369890213
1761340630107187000,6.92618701171875,0.0536600723862648,-0.25562772154808044,-0.44797283411026
1761340630117255200,6.936255126953125,-0.14066173136234283,-0.0908222496509552,-0.6074514389038086
1761340630127322000,6.946322021484375,-0.24939914047718048,0.10203056037425995,-0.7805382609367371
1761340630137389000,6.95638916015625,-0.31294575333595276,0.23650676012039185,-0.8466452956199646
1761340630147457000,6.96645703125,-0.3525261878967285,0.24035237729549408,-0.787451446056366
1761340630157524200,6.976524169921875,-0.3567477762699127,0.160318523645401,-0.6344730854034424
1761340630167591200,6.986591064453125,-0.31996285915374756,0.03501574322581291,-0.4351474642753601
1761340630177659100,6.9966591796875,-0.26345303654670715,-0.11606042832136154,-0.18275603652000427
1761340630187726000,7.00672607421875,-0.2337193638086319,-0.2225589156150818,0.09997712820768356
1761340630197793000,7.01679296875,-0.18131029605865479,-0.3555753529071808,0.39803093671798706
1761340630207861200,7.026861328125,-0.22035038471221924,-0.4252236485481262,0.5886834859848022
1761340630217928200,7.03692822265625,-0.17737312614917755,-0.31050485372543335,0.6977424025535583
1761340630227995100,7.0469951171875,-0.24347011744976044,-0.2098589390516281,0.7084109783172607
1761340630238063000,7.05706298828125,-0.5223035216331482,-0.1496533453464508,0.7311373353004456
1761340630248130000,7.067130126953125,-0.6673083901405334,-0.06380581110715866,0.6438160538673401
1761340630258197000,7.077197021484375,-0.611202597618103,0.1744769811630249,0.4718741178512573
1761340630268265000,7.087264892578125,-0.4565616548061371,0.5671222805976868,0.139329731464386
1761340630278332200,7.097332275390625,-0.24985259771347046,1.083752155303955,-0.2043427973985672
1761340630288399000,7.107399169921875,-0.0663943737745285,1.5280121564865112,-0.41090449690818787
1761340630298467000,7.117467041015625,0.1333015114068985,1.6881906986236572,-0.39436981081962585
1761340630308534300,7.1275341796875,0.32967129349708557,1.3877533674240112,-0.12657061219215393
1761340630318601200,7.137601318359375,0.4318392872810364,0.647574782371521,0.28873831033706665
1761340630328669200,7.147669189453125,0.4759007692337036,-0.24100036919116974,0.2817603051662445
1761340630338736000,7.157736083984375,0.47664758563041687,-1.07845139503479,-0.051118966192007065
1761340630348803000,7.167802978515625,0.3530939519405365,-1.5808231830596924,-0.5906588435173035
1761340630358871300,7.177871337890625,0.17953863739967346,-1.6631733179092407,-1.0744513273239136
1761340630368938200,7.187938232421875,0.07734222710132599,-1.2882492542266846,-1.2839521169662476
1761340630379005200,7.198005126953125,0.10616903007030487,-0.8126505613327026,-1.1174250841140747
1761340630389073200,7.2080732421875,0.2504258155822754,-0.4913037419319153,-0.6611788868904114
1761340630399140000,7.21814013671875,0.47963017225265503,-0.3514114022254944,-0.13703249394893646
1761340630409207000,7.22820703125,0.7479769587516785,-0.2991202473640442,0.19876761734485626
1761340630419275000,7.23827490234375,0.953793466091156,-0.20030421018600464,0.2719343304634094
1761340630429342000,7.248342041015625,1.0297424793243408,-0.042758792638778687,0.14948564767837524
1761340630439409000,7.258408935546875,0.9764400124549866,0.060880616307258606,0.07391425967216492
1761340630449477000,7.26847705078125,0.8111488223075867,0.12225235998630524,0.05064408481121063
1761340630459544000,7.2785439453125,0.5813863277435303,0.2384422868490219,-0.0061862291768193245
1761340630469611300,7.288611328125,0.31301501393318176,0.33922111988067627,-0.09509479254484177
1761340630479679200,7.29867919921875,0.0017160200513899326,0.42172154784202576,-0.2178933322429657
1761340630489746200,7.30874609375,-0.33839255571365356,0.37275639176368713,-0.37417295575141907
1761340630499813000,7.318813232421875,-0.595457911491394,0.48096993565559387,-0.5688387751579285
1761340630509881000,7.328881103515625,-0.6540258526802063,0.6108861565589905,-0.9393803477287292
1761340630519948000,7.338947998046875,-0.46723172068595886,0.6029958128929138,-1.244814157485962
1761340630530015200,7.34901513671875,-0.14692002534866333,0.33876463770866394,-1.275992512702942
1761340630540083200,7.359083251953125,0.14362002909183502,-0.002446829341351986,-0.9713695645332336
1761340630550150100,7.369150146484375,0.336375892162323,-0.2802981436252594,-0.4657420814037323
1761340630560216800,7.379216796875,0.4422622621059418,-0.4575549066066742,0.05791560932993889
1761340630570284800,7.389284912109375,0.4802354574203491,-0.5293979048728943,0.5062808990478516
1761340630580351700,7.399351806640625,0.4487800598144531,-0.5314526557922363,0.8056952357292175
1761340630590418700,7.409418701171875,0.38798728585243225,-0.4791063368320465,0.9469703435897827
1761340630600486000,7.41948583984375,0.32097750902175903,-0.41032978892326355,0.9668746590614319
1761340630610553900,7.429553955078125,0.2451586276292801,-0.31349459290504456,0.8711438775062561
1761340630620620800,7.439620849609375,0.18143312633037567,-0.1554531306028366,0.6874280571937561
1761340630630689000,7.44968896484375,0.11812792718410492,0.044313520193099976,0.45330339670181274
1761340630640756000,7.459755859375,0.050333764404058456,0.21782098710536957,0.23196884989738464
1761340630650823000,7.469822998046875,-0.012479552067816257,0.32772353291511536,0.06429757177829742
1761340630660889900,7.479889892578125,-0.06134084239602089,0.3571213185787201,-0.04128122702240944
1761340630670957800,7.489957763671875,-0.1012408584356308,0.3056200444698334,-0.12058829516172409
1761340630681024800,7.500024658203125,-0.1480671465396881,0.1564234346151352,-0.13959451019763947
1761340630691091700,7.510091796875,-0.16938574612140656,0.02408003807067871,-0.11837363988161087
1761340630701159700,7.52015966796875,-0.1611691117286682,-0.07888971269130707,-0.07937341928482056
1761340630711227000,7.530226806640625,-0.13053397834300995,-0.11963128298521042,-0.01716463826596737
1761340630721293800,7.5402939453125,-0.08697745949029922,-0.11252014338970184,0.056731514632701874
1761340630731361800,7.55036181640625,-0.024379853159189224,-0.12762293219566345,0.1213667020201683
1761340630741428700,7.5604287109375,0.02244897559285164,-0.18217012286186218,0.16778919100761414
1761340630751496000,7.570495849609375,0.0492347851395607,-0.23634175956249237,0.2032632976770401
1761340630761564000,7.58056396484375,0.07265135645866394,-0.3180847465991974,0.2405860424041748
1761340630771630800,7.590630859375,0.07127103954553604,-0.4062095582485199,0.2794623374938965
1761340630781697800,7.60069775390625,0.05402110889554024,-0.44341665506362915,0.3204478919506073
1761340630791766000,7.61076611328125,0.016651097685098648,-0.4517030715942383,0.37250763177871704
1761340630801833000,7.6208330078125,-0.052268173545598984,-0.41481339931488037,0.3712329864501953
1761340630811900000,7.63089990234375,-0.11572118103504181,-0.32575514912605286,0.22225415706634521
1761340630821968000,7.6409677734375,-0.19992107152938843,-0.19483661651611328,-0.008629818446934223
1761340630832034800,7.651034912109375,-0.30425676703453064,-0.08959275484085083,-0.2329729199409485
1761340630842101800,7.661101806640625,-0.39490967988967896,-0.024105260148644447,-0.4031405746936798
1761340630852169700,7.671169677734375,-0.437531977891922,0.013704968616366386,-0.4453546106815338
1761340630862236700,7.681236572265625,-0.43256333470344543,-0.005373422056436539,-0.34454989433288574
1761340630872303600,7.6913037109375,-0.39580291509628296,-0.08049826323986053,-0.18656156957149506
1761340630882371800,7.701371826171875,-0.33528459072113037,-0.1440427601337433,-0.06551072746515274
1761340630892438800,7.711438720703125,-0.25178730487823486,-0.20728324353694916,0.00757440272718668
1761340630902506000,7.721506103515625,-0.15443013608455658,-0.2716633379459381,0.04502493515610695
1761340630912573700,7.73157373046875,-0.05120629072189331,-0.31444889307022095,0.06316452473402023
1761340630922641000,7.741640869140625,0.03581780195236206,-0.32012176513671875,0.09161925315856934
1761340630932707800,7.751707763671875,0.08142949640750885,-0.2888016402721405,0.12480942159891129
1761340630942775800,7.76177587890625,0.0977204442024231,-0.21639546751976013,0.12961435317993164
1761340630952842800,7.7718427734375,0.08342139422893524,-0.07868368178606033,0.10408210009336472
1761340630962910000,7.781909912109375,0.04938603937625885,0.07119644433259964,0.05368785932660103
1761340630972978000,7.79197802734375,0.016726363450288773,0.17075233161449432,0.007623161189258099
1761340630983044900,7.802044921875,0.004513303749263287,0.20412380993366241,-0.009481231682002544
1761340630993111800,7.81211181640625,-0.004228523001074791,0.18825936317443848,0.010757461190223694
1761340631003179800,7.8221796875,-0.020941954106092453,0.15942801535129547,0.05902644246816635
1761340631013246700,7.832246826171875,-0.05557689443230629,0.12350329756736755,0.1136300340294838
1761340631023313700,7.842313720703125,-0.08538272976875305,0.1189117431640625,0.1510612964630127
1761340631033382000,7.8523818359375,-0.11965841799974442,0.1184166669845581,0.17041447758674622
1761340631043448800,7.86244873046875,-0.15769129991531372,0.10277672111988068,0.16908203065395355
1761340631053516000,7.87251611328125,-0.20431046187877655,0.08499346673488617,0.14828753471374512
1761340631063583700,7.882583740234375,-0.2418934404850006,0.05264471471309662,0.12080696225166321
1761340631073651000,7.89265087890625,-0.26822277903556824,-0.0003537917509675026,0.08611369878053665
1761340631083718000,7.9027177734375,-0.28383007645606995,-0.051763586699962616,0.0658951848745346
1761340631093785900,7.912785888671875,-0.2999877333641052,-0.08818497508764267,0.08825588971376419
1761340631103852800,7.922852783203125,-0.3216360807418823,-0.13119831681251526,0.11196673661470413
1761340631113919700,7.932919677734375,-0.31870847940444946,-0.15934473276138306,0.13910621404647827
1761340631123988000,7.942988037109375,-0.3158109784126282,-0.18651194870471954,0.16411790251731873
1761340631134055000,7.953054931640625,-0.309660941362381,-0.22353121638298035,0.16899947822093964
1761340631144121900,7.963121826171875,-0.29899877309799194,-0.2772224545478821,0.24476060271263123
1761340631154189800,7.97318994140625,-0.3002443313598633,-0.45223209261894226,0.2989753484725952
1761340631164256800,7.9832568359375,-0.3126596212387085,-0.37020421028137207,0.18946276605129242
1761340631174323700,7.99332373046875,-0.2529326379299164,-0.22839035093784332,-0.02756887674331665
1761340631184391700,8.0033916015625,-0.21042460203170776,-0.06886700540781021,-0.1680745929479599
1761340631194458600,8.013458740234375,-0.21619248390197754,0.006080741994082928,-0.18228521943092346
1761340631204525800,8.02352587890625,-0.2511775493621826,0.028833284974098206,-0.11167215555906296
1761340631214593000,8.033593017578125,-0.2788826823234558,0.08675570785999298,-0.05072357878088951
