time,seconds_elapsed,z,y,x
1761391517221891800,0.087891845703125,0.6261983004212379,0.014227993447333574,0.07986322578787804
1761391517231958000,0.0979580078125,0.7269844872504472,0.011342355008423328,0.059295800185948606
1761391517242024000,0.10802392578125,0.6978846494942903,-0.016749401683732866,0.04471782425716519
1761391517252089900,0.11808984375,0.6357125632196664,-0.04368212453387677,0.05354162057340145
1761391517262157000,0.128156982421875,0.5678431420862674,0.004405176156386733,0.05981514788493514
1761391517272223000,0.138222900390625,0.47667584747374053,0.0747040163937956,0.08014291951209307
1761391517282289000,0.148288818359375,0.39583880821764467,0.09960391824208199,0.127570148858428
1761391517292354800,0.158354736328125,0.2535971599280834,0.1658537753496319,0.11524798903241752
1761391517302420700,0.168420654296875,0.08893383647203446,0.2840101261094212,0.06898088950663804
1761391517312487000,0.17848681640625,-0.06846037276387214,0.36328064670115706,0.04948796126842499
1761391517322554400,0.188554443359375,-0.1507756678789854,0.3831285258568823,0.06509966415911912
1761391517332620300,0.198620361328125,-0.21259528745412826,0.35000016323700545,0.12986030562222003
1761391517342686200,0.208686279296875,-0.23701602748334408,0.26942645109221336,0.143383511801064
1761391517352752000,0.218752197265625,-0.2374462355941534,0.2016821907084435,0.14229191717207432
1761391517362818300,0.228818359375,-0.22998247558474538,0.1578918565597385,0.1441233703829348
1761391517372885200,0.23888525390625,-0.17662907105982303,0.0803469907168299,0.10873232352808117
1761391517382951200,0.248951171875,-0.03397299675047397,0.011472849520295857,0.0768662359289825
1761391517393017300,0.259017333984375,0.16894611534178255,-0.05402268208861351,0.05673866304904222
1761391517403083300,0.269083251953125,0.349186947157979,-0.1258089113395661,0.03912964886128902
1761391517413149400,0.2791494140625,0.464158895727992,-0.14654643281139432,-0.014283961418271063
1761391517423216400,0.28921630859375,0.4393061940222978,-0.14278700721263884,-0.05568842334374785
1761391517433282300,0.2992822265625,0.30588381200432774,-0.18446582910008727,-0.09453735556751489
1761391517443348200,0.30934814453125,0.21773148129880426,-0.1700285037510097,-0.12739172355160117
1761391517453414100,0.3194140625,0.14267653257548807,-0.13386691091507671,-0.1135978837378323
1761391517463480300,0.329480224609375,0.10142974542975425,-0.13318038995563983,-0.09121084149330853
1761391517473546200,0.339546142578125,0.06648994947373867,-0.1554959013339132,-0.10574015597477554
1761391517483613200,0.34961328125,0.0668067603379488,-0.1816495295703411,-0.15874123993068934
1761391517493679400,0.359679443359375,0.060142041751742356,-0.20634952493235467,-0.22443857772201298
1761391517503745300,0.369745361328125,0.015017536389827727,-0.20756533046290276,-0.2648985984042287
1761391517513811500,0.3798115234375,-0.060930561780929565,-0.20173779335319994,-0.3080462507352233
1761391517523877400,0.38987744140625,-0.12656126407682894,-0.16675554649494587,-0.301274856904149
1761391517533944300,0.3999443359375,-0.2221434525221586,-0.09692373924739658,-0.2782315427079797
1761391517544010200,0.41001025390625,-0.3305138108700514,-0.025293796536698936,-0.26425270171612497
1761391517554076200,0.420076171875,-0.37857378516197204,0.019193360769748688,-0.23288842615932226
1761391517564142300,0.430142333984375,-0.3661176236927509,-0.008727861661091447,-0.16633607897385955
1761391517574208300,0.440208251953125,-0.36822950128018855,-0.01970226013995707,-0.09269275061413645
1761391517584274200,0.450274169921875,-0.41935470836162564,-0.013067644431069492,-0.07451178175732492
1761391517594341400,0.46034130859375,-0.448339979827404,-0.0030132834065705535,-0.07574395390078426
1761391517604407300,0.4704072265625,-0.43443888024687766,-0.031736908261477945,-0.08331804241687059
1761391517614473200,0.48047314453125,-0.4283768037289381,-0.09476641508303582,-0.06678337946236133
1761391517624539400,0.490539306640625,-0.4224152649760246,-0.06925254605486988,-0.0881429783552885
1761391517634605000,0.50060498046875,-0.38642099153101445,0.005204948231950402,-0.08539148769006133
1761391517644672500,0.510672607421875,-0.3907902926564216,0.04831942894570529,-0.04819236849993467
1761391517654738200,0.52073828125,-0.3903934022933244,0.016142741027474403,0.018408786263316868
1761391517664804000,0.53080419921875,-0.35809856788814065,-0.00751907039321959,0.0681495532490313
1761391517674870300,0.540870361328125,-0.2875169651865959,0.007726794859766959,0.07765913987234234
1761391517684936200,0.550936279296875,-0.19486323140859602,0.028648221531137823,0.08718085532486439
1761391517695003400,0.56100341796875,-0.06112170043885708,0.08219502973631024,0.08504135907813906
1761391517705069300,0.5710693359375,0.047022447937726974,0.1211723375800997,0.10355579767301679
1761391517715135200,0.58113525390625,0.17194880428910253,0.09821472890600562,0.1492513809211552
1761391517725201400,0.591201416015625,0.24899521909058092,0.048954438913613556,0.14903510782197116
1761391517735267000,0.60126708984375,0.22027298247516153,0.01680851145982742,0.10361074273064733
1761391517745333200,0.611333251953125,0.12445523170828819,0.03845131120830774,0.03071297204121947
1761391517755400200,0.621400146484375,0.08378069149255753,0.011917670678347349,-0.03604103519618511
1761391517765466000,0.631466064453125,0.1177577798962593,0.011748086265102028,-0.06907499753087759
1761391517775532300,0.6415322265625,0.1888636987328529,-0.0185473910164088,-0.04711027235165238
1761391517785598200,0.65159814453125,0.25134207447767254,-0.05087481251694262,-0.019106413138657807
1761391517795664400,0.661664306640625,0.2598573893666267,-0.03235277513749897,0.013441811505705118
1761391517805731300,0.6717314453125,0.18216741596460342,0.03212020849063992,0.0239811795681715
1761391517815797200,0.68179736328125,0.03161737353503704,0.05656286809071898,0.07419716285020113
1761391517825863400,0.691863525390625,-0.15864683964550494,0.1282573274049908,0.09618746086210012
1761391517835929300,0.701929443359375,-0.2725643107265234,0.18928382384106515,0.08857187129184603
1761391517845995300,0.711995361328125,-0.2971592382788658,0.17452625356167553,0.10065130840316414
1761391517856062200,0.722062255859375,-0.25947394300699234,0.13458682268746197,0.10475991276577114
1761391517866128100,0.732128173828125,-0.1401093124359846,0.12572108692564068,0.0747033588066697
1761391517876194300,0.7421943359375,-0.02716273221373558,0.08520750942528248,0.07239215925484896
1761391517886260200,0.75226025390625,0.0020271219134330746,-0.038006270854547615,0.06155249307155609
1761391517896326400,0.762326416015625,0.03895020064115524,-0.14329663723520933,0.012499854480475187
1761391517906392300,0.772392333984375,0.09883680632710456,-0.20218129933699963,-0.08572057351395487
1761391517916459300,0.782459228515625,0.084626494666934,-0.24198994343839583,-0.17549144533202052
1761391517926525400,0.792525390625,0.009069441640377044,-0.2821932859458029,-0.23065789062827824
1761391517936591400,0.80259130859375,-0.1078542255192995,-0.3130499773066491,-0.26082842635586856
1761391517946657300,0.8126572265625,-0.2988169423580169,-0.35280374941565096,-0.2957416265659034
1761391517956723200,0.82272314453125,-0.45987435027658935,-0.42950595388934015,-0.27270927215516566
1761391517966790100,0.8327900390625,-0.5536877754837274,-0.46435675638765095,-0.23603636879622936
1761391517976856300,0.842856201171875,-0.5478378804117441,-0.41558819543495773,-0.17420023647770286
1761391517986922200,0.852922119140625,-0.48598611213266846,-0.3300886442605406,-0.06883768164366483
1761391517996988400,0.862988525390625,-0.43015375027358527,-0.26232714048102496,0.01360796185284853
1761391518007054300,0.873054443359375,-0.4506926804333925,-0.20164602341651916,0.08849705248996614
1761391518017120300,0.883120361328125,-0.5130763636320829,-0.13375241768993437,0.13093334168121218
1761391518027187500,0.8931875,-0.5471913992017507,-0.0595920797187835,0.13004048449471592
1761391518037253400,0.90325341796875,-0.5079413388311863,-0.033654724581539626,0.10931611476540565
1761391518047319300,0.9133193359375,-0.4549193582177162,-0.0377739234033972,0.10775602584183215
1761391518057385200,0.92338525390625,-0.3741968852519989,-0.04113170939870178,0.09057283585071563
1761391518067451100,0.933451171875,-0.25781390084028244,-0.06439816482625901,0.047574967253953215
1761391518077518300,0.943518310546875,-0.21107903767228126,-0.1429271463356912,0.02383139583393931
1761391518087584300,0.953584228515625,-0.23269465715289114,-0.19937099115662277,0.05596197958812117
1761391518097650200,0.963650146484375,-0.21874036608040331,-0.1296764004226774,0.012689531833678483
1761391518107716400,0.97371630859375,-0.1327817460268736,-0.035935090603679415,-0.07059300087839365
1761391518117782300,0.9837822265625,-0.09412731346189976,-0.006824731453508138,-0.08167991982102393
1761391518127849200,0.99384912109375,-0.023640987828373906,-0.027280367244035004,-0.05005816237181425
1761391518137915400,1.003915283203125,0.07458850025534629,-0.043209319390356535,0.00667041767463088
1761391518147981000,1.01398095703125,0.13083353456854818,0.007178294131532311,-0.004000760073959827
1761391518158047200,1.024047119140625,0.2208586734086275,0.04178845627438277,-0.010843027184158563
1761391518168113200,1.034113037109375,0.3288216199994087,0.10368936092481017,0.0037070378243923186
1761391518178179300,1.044179443359375,0.41366497228741644,0.15266250453889368,0.05018631879612803
1761391518188246300,1.054246337890625,0.42893736022114753,0.14547569830734283,0.11611541951671242
1761391518198312200,1.064312255859375,0.3721487205505371,0.09062763477787375,0.13692790592089293
1761391518208378400,1.07437841796875,0.18572832331657407,-0.02272328846156597,0.08689780059978365
1761391518218444300,1.0844443359375,-0.0444593194514513,-0.1402166452679783,0.01872033643051982
1761391518228510500,1.094510498046875,-0.24602234075963494,-0.179562092304416,-0.06166092188209295
1761391518238577400,1.104577392578125,-0.3572895895928144,-0.13289404729492962,-0.18312500895038247
1761391518248643300,1.114643310546875,-0.37918227244913577,-0.01504084420017898,-0.18128055012747643
1761391518258709200,1.124709228515625,-0.23789222579598426,0.045349144430644805,-0.11356931523047387
1761391518268775200,1.134775146484375,-0.03480652496516704,0.007861052231304348,-0.0646734746363014
1761391518278841300,1.14484130859375,0.18781623550653456,-0.04156502278205007,-0.04757357901446521
1761391518288907300,1.1549072265625,0.30398762299418447,-0.04692549036927521,-0.08725165553875266
1761391518298974200,1.16497412109375,0.37349955063760276,-0.020425752108916638,-0.11659852685853839
1761391518309040400,1.175040283203125,0.4552361690819263,-0.009652977149374782,-0.08758212960213423
1761391518319106300,1.185106201171875,0.5008230312585831,-0.04782952653691172,-0.05485014588870108
1761391518329172000,1.195171875,0.39186522841155524,-0.08664536020867526,-0.009020780193060636
1761391518339238000,1.20523779296875,0.0881517461836338,-0.15827884658332914,0.05005940448082983
1761391518349304800,1.215304931640625,-0.23523908093869686,-0.17421711454726754,0.07966346543207764
1761391518359371000,1.22537109375,-0.45396191136240954,-0.07060162257626652,0.0471144370701164
1761391518369437000,1.23543701171875,-0.5389969868302344,0.012021934770420193,-0.013678323675319551
1761391518379503000,1.245503173828125,-0.5229524454802275,0.03256857331264764,-0.012324205652624367
1761391518389568800,1.25556884765625,-0.3826870656996965,0.03872662101835012,-0.0030872254256159065
1761391518399635000,1.265635009765625,-0.21610300331413745,0.02339676727633923,-0.00809869691208005
1761391518409702000,1.275701904296875,-0.06921557504534721,-0.07143434707336127,-0.03439823642522096
1761391518419767800,1.285767822265625,0.06207271755337715,-0.6599013941891491,0.05712101343013346
1761391518429834000,1.295833984375,0.4987947403013706,0.08196027113236487,-0.3965530209016055
1761391518439900000,1.30589990234375,0.518497804158926,0.5727974034927785,-0.6422964716546237
1761391518449966000,1.315966064453125,0.5020505272269249,0.1594821944911033,-0.052260421656444664
1761391518460033000,1.326032958984375,0.4062760310798883,0.011592165051028131,0.2495101828753948
1761391518470099000,1.336098876953125,0.2230114675283432,0.12243485006289556,0.24610548899844287
1761391518480165000,1.3461650390625,0.026939444851875303,0.1621296950588934,0.2209112073134631
1761391518490230800,1.356230712890625,-0.16821137132644653,0.26735874144006516,0.2227151149302721
1761391518500296700,1.366296630859375,-0.23177929587364196,0.39498109540976584,0.16921616445481777
1761391518510363000,1.37636279296875,-0.23250293397307395,0.4556667059862986,0.13924407390877605
1761391518520429800,1.386429931640625,-0.1889911245048046,0.4261043652849272,0.13033362222239375
1761391518530496000,1.39649609375,-0.01992342860996723,0.34262484869603066,0.15657507487274705
1761391518540562000,1.40656201171875,0.07942541889250278,0.2250914886727929,0.1474731192022562
1761391518550627800,1.4166279296875,0.08328852406144141,0.13220320635340177,0.07466996799372136
1761391518560694000,1.426694091796875,0.009209726893901824,0.027704323710571042,-0.04474763487353921
1761391518570761000,1.436760986328125,-0.11564531778693199,-0.0011838668891694397,-0.07126600476913153
1761391518580827000,1.446826904296875,-0.22429449307620525,0.057276135493186296,0.05768062007427215
1761391518590892800,1.456892822265625,-0.31698037555813785,0.10792035869122482,0.12044270813129841
1761391518600958700,1.466958740234375,-0.27230127587616443,0.1535442192768678,0.16476583398245273
1761391518611025000,1.47702490234375,-0.2345996139913797,0.09382694227583706,0.12997655241303144
1761391518621090800,1.4870908203125,-0.2548246558964252,0.011363511960883624,0.04630070953443646
1761391518631157800,1.49715771484375,-0.3141735014438629,0.012709880501963198,0.011840952180325985
1761391518641224000,1.507223876953125,-0.4456546862661838,0.0988302669884637,-0.05078026610128581
1761391518651289900,1.517289794921875,-0.5171154098898172,0.1501482749619521,-0.006205722772330046
1761391518661356000,1.52735595703125,-0.656004825142026,0.046094473772076885,-0.0136151953112334
1761391518671422000,1.537421875,-0.7633575308799743,-0.27528252017665655,-0.0977704192046076
1761391518681489000,1.547489013671875,-0.7195154665440321,-0.7909137193907052,-0.09297544001303612
1761391518691555000,1.55755517578125,-0.3544464751213789,-0.014930789688136428,-0.3502362370152026
1761391518701620700,1.567620849609375,-0.28517069432139397,0.2679993226322345,-0.4896750297784805
1761391518711687000,1.57768701171875,-0.36031565941572186,-0.03834361305013299,-0.06226634042933583
1761391518721752800,1.5877529296875,-0.5410597645789385,-0.06338732554959133,0.15273856544978917
1761391518731819000,1.597819091796875,-0.5030079740822315,-0.03743908369215205,0.06340433148331939
1761391518741886000,1.607885986328125,-0.2747515916377306,-0.4652554587930441,-0.11111819575130939
1761391518751952000,1.617951904296875,0.2271808621674776,-0.36212672742567953,0.03064114891402423
1761391518762018000,1.62801806640625,0.7881377518713474,-0.056265748307667666,-0.19825491967350242
1761391518772084000,1.638083984375,0.6941437094002961,-0.22121764291413126,-0.14924889670312405
1761391518782150000,1.64814990234375,0.6681435912251472,-0.23859646507520227,-0.2441202334653586
1761391518792217000,1.658217041015625,0.8825976582884788,-0.076254022314772,-0.3024884339449927
1761391518802282800,1.66828271484375,1.0518845498919487,-0.11036697552520781,-0.18777352887596935
1761391518812349000,1.678348876953125,1.1402817952692508,-0.21135599145013836,-0.07958966954350472
1761391518822414800,1.688414794921875,0.9970961441278458,-0.26733915995676066,-0.11039631121754645
1761391518832481000,1.69848095703125,0.6413099448353051,-0.26569157541282473,-0.2079429681362584
1761391518842548000,1.7085478515625,0.17023907776176928,-0.2494309618930332,-0.3412210828453302
1761391518852614000,1.71861376953125,-0.21169512374401092,-0.17210684439502655,-0.28077370147146286
1761391518862680000,1.72868017578125,-0.3633043198376894,-0.03553778011547401,-0.20417970661260187
1761391518872746000,1.73874609375,-0.4366027802824974,0.15029696271764115,-0.14410437342152
1761391518882812000,1.74881201171875,-0.5922779106408357,0.32790311691500246,-0.07103745671026408
1761391518892877800,1.7588779296875,-0.574647561404109,0.3614052447507158,-0.030175431098416444
1761391518902944800,1.76894482421875,-0.35158114881813524,0.2904598137054592,0.016870105453953146
1761391518913011000,1.779010986328125,-0.19989421131312846,0.18438922019992024,0.06203991126231849
1761391518923076900,1.789076904296875,-0.0968915174782276,0.11553951932489871,0.08354191430062055
1761391518933142800,1.799142822265625,-0.003617605975270271,0.11415020212465897,0.03761193777471781
1761391518943209000,1.809208984375,0.1392950734436512,0.0540438892734237,-0.0033543519292026755
1761391518953275000,1.81927490234375,0.2565162622451782,0.002985683013591915,0.016087138382717966
1761391518963341800,1.829341796875,0.309842778763175,0.006181885239016264,-0.028595176169648764
1761391518973408000,1.839407958984375,0.3678384561359882,0.018286438525281844,-0.08303213814757764
1761391518983474000,1.849473876953125,0.3662362816363573,0.026114921927545217,-0.08354059912636876
1761391518993539800,1.859539794921875,0.31373101837337014,0.0038213849190622566,-0.07413914905264973
1761391519003605800,1.869605712890625,0.22653262739181518,-0.0761868570963852,-0.047294542877376076
1761391519013672700,1.879672607421875,0.15143500857055187,-0.13555957670975477,-0.04476736248731613
1761391519023739000,1.88973876953125,0.07814648499786854,-0.10653660358209162,-0.07904204559810458
1761391519033804800,1.8998046875,-0.0012742577195167541,-0.04831009486177936,-0.13118307865858078
1761391519043871000,1.90987109375,-0.12308160526752471,-0.04504051687289029,-0.11066599500440061
1761391519053937000,1.91993701171875,-0.3608540040761232,-0.060286172063322735,-0.10526267465613781
1761391519064003800,1.93000390625,-0.4766133036315441,-0.10209336957079358,-0.08942622309885918
1761391519074070000,1.940070068359375,-0.45187692178189753,-0.12243329742662608,-0.04935403269045054
1761391519084136000,1.950135986328125,-0.40226328830718994,-0.13483858722513542,0.008577055013552307
1761391519094201900,1.960201904296875,-0.2828951506048441,-0.14970023893350734,0.07254866499081254
1761391519104267800,1.970267822265625,-0.1485100610345602,-0.13711735494523308,0.1358035780660808
1761391519114334000,1.980333984375,-0.017300678890943527,-0.1527543475408107,0.12902458545044063
1761391519124401000,1.99040087890625,0.06908990283906459,-0.15814002263452856,0.12311660351566969
1761391519134466800,2.000466796875,0.12565700871348381,-0.16345771052595226,0.10117591679915786
1761391519144533000,2.010532958984375,0.16105039365589618,-0.19436054258346555,0.05681918093934655
1761391519154599000,2.020598876953125,0.20358546704649924,-0.18476411792691796,0.03240421306379139
1761391519164665000,2.0306650390625,0.1917144119888544,-0.14615962545089423,0.05379632598683238
1761391519174732000,2.04073193359375,0.1615501598715782,-0.12725671726139262,0.09723806589357555
1761391519184798000,2.0507978515625,0.0046808512926101685,-0.06325296314677689,0.1372502697430551
1761391519194863900,2.06086376953125,-0.22422376592755316,0.007149702791287563,0.16397789847515523
1761391519204929800,2.0709296875,-0.3215092511594295,0.0296017182971118,0.18980543656237422
1761391519214996000,2.080995849609375,-0.31734219460785384,0.09355654610292985,0.19711627103239296
1761391519225062000,2.091061767578125,-0.22863865976035594,0.1413942559462972,0.20997940586730837
1761391519235128800,2.10112890625,-0.1167600010305643,0.16270066334726288,0.2222048273205757
1761391519245195000,2.111195068359375,-0.04682020336389541,0.17550560172153637,0.23601152661591768
1761391519255261000,2.121260986328125,-0.07719429883956909,0.16347060654014348,0.15132869865186513
1761391519265327000,2.1313271484375,-0.088705288413167,0.12440672552459872,0.10447276638746261
1761391519275393000,2.14139306640625,-0.22881752345860004,0.10536531304670498,0.04044394633024931
1761391519285460000,2.1514599609375,-0.3508247774928808,0.11009604962933808,-0.00593450461551547
1761391519295526000,2.16152587890625,-0.35062779361605645,0.15005728134340607,-0.014706278483569622
1761391519305591800,2.171591796875,-0.3197457486182451,0.15379512529801576,0.008327391101419925
1761391519315657700,2.18165771484375,-0.2561158647507429,0.17696126215625554,0.04467142783217132
1761391519325724000,2.191723876953125,-0.0990963340461254,0.1879949713406153,0.07672025158703327
1761391519335789800,2.201789794921875,0.048666708013415334,0.14717652914216742,0.0924804230377078
1761391519345857000,2.21185693359375,0.19145488426983356,0.1143745123998262,0.11372837824970483
1761391519355923000,2.2219228515625,0.2665793910980224,0.1152417054221034,0.13437011119686065
1761391519365988900,2.23198876953125,0.27942250605821606,0.11091842626235447,0.1470166806716472
1761391519376055000,2.242054931640625,0.22878069857954977,0.11490224433466792,0.18521957007683812
1761391519386121000,2.252120849609375,-0.030796704801917076,0.12008319063652306,0.14699410351365805
1761391519396188000,2.26218798828125,-0.40994273689389227,0.1745844317560084,0.0427121835231781
1761391519406254000,2.272254150390625,-0.6582838759899139,0.14395848041111603,0.03457366605736315
1761391519416319700,2.28231982421875,-0.733766110214591,0.09713838664507493,0.020607173090428112
1761391519426386000,2.292385986328125,-0.6165712248980999,0.03857192364698276,0.007253185998648405
1761391519436451800,2.302451904296875,-0.37740941755771634,-0.04716203907150775,-0.01649403868317604
1761391519446518000,2.31251806640625,-0.13796411710083484,-0.2005010728987865,0.017913988483697175
1761391519456585000,2.3225849609375,0.0964513724952936,-0.2748590340675786,-0.020127280618995425
1761391519466651000,2.33265087890625,0.18720657917559147,-0.29626413433635607,-0.07172405073493719
1761391519476717000,2.342717041015625,0.24361644866168497,-0.32746823262907565,-0.10217705666571855
1761391519486783000,2.352782958984375,0.19007307452261446,-0.2334066413471475,-0.12766082281656563
1761391519496849200,2.36284912109375,0.08672609729468822,-0.16025909714773295,-0.1096249615188688
1761391519506916000,2.372916015625,0.06650163991153239,-0.14453847225615754,-0.0579327682044357
1761391519516981800,2.382981689453125,0.08387655308246612,-0.1104877523606643,-0.0002989829465746879
1761391519527048000,2.3930478515625,0.0803133076429367,-0.06628706557909027,0.029364699237421153
1761391519537113900,2.40311376953125,0.02278700134754181,-0.045281906147021794,0.06006305823139846
1761391519547180000,2.413179931640625,-0.10249649787843226,-0.052341944193746895,0.0901561448086053
1761391519557246000,2.423245849609375,-0.21668635616004467,-0.04154138617813587,0.12027743456698953
1761391519567313000,2.43331298828125,-0.25452421164512634,-0.03524785725818947,0.10201061405763029
1761391519577379000,2.443379150390625,-0.17841770804226398,-0.04780585340037942,0.026356311201676724
1761391519587445000,2.453445068359375,-0.07101181081235408,-0.07438119591390714,-0.04562397931665182
1761391519597511200,2.46351123046875,-0.022537410500645637,-0.07721716825850307,-0.06887962108924985
1761391519607576800,2.473576904296875,0.017447978407144547,-0.04656193602019921,-0.05894552544355392
1761391519617643800,2.483643798828125,0.07441898890733718,-0.004115472494810819,-0.026262860764563082
1761391519627710000,2.4937099609375,0.10963818632662296,0.010674009026493876,0.017594401140511036
1761391519637776000,2.50377587890625,0.15211071587502956,-0.005014028769731521,0.018533654752001166
1761391519647842000,2.513842041015625,0.14621113644242287,-0.014903700751811265,-0.01582293448857963
1761391519657908000,2.523907958984375,0.11628770734369755,-0.07000226844362914,-0.11293583963252603
1761391519667974000,2.533973876953125,0.0807318253159523,-0.10922622625855728,-0.15514854920096693
1761391519678041000,2.544041015625,0.005253682744503021,-0.13996952037280425,-0.19632409774139523
1761391519688107000,2.55410693359375,-0.019516016852855683,-0.17576761365858837,-0.2155106634441763
1761391519698173000,2.5641728515625,-0.013763736936450003,-0.20310794919524341,-0.2208053357861936
1761391519708238800,2.57423876953125,-0.03692892394661903,-0.21816972658559677,-0.22164763182923197
1761391519718304800,2.5843046875,-0.05767302128970623,-0.19943495977092532,-0.22235431879386305
1761391519728372000,2.5943720703125,-0.05251636917889118,-0.16941303873378782,-0.18546075842157006
1761391519738438000,2.60443798828125,-0.047372576549649235,-0.14690733854565768,-0.10922741356864571
1761391519748503800,2.61450390625,-0.05742635305225849,-0.1491844531647861,-0.05958849952220916
1761391519758570000,2.624570068359375,-0.06284954714477062,-0.13792246991619467,-0.03375942706502974
1761391519768636000,2.634635986328125,-0.09179740920960902,-0.1068914814343676,-0.017822730003669858
1761391519778702000,2.6447021484375,-0.11602174988389015,-0.09310984351504593,0.010739639874920248
1761391519788769000,2.65476904296875,-0.15126549722254276,-0.08810659186765551,0.053173079521954054
1761391519798835000,2.6648349609375,-0.16004618504941462,-0.08397014965005219,0.06728774878792464
1761391519808900900,2.67490087890625,-0.14769406847655772,-0.06424509315639734,0.08202880632393061
1761391519818966800,2.684966796875,-0.18550503595471382,-0.05940477698575705,0.09079298140741884
1761391519829033000,2.695032958984375,-0.20739830333292483,-0.06807948368750512,0.046439533483237025
1761391519839100000,2.705099853515625,-0.16432020910680292,-0.0723297250105068,0.0019410510651767252
1761391519849165800,2.715165771484375,-0.06513152060210704,-0.06922682709172367,-0.024285788537934422
1761391519859232000,2.72523193359375,0.0246913736641407,-0.07458009775318204,-0.016165902707353234
1761391519869298000,2.7352978515625,0.039971360382437704,-0.05775675405040383,0.02839147029109299
1761391519879364000,2.745364013671875,-0.05919336272478103,0.0010121727172285318,0.029411826314777133
1761391519889430000,2.755429931640625,-0.19128128126859664,0.0468774865090847,0.016245689945295454
1761391519899497000,2.7654970703125,-0.3228758633375168,0.02562313808891922,0.022998817467316985
1761391519909563100,2.775563232421875,-0.4231774815201759,0.02702387173231691,0.021377134549617767
1761391519919628800,2.78562890625,-0.41920623980164523,0.05449661974329501,-0.018136764388903975
1761391519929695000,2.795695068359375,-0.311868147110939,0.05603387578055262,-0.023601824861764906
1761391519939761000,2.805760986328125,-0.14223755663633345,0.03396211003027856,-0.010868307755887508
1761391519949827800,2.815827880859375,0.011501052701473235,0.04279171503279358,-0.0008598316997289657
1761391519959894000,2.82589404296875,0.13773323095440865,0.06432802219949663,0.0270366216160357
1761391519969960000,2.8359599609375,0.23922435118257998,0.08627813433147967,0.036803105609863995
1761391519980026000,2.846026123046875,0.3103460521101951,0.07178447568528354,0.058946036900207395
1761391519990092000,2.856092041015625,0.33337329195439813,0.030589309128932655,0.031994244023412464
1761391520000158000,2.866157958984375,0.3416495373904705,-0.007735562688112259,0.009713146371394395
1761391520010225200,2.87622509765625,0.31677228576540944,-0.0333824835114181,-0.018083645962178707
1761391520020290800,2.886290771484375,0.2241086151152849,-0.046585737020894885,-0.03252937381342053
1761391520030357000,2.89635693359375,0.11298106701374053,-0.03274140912890434,-0.03478489765524864
1761391520040423000,2.9064228515625,-0.016574118182063103,-0.04314728700481355,-0.035759807102009655
1761391520050488800,2.91648876953125,-0.15024550652503965,-0.055951421661488705,-0.0220416628729552
1761391520060556000,2.92655615234375,-0.2554962715476751,-0.04980988669916987,-0.05768946096785366
1761391520070622000,2.9366220703125,-0.29340193157196043,-0.05020348912663757,-0.11235592085272073
1761391520080687900,2.94668798828125,-0.2759165437638759,-0.07972509595882148,-0.14587620539963245
1761391520090754000,2.956754150390625,-0.2509165425419807,-0.11524835435859858,-0.14506941906139253
1761391520100820000,2.966820068359375,-0.21314766063988208,-0.16043193296398967,-0.14722148252874612
1761391520110886000,2.976885986328125,-0.22258009037375448,-0.11683580621313303,-0.18083455992564557
1761391520120952800,2.986952880859375,-0.25448855580985547,-0.051407786882482466,-0.22732377776950596
1761391520131018800,2.997018798828125,-0.2946750202476978,-0.04214256694167852,-0.2356405013464391
1761391520141085000,3.0070849609375,-0.32717560635805126,-0.08942881691474466,-0.19222879125177858
1761391520151150800,3.01715087890625,-0.35819442947804925,-0.13863098351173103,-0.16986089209914207
1761391520161217000,3.027217041015625,-0.3130442051529884,-0.14136705741211772,-0.16424334447830916
1761391520171284000,3.037283935546875,-0.22383798148036002,-0.08884316251389682,-0.13714403288960456
1761391520181350000,3.047349853515625,-0.09584054712057113,-0.04067596498783677,-0.11116685719862579
1761391520191416000,3.057416015625,0.03694587508141994,-0.05471994363777339,-0.06621770840361714
1761391520201482000,3.06748193359375,0.12391747156977653,-0.07488806772381067,-0.06440963606834411
1761391520211548000,3.0775478515625,0.15983108099400997,-0.08810571508482098,-0.048693596020340915
1761391520221613800,3.08761376953125,0.10699088668823241,-0.0809526284597814,-0.005296645103394985
1761391520231680800,3.0976806640625,-0.003114332628250122,-0.06480345769152045,0.0401272815965116
1761391520241747000,3.107746826171875,-0.07807341976165771,-0.04200359686240553,0.05580342802554369
1761391520251812900,3.117812744140625,-0.1257832654416561,0.012883008579164742,0.05118745866268873
1761391520261879000,3.127879150390625,-0.15347089831233024,0.06734097681250423,0.04611643900871277
1761391520271945000,3.137945068359375,-0.13867840285003186,0.09457421697918325,0.07997633077353239
1761391520282012000,3.148011962890625,-0.14463000473082066,0.09626812488287687,0.09737988551706075
1761391520292078000,3.158078125,-0.1416606335312128,0.05762256974410265,0.08087956322357058
1761391520302144000,3.16814404296875,-0.16862930447757243,0.024292729735374448,0.032848084373772145
1761391520312210000,3.1782099609375,-0.19541151294112205,0.02154986076802015,-0.0289721197232604
1761391520322276000,3.188276123046875,-0.1738940931379795,-0.0013334040282294154,-0.055098202365636825
1761391520332342300,3.19834228515625,-0.07987842335700988,-0.039090558959916234,-0.024171295312792062
1761391520342409200,3.2084091796875,-0.006956395009160041,-0.01655676518846303,-0.0019203005380928515
1761391520352475100,3.21847509765625,-0.00324643457531929,0.044486390121467406,0.030525194384157656
1761391520362541300,3.228541259765625,-0.009623568391799927,0.07069543833956123,0.06184840727820992
1761391520372607200,3.238607177734375,-0.010479892960190772,0.07375201289858668,0.09843523978888988
1761391520382673200,3.248673095703125,0.00326864640712738,0.06260865106098354,0.10789704174771904
1761391520392740400,3.258740234375,0.023967735564708707,0.04721205222569406,0.06856777866110206
1761391520402806000,3.268805908203125,0.028766660279035565,0.022364392021298408,0.026385756491869687
1761391520412872200,3.2788720703125,0.028724574702978133,-0.010095021828450262,-0.01671148082613945
1761391520422938000,3.288938232421875,0.016520342168211934,0.0009443316454067826,-0.03155877521559596
1761391520433004000,3.299004150390625,-0.00352875864803791,-0.014133995020948349,-0.039473786123841996
1761391520443070200,3.3090703125,0.015084756407141684,-0.04848536009714007,-0.05743672831580043
1761391520453137200,3.31913720703125,0.03542085747122765,-0.058990022172406315,-0.08442015843987465
1761391520463203000,3.329203125,0.0640530777156353,-0.04859773443043232,-0.10051979097798466
1761391520473269200,3.339269287109375,0.10398878226280212,-0.019185323593765496,-0.09903408246487379
1761391520483335200,3.349335205078125,0.11417524523437023,0.04634695982895791,-0.06294000190719962
1761391520493401000,3.359401123046875,-0.0032557869255542752,0.10466843509003519,-0.014543781398236751
1761391520503467000,3.369467041015625,-0.10531915408372879,0.1176376241153106,0.026277912203222512
1761391520513534000,3.379533935546875,-0.17019816122949122,0.10608699665106833,0.03204465903639793
1761391520523600100,3.38960009765625,-0.24172259773910043,0.056660629376769064,0.033485651624947786
1761391520533666000,3.399666015625,-0.25553251190483567,0.003641936698928475,0.027438626545667647
1761391520543732200,3.409732177734375,-0.2355640751093626,-0.025400983238220213,-0.00247676537707448
1761391520553798100,3.419798095703125,-0.1943763246744871,-0.021189247294701636,-0.06653057374507189
1761391520563865000,3.429864990234375,-0.11230068353414535,-0.024555399259552357,-0.07795213146954774
1761391520573931300,3.43993115234375,-0.0025718963146209714,-0.01855002136491239,-0.033551264207065105
1761391520583997200,3.4499970703125,0.05746142436563968,-0.0006789221748709678,-0.0014848317302763462
1761391520594063000,3.46006298828125,0.08678513400554656,0.008056684401258826,0.011158084482699632
1761391520604129000,3.47012890625,0.03677051851451397,-0.00572009467985481,-0.006197831726819277
1761391520614195200,3.4801953125,-0.050186464926600456,-0.04296173783745617,-0.05077259425148368
1761391520624262100,3.49026220703125,-0.13517828577458857,-0.09012074470166116,-0.08782938236147164
1761391520634328000,3.500328125,-0.1740992603212595,-0.11401183483358472,-0.10255246584936976
1761391520644394200,3.510394287109375,-0.20112462989091873,-0.10413622790947556,-0.11060951557680963
1761391520654460200,3.520460205078125,-0.23230536557435988,-0.0839310597486794,-0.09312149742022156
1761391520664526300,3.5305263671875,-0.2178302654981613,-0.06621708734910935,-0.06164324009492993
1761391520674593300,3.54059326171875,-0.1568669704914093,-0.061239993056282395,-0.03419584572091698
1761391520684659200,3.5506591796875,-0.056575873702764505,-0.06508954462390393,0.019344021286815404
1761391520694725000,3.56072509765625,0.06749298903644084,-0.07482307619620114,0.0459080569550395
1761391520704791000,3.570791015625,0.14091829073131085,-0.11592734959870576,0.04575388930663466
1761391520714857200,3.580857177734375,0.18339432741105555,-0.14318616259805858,0.04293912414684892
1761391520724923100,3.590923095703125,0.18534955313205717,-0.15557397153880445,0.03875307063385844
1761391520734990000,3.600989990234375,0.17737725907862184,-0.15211886264886706,0.0572974659755826
1761391520745056300,3.61105615234375,0.12797814513742922,-0.11940331861358135,0.058326078370958566
1761391520755122200,3.6211220703125,0.05477554628252983,-0.03723327718805521,0.06552782644331455
1761391520765188000,3.63118798828125,-0.007572481080889701,0.015189130097068845,0.06739668905511498
1761391520775254300,3.641254150390625,-0.06746902363896369,0.0414639735603705,0.07264101944938302
1761391520785321200,3.6513212890625,-0.126376555159688,0.07259115242566913,0.07060469131618738
1761391520795387400,3.661387451171875,-0.15667758539915083,0.12216021610628813,0.041974224637448786
1761391520805453000,3.671453125,-0.17341595423221587,0.18295224619936196,0.023869974278658626
1761391520815519000,3.68151904296875,-0.15766075121760367,0.1977578568715602,0.03277940305173397
1761391520825585200,3.691585205078125,-0.11270400363802908,0.16500000806450843,0.04011412985399365
1761391520835652000,3.701652099609375,-0.049422494816780085,0.10758399374317378,-0.00002776478976011276
1761391520845718300,3.71171826171875,-0.02885316951870918,0.033483021276444196,-0.05526537562608719
1761391520855784200,3.7217841796875,-0.014344751694798468,-0.03042739656548947,-0.11226239735037087
1761391520865850000,3.73185009765625,0.019901801300048826,-0.011352657206729054,-0.1792686257831752
1761391520875916300,3.741916259765625,0.02380114682614803,0.018611140435002744,-0.18436083435565231
1761391520885982000,3.75198193359375,-0.018979425758123395,0.025508133407123386,-0.15782134860679506
1761391520896049200,3.762049072265625,-0.0648585488796234,0.03321622356642037,-0.12615414458066224
1761391520906115000,3.772114990234375,-0.07260814009308815,0.028941980313323436,-0.11020341899394988
1761391520916181000,3.782180908203125,-0.06686112087368964,0.013043752098828553,-0.08251096381768584
1761391520926247200,3.7922470703125,-0.08173544940054416,-0.027988552046008405,-0.028312048379331826
1761391520936313000,3.80231298828125,-0.14114917687773704,-0.05139708282537758,0.019420301393419503
1761391520946380000,3.812380126953125,-0.1755973899245262,-0.03707264326624572,0.02972381487339735
1761391520956446200,3.8224462890625,-0.22159575551152227,-0.013568177831731736,0.026248101586848496
1761391520966512000,3.83251220703125,-0.22089199115633965,-0.03624064942151308,0.03365209423303604
1761391520976578300,3.842578369140625,-0.1827607056826353,-0.04381966984104365,0.028244828362017867
1761391520986644200,3.852644287109375,-0.15513094047904014,-0.02574694713167846,0.008910743947327136
1761391520996710100,3.862710205078125,-0.08400339433252811,-0.029424685796350238,-0.026817133646458387
1761391521006777000,3.872777099609375,-0.0019125556230545043,-0.046741110245697194,-0.029876959608495235
1761391521016843000,3.882843017578125,0.03296703457832336,-0.05790756069794297,-0.021246640037745235
1761391521026909200,3.8929091796875,0.05858779804706573,-0.0569734216529876,0.004802139584720135
1761391521036975000,3.90297509765625,0.08475976565778255,-0.046114466247335076,0.022754121991246937
1761391521047041300,3.913041259765625,0.09470540561079978,-0.03890285436809063,0.04845759530737996
1761391521057108200,3.923108154296875,0.040267128458619114,0.01469648774191737,0.07160144726857542
1761391521067174100,3.933174072265625,-0.04895487730503082,0.028976065246015786,0.0580313332080841
1761391521077240300,3.943240234375,-0.15171908620893954,0.015112155870720742,0.026792875988036393
1761391521087306200,3.95330615234375,-0.27376784129738807,-0.017179244468361138,-0.03624006489962339
1761391521097372200,3.9633720703125,-0.30432839925587174,-0.03555909689813852,-0.08830766739770769
1761391521107438000,3.97343798828125,-0.25781156275272366,-0.03182334443591535,-0.12553250555098056
1761391521117505000,3.983505126953125,-0.15333645827770231,-0.008417699733376503,-0.12748875418528913
1761391521127571200,3.9935712890625,-0.010561141502857207,0.014252908692881464,-0.07799158669710159
1761391521137637000,4.00363720703125,0.06476268728971481,0.019626199229061603,-0.05004150349795818
1761391521147703300,4.013703369140625,0.11839958493113517,-0.012835516175627708,-0.036489071224629875
1761391521157769200,4.023769287109375,0.13538812913298606,-0.042370165152475235,-0.01643295614570379
1761391521167836200,4.033836181640625,0.11576631381809711,-0.05923047986477613,0.01214504969343543
1761391521177902300,4.04390234375,0.09666823011636734,-0.06597286679707468,0.008710983591526746
1761391521187968300,4.05396826171875,0.05079553673565387,-0.03852371885739267,-0.0006824293062090873
1761391521198034200,4.0640341796875,-0.02333762096762657,0.018813348476216196,-0.014548311442881821
1761391521208100000,4.07410009765625,-0.08134615782201289,0.05478014939241111,0.021959172221273183
1761391521218166000,4.084166015625,-0.08876140251457691,0.06871580882966517,0.04424509217888117
1761391521228233200,4.094233154296875,-0.0891366655677557,0.05520451228432357,0.0526603076942265
1761391521238299100,4.104299072265625,-0.04703706098496914,0.007811477468535303,0.06770546274334192
1761391521248365000,4.114364990234375,-0.0063625207692384715,-0.029646438788250087,0.07587342549934983
1761391521258431200,4.12443115234375,0.03730769413113594,-0.06181596631333232,0.015354074867814779
1761391521268497200,4.1344970703125,0.06846095728576183,-0.08053104204684496,-0.008699585414677857
1761391521278563300,4.144563232421875,0.10408230576515197,-0.08424377895966172,-0.04649915471598506
1761391521288630300,4.15463037109375,0.06250058757662773,-0.10449264013171196,-0.08571487442553043
1761391521298696000,4.164696044921875,0.01574585066437721,-0.09667487905286253,-0.12226838918849825
1761391521308762000,4.17476220703125,-0.042566637572646136,-0.08697678412012755,-0.13847382018864154
1761391521318828000,4.184828125,-0.11124036082625388,-0.08242920381836592,-0.13956088477298617
1761391521328894700,4.194894775390625,-0.18231471548080444,-0.09166574565395712,-0.11744140742346644
1761391521338961700,4.204961669921875,-0.23778759637773036,-0.09013817076049745,-0.11263970623016356
1761391521349027600,4.215027587890625,-0.2779313907176256,-0.09621895197890698,-0.1022151967190206
1761391521359093800,4.22509375,-0.297009600675106,-0.09115816145800054,-0.05720847251787781
1761391521369159700,4.23515966796875,-0.2664823604643345,-0.0713339554388076,0.01887158146947622
1761391521379225900,4.245225830078125,-0.1952875943005085,-0.04301745008006692,0.07574249259606003
1761391521389291800,4.255291748046875,-0.11597265004515647,-0.019735650952905415,0.08960179886147379
1761391521399358700,4.265358642578125,-0.03707096276581287,0.00630560295023024,0.05855053477659821
1761391521409425000,4.2754248046875,0.020203414595127103,0.0061020432021468875,0.00009819967746734619
1761391521419490800,4.28549072265625,0.02951251021027565,-0.0006647475190460681,-0.03055412821769714
1761391521429556700,4.295556640625,0.004305003717541694,-0.028596052952483294,-0.016473288156092166
1761391521439622700,4.30562255859375,-0.03189268334507942,-0.07205642449446022,-0.03220233381614089
1761391521449689600,4.315689697265625,-0.054043140354752536,-0.08114106370396912,-0.07401493815109134
1761391521459755800,4.325755859375,-0.07025602400898932,-0.09767908765934408,-0.14777648606300353
1761391521469821700,4.33582177734375,-0.08501111007034778,-0.0885892608180642,-0.17731340006217358
1761391521479887600,4.3458876953125,-0.11285422576367854,-0.0066869304180145256,-0.1797356587730348
1761391521489953800,4.355953857421875,-0.11668109057545661,0.07280095925144851,-0.14609846984818578
1761391521500019700,4.366019775390625,-0.1043166990429163,0.1362044139519334,-0.06117620710507035
1761391521510086700,4.376086669921875,-0.0584498508810997,0.17204444668330252,0.00751198306530714
1761391521520152800,4.38615283203125,0.022077391773462293,0.07599412926957011,-0.030645021371543405
1761391521530218500,4.396218505859375,0.01343757372200489,-0.03762311675585806,-0.10889394383057951
1761391521540284700,4.40628466796875,-0.015690905606746672,-0.06472367045357823,-0.10732874034047127
1761391521550350600,4.4163505859375,-0.0175806648761034,-0.053552653424069285,-0.09556348374485969
1761391521560417500,4.42641748046875,0.030920038920640942,-0.027829233298450707,-0.0783940300181508
1761391521570483700,4.436483642578125,0.07796002251505851,-0.02826009899638593,-0.0018615560881793498
1761391521580549600,4.446549560546875,0.0894803644388914,-0.014568477448076008,0.07619637384340167
1761391521590615800,4.45661572265625,0.020565818166732787,0.006986278690770268,0.0849896288909018
1761391521600681700,4.466681640625,-0.03310556626617908,0.008958382481336593,0.05980930266603827
1761391521610748000,4.476747802734375,-0.11041852304935455,0.03036759266965091,0.03321750220805406
1761391521620814800,4.48681494140625,-0.1713970156252384,0.024178967162594198,0.034016689761728044
1761391521630880500,4.496880615234375,-0.16811492521464824,-0.02269398930184543,0.03876958337724209
1761391521640946700,4.50694677734375,-0.14939794978499413,-0.06842800486423074,0.014406418754160403
1761391521651012600,4.5170126953125,-0.12828794173896313,-0.12533742137029766,-0.056244303660839795
1761391521661078800,4.527078857421875,-0.10492051015496254,-0.17145188761763275,-0.1512435776516795
1761391521671145700,4.537145751953125,-0.06519055731296539,-0.1502510594829917,-0.1517296076029539
1761391521681211600,4.547211669921875,-0.05569909086823463,-0.07704159249588846,-0.08816738214418292
1761391521691277800,4.55727783203125,-0.08479425244927406,-0.014510755911469459,-0.08733166197240352
1761391521701343700,4.56734375,-0.1192307750582695,-0.019892448949813842,-0.08613295370712876
1761391521711410000,4.577409912109375,-0.1440314543157816,-0.0321119521189481,-0.05768193524852395
1761391521721475600,4.5874755859375,-0.18230828574001787,-0.05059614170603454,-0.04718932893723249
1761391521731542500,4.59754248046875,-0.2462678399533033,-0.06520166322886943,-0.04132087529525161
1761391521741608700,4.607608642578125,-0.2392623451054096,0.004669526180997491,0.016776801147311924
1761391521751674600,4.617674560546875,-0.19227730656862257,0.05142170580998063,0.07050824520438909
1761391521761740800,4.62774072265625,-0.13055588667094706,0.05158749083094299,0.12411065605431794
1761391521771806700,4.637806640625,-0.02800093660354614,-0.01024096963778138,0.12230360663235187
1761391521781873700,4.647873779296875,0.06231997031271457,-0.04785758358761668,0.04025514575988054
1761391521791939800,4.65793994140625,0.09111059598922729,-0.05813157871216535,-0.056699353951960796
1761391521802005800,4.668005859375,0.10078735587298869,-0.09718655490204692,-0.09705240712836384
1761391521812071700,4.67807177734375,0.07414075648784638,-0.15066351274140177,-0.10945201610475778
1761391521822137600,4.6881376953125,0.030614918494224548,-0.1990761729285121,-0.15443959721401332
1761391521832203500,4.69820361328125,0.010562310546636582,-0.2057366537310183,-0.22396379981711506
1761391521842270700,4.708270751953125,0.025652327650785445,-0.20903350331932305,-0.26140344976484775
1761391521852336600,4.718336669921875,0.05003098210394382,-0.16272804454453288,-0.2089277048572898
1761391521862402600,4.728402587890625,0.014198036700487136,-0.08919796730093657,-0.06128448978513479
1761391521872468700,4.73846875,-0.07657295207083224,-0.05209492889642715,0.07046309088841081
1761391521882534700,4.74853466796875,-0.13713175792992113,-0.056463864695653315,0.13148264612704513
1761391521892601900,4.758601806640625,-0.17672843978106975,-0.09099807552546262,0.13711626809984445
1761391521902667800,4.768667724609375,-0.19049217671751975,-0.10384177500754595,0.11315130901411175
1761391521912733700,4.778733642578125,-0.2012730984508991,-0.06879106602296232,0.07280030166432261
1761391521922799600,4.788799560546875,-0.21293840180337428,-0.03772475049942731,0.07361512517854571
1761391521932865500,4.798865478515625,-0.17498422646224499,-0.02813289242014289,0.07832067252099513
1761391521942931700,4.808931640625,-0.10625263554155825,-0.01551942149735987,0.11676862272843717
1761391521952998700,4.81899853515625,-0.021603344520926476,-0.027797742181643843,0.1567016969271004
1761391521963064600,4.829064697265625,0.06688567079305649,-0.06123772803395986,0.14922113191336392
1761391521973130800,4.839130859375,0.08607961608469486,-0.047895577510446305,0.10932722068130969
1761391521983196700,4.84919677734375,0.02734393399953842,0.006598594547435641,0.06959039970710873
1761391521993262800,4.859262939453125,-0.08474865974187851,0.021511282323300837,0.052246173935383555
1761391522003329800,4.869329833984375,-0.17041794146001338,-0.0022243249859660863,0.02297448674365878
1761391522013395700,4.879395751953125,-0.24197335762977598,-0.02286276999749243,-0.014572861362248658
1761391522023461600,4.889461669921875,-0.29243104071319104,0.02119827085137367,-0.059817047581076616
1761391522033527600,4.899527587890625,-0.2585609198153019,0.02807823962345719,-0.13902882372289896
1761391522043593700,4.90959375,-0.15592355216145515,-0.016358575735241174,-0.23470453567057847
1761391522053659600,4.91965966796875,-0.008044190245866775,-0.04154153230860829,-0.2938350622922182
1761391522063726600,4.9297265625,0.1321060387223959,-0.02240728131495416,-0.2665216695614159
1761391522073792800,4.939792724609375,0.2679015796124935,-0.008591814191266894,-0.20494316526576875
1761391522083858700,4.949858642578125,0.3539256661176681,0.01749517854973674,-0.1064864442974329
1761391522093924900,4.9599248046875,0.30210721607506275,0.03563179680816829,-0.012714520144462584
1761391522103990800,4.96999072265625,0.1666314086586237,0.01000832992568612,0.0483687479801476
1761391522114057700,4.9800576171875,0.012988660910725593,-0.028150574207305906,0.06687412648573518
1761391522124124000,4.9901240234375,-0.08555588447153568,-0.03347549555711448,0.10291866881325841
1761391522134189600,5.000189453125,-0.13510580506026745,-0.020014540959522126,0.1488306712910533
1761391522144255700,5.010255859375,-0.14823299765884876,0.006267828223109245,0.11856880401819944
1761391522154321700,5.02032177734375,-0.062141106614470476,0.029768019341304897,0.043320086288452145
1761391522164387600,5.0303876953125,-0.04123685027360916,-0.004715191953629255,0.01484188756197691
1761391522174454800,5.040454833984375,-0.10260580347180366,-0.044462607387080785,-0.03389204046875238
1761391522184520700,5.050520751953125,-0.09198445621430873,-0.07769603781662882,-0.08624766612797975
1761391522194587000,5.0605869140625,-0.06099719727635383,-0.1002075101584196,-0.1426787245325744
1761391522204652800,5.07065283203125,-0.028964228677749632,-0.12090221540182829,-0.20431042032018304
1761391522214718500,5.080718505859375,0.014334814822673797,-0.10189107933118939,-0.2483442078359425
1761391522224786000,5.090785888671875,0.030608488753437996,-0.06395816597379744,-0.20291034426391125
1761391522234851600,5.1008515625,0.016037527087330816,-0.019898951755836603,-0.09961246687471866
1761391522244917500,5.11091748046875,-0.02020049198567867,-0.002685147430747747,-0.05343713728561997
1761391522254983700,5.120983642578125,-0.08147416811585426,-0.016785495910421014,-0.033387013556063175
1761391522265049600,5.131049560546875,-0.17451193277537821,-0.023409444094821808,-0.012677256873995065
1761391522275116800,5.14111669921875,-0.2379997778236866,-0.011652224675193428,0.007681202152371406
1761391522285182700,5.1511826171875,-0.2600187174081802,-0.004515723858773708,-0.005796119058132172
1761391522295248600,5.16124853515625,-0.24251404037773608,-0.033482217558845874,0.006765840873122215
1761391522305314800,5.171314697265625,-0.17137772640287874,-0.07823847413025796,0.026720541404187677
1761391522315380700,5.181380615234375,-0.07792378215789794,-0.11039163504242896,0.004254442574083805
1761391522325446400,5.1914462890625,0.0035807810962200162,-0.1317833826392889,-0.017178075424581767
1761391522335513300,5.201513427734375,0.06228606804311275,-0.11977540332898497,-0.012773264594376086
1761391522345579300,5.211579345703125,0.09142974494099616,-0.040014761132746934,0.06655833853483199
1761391522355645400,5.2216455078125,0.05453063161075115,0.020629457987472413,0.16862535895481703
1761391522365711400,5.23171142578125,-0.028815175595879552,-0.021436463521420954,0.159423523106426
1761391522375777500,5.241777587890625,-0.09527765254080295,-0.0550136658873409,0.07255553312301635
1761391522385843500,5.251843505859375,-0.10050970797538757,-0.05383979980237782,-0.005806494321674108
1761391522395910400,5.261910400390625,-0.06212357095777988,-0.06629778790250421,-0.0581096591413021
1761391522405976300,5.271976318359375,-0.018214871126413346,-0.06622742608003318,-0.0756983611933887
1761391522416042200,5.282042236328125,0.047151627275347704,-0.03715403793938458,-0.0688118165500462
1761391522426108400,5.2921083984375,0.05637362912893295,-0.008015840934216976,-0.0014263795413076877
1761391522436174300,5.30217431640625,-0.009972527959942816,-0.012880597426369786,0.046521658808737994
1761391522446241300,5.3122412109375,-0.15695990947186947,-0.026683205068483946,0.07006225500255822
1761391522456307500,5.322307373046875,-0.25350480546951293,-0.018966127885133025,0.07963862325176596
1761391522466373400,5.332373291015625,-0.27381109591722486,0.00264276959374547,0.10263590634912252
1761391522476439600,5.342439453125,-0.2357335864573717,-0.009107727824151516,0.07711626516729593
1761391522486505500,5.35250537109375,-0.1163853224992752,-0.05632540607303381,-0.016153554682433603
1761391522496571400,5.3625712890625,-0.03484802601933479,-0.11693301950991153,-0.08041618349552154
1761391522506638300,5.372638427734375,0.023576105898618697,-0.12036204411052166,-0.09455474509373307
1761391522516704300,5.382704345703125,0.04490414060950279,-0.1464112621244043,-0.09823971721678972
1761391522526770400,5.3927705078125,-0.003598316752910614,-0.11402619215250015,-0.08187690369784832
1761391522536836400,5.40283642578125,-0.05746083984375,-0.06769939832873642,-0.08070859057083725
1761391522546902500,5.412902587890625,-0.08718143984675407,0.012772022485360503,-0.04096344015970826
1761391522556969500,5.422969482421875,-0.11715922948122023,0.13740231849960982,0.019004706329852343
1761391522567035400,5.433035400390625,-0.09716565824449062,0.16835881697311997,0.020653496450185774
1761391522577101600,5.4431015625,-0.025678046613931655,0.10226458881869911,-0.0458446363300085
1761391522587167500,5.45316748046875,0.04706804064512252,0.04194485241249203,-0.14340879237279294
1761391522597233400,5.4632333984375,0.09453121808767319,-0.00007452654093503952,-0.15229294057413933
1761391522607299300,5.47329931640625,0.0808931533575058,-0.060150298123434184,-0.0671348232485354
1761391522617366300,5.4833662109375,0.06077975513339042,-0.054102615457028144,0.021442601001262662
1761391522627432400,5.493432373046875,0.021042203506827353,-0.028662396186962723,0.0878472102791071
1761391522637498400,5.503498291015625,-0.04289981504976749,-0.03868943081311881,0.10549743326008319
1761391522647564300,5.513564208984375,-0.10667933652102947,-0.06003441665880382,0.13576149249002337
1761391522657630500,5.52363037109375,-0.14873451744019983,-0.06925926805660128,0.13144903611838818
1761391522667697400,5.533697509765625,-0.18291911111474035,-0.07404255681037902,0.11602511088475584
1761391522677763600,5.543763671875,-0.17952946867644787,-0.0733430302388966,0.09743278474807739
1761391522687829500,5.55382958984375,-0.17568974438309667,-0.10030205657407641,0.05802826446816325
1761391522697895200,5.563895263671875,-0.15825579450130461,-0.10680698148868978,0.01907353378236294
1761391522707961300,5.57396142578125,-0.14374036241471766,-0.07547098217830062,-0.028872166480123994
1761391522718027300,5.58402734375,-0.15133914698064327,-0.0724998574130237,-0.048651948835700745
1761391522728094500,5.594094482421875,-0.1420353120625019,-0.08738434200771153,-0.046253071000427005
1761391522738160400,5.604160400390625,-0.11600947492420673,-0.08336867662556469,-0.03541910390555859
1761391522748226300,5.614226318359375,-0.05118833544552326,-0.059508858414739366,-0.004748363570868969
1761391522758292500,5.62429248046875,0.03321136472821235,-0.028923312145471572,0.018567337825894356
1761391522768358400,5.6343583984375,0.06963175463080405,-0.009351473452150821,0.058279755011200904
1761391522778425300,5.64442529296875,0.0547895748078823,-0.046992637321352955,0.08225465096905828
1761391522788491500,5.654491455078125,0.029639351460337637,-0.09299896701909602,0.04603840533643961
1761391522798557400,5.664557373046875,-0.00739127929508686,-0.09288418153300881,-0.016652444115281103
1761391522808623400,5.674623291015625,-0.07871756288409233,-0.060125821269303555,-0.05931830427870154
1761391522818689300,5.684689208984375,-0.1282668989509344,-0.039769773395732046,-0.02969824204072356
1761391522828755500,5.69475537109375,-0.1669961503177881,-0.011425722442939877,-0.00023804653957486152
1761391522838822400,5.704822509765625,-0.16374153243601322,0.02814991662018001,0.023008681274205446
1761391522848888300,5.714888427734375,-0.12532733836770057,0.013746858866885304,0.03736789988577366
1761391522858954500,5.72495458984375,-0.053043607923388476,-0.004401084503158926,0.022692454931885004
1761391522869020400,5.7350205078125,-0.05245674794614315,-0.0025546529188752174,0.01953808255419135
1761391522879086600,5.745086669921875,0.01309679746031761,-0.03373261212334037,-0.02061491800546646
1761391522889152300,5.75515234375,0.05390402414500713,-0.046424774305522436,-0.06486790122985839
1761391522899218400,5.765218505859375,0.018693594554066658,-0.04118928480483591,-0.06717340169325471
1761391522909285400,5.775285400390625,-0.03663549395799637,-0.04110167958661914,-0.03446984035670757
1761391522919351300,5.785351318359375,-0.0832756645798683,-0.039026992204412816,-0.02972746813520789
1761391522929417500,5.79541748046875,-0.0774374599456787,-0.021888298942148682,-0.04834960488826036
1761391522939483400,5.8054833984375,-0.022712767067551612,0.0006909779388457536,-0.06181085174679756
1761391522949549300,5.81554931640625,0.010654665005207061,0.026786811573430894,-0.02356923776641488
1761391522959616500,5.825616455078125,0.03197334736585617,0.04061703787483275,-0.013119301553070544
1761391522969682400,5.835682373046875,0.05728723684251308,0.023798151151463387,-0.011056523804366588
1761391522979748600,5.84574853515625,0.06002572189569473,-0.0017167407900094986,0.0049899172417819495
1761391522989814500,5.855814453125,-0.017546178084611893,-0.011802373735606669,0.023525983146578073
1761391522999880200,5.865880126953125,-0.09786299285888671,-0.0552526622749865,-0.009713146371394395
1761391523009947400,5.875947509765625,-0.17745207788050174,-0.0988647172473371,-0.0518522061817348
1761391523020013300,5.886013427734375,-0.2564548874467611,-0.10893237614482641,-0.03130056267082691
1761391523030079500,5.89607958984375,-0.2914683331608772,-0.06259396494850517,0.014516747260838746
1761391523040145400,5.9061455078125,-0.26269290505349635,0.021887202963605523,0.027140374251455067
1761391523050211300,5.91621142578125,-0.16627952648103236,0.03771335232257843,0.01983458128273487
1761391523060277500,5.926277587890625,-0.06331774917840957,0.003349602688848972,0.02121770620420575
1761391523070344400,5.936344482421875,0.02277764899730682,-0.04826294951811433,0.01686257973462343
1761391523080410400,5.946410400390625,0.07880991734266281,-0.05648001211285591,0.0016601882971823214
1761391523090476500,5.9564765625,0.11249532932341098,-0.03959923913441598,-0.020760756216943264
1761391523100542200,5.966542236328125,0.15023206252157686,-0.03524009407684207,-0.003713759826123714
1761391523110608400,5.9766083984375,0.1713841561436653,-0.0023066695071756837,0.06104585872367024
1761391523120674300,5.98667431640625,0.18462591503262518,0.019762100568413734,0.12046236267983913
1761391523130741200,5.9967412109375,0.08848375461697577,0.005778145010024309,0.1536826413668692
1761391523140807400,6.006807373046875,-0.03231646171510219,0.0034208412941545245,0.15366671314537525
1761391523150873300,6.016873291015625,-0.16504150911867618,0.0023832418747246264,0.10756503331437706
1761391523160939500,6.026939453125,-0.24608254651427267,-0.0035340924102813,0.06275573138147592
1761391523171005400,6.03700537109375,-0.25882103205621243,-0.023459786042571068,0.02718596695885062
1761391523181072400,6.047072265625,-0.21052081926763055,-0.02884966238737106,-0.0013854630090296268
1761391523191138600,6.057138671875,-0.14150164357721803,-0.03164725721664727,-0.038002982918918134
1761391523201204200,6.067204345703125,-0.10185352379977702,-0.02498714174032211,-0.08880684909150004
1761391523211270400,6.0772705078125,-0.07408581143021584,-0.00973937679119408,-0.10895955641269683
1761391523221336300,6.08733642578125,-0.08913549652397632,-0.024488325372710822,-0.10683408869132399
1761391523231403300,6.0974033203125,-0.14405775780081748,-0.05842785824500024,-0.09427066745534539
1761391523241469400,6.107469482421875,-0.1928302642762661,-0.04049063501618802,-0.08936857462748884
1761391523251536400,6.117536376953125,-0.24496260257363317,-0.030262013403326272,-0.08139028922468423
1761391523261602300,6.127602294921875,-0.21603753686249255,0.02132788858041167,-0.039991087996214626
1761391523271668500,6.13766845703125,-0.12025544193089008,0.056843876989185804,0.017679595205932853
1761391523281734400,6.147734375,-0.031933015355467796,0.0751988141734153,0.06587810118570923
1761391523291800600,6.157800537109375,-0.0013116671204566955,0.0506620465490967,0.0847566969178617
1761391523301867500,6.167867431640625,0.04019523226618767,0.02595459853298962,0.0813847362667322
1761391523311933400,6.177933349609375,0.043674891075491905,0.008297069028392433,0.04077902350351214
1761391523321999400,6.187999267578125,0.06387129140794277,-0.027876944897696373,-0.009000468057394026
1761391523332065300,6.198065185546875,0.09342588719427584,-0.03042436435818672,-0.008535919285565614
1761391523342131500,6.20813134765625,0.10240589698553085,-0.015130860571190714,0.0073569386340677735
1761391523352198400,6.218198486328125,0.11384849749803543,-0.014063012143969536,0.04068666904494166
1761391523362264300,6.228264404296875,0.1482441035747528,-0.014615166134014725,0.07716843374595046
1761391523372330500,6.23833056640625,0.11809154189527034,-0.03126249568276107,0.11036664673164487
1761391523382396200,6.248396240234375,-0.04984627318680286,-0.00749510499574244,0.09592968670874834
1761391523392462300,6.25846240234375,-0.2026508165448904,-0.02683803030401468,0.09261515533328056
1761391523402528300,6.2685283203125,-0.27562720542848107,-0.048579248925670976,0.1063859065324068
1761391523412595200,6.27859521484375,-0.29514380680322644,-0.04517126711308956,0.03814151460677385
1761391523422661400,6.288661376953125,-0.21210253550112246,-0.03223762432523072,-0.04290302992016077
1761391523432727300,6.298727294921875,-0.08345628184378147,-0.035509923994168635,-0.10272606885060667
1761391523442793500,6.30879345703125,0.02065291192829609,-0.03951594476513565,-0.08983326952978968
1761391523452859400,6.318859375,0.07043371866345405,-0.02020465670414269,-0.05010580090582371
1761391523462926300,6.32892626953125,0.04636427628993988,0.032048604559153315,-0.023049305545538662
1761391523472992500,6.338992431640625,0.01786649608016014,0.08108283071070908,-0.026827070518583056
1761391523483058200,6.34905810546875,-0.029599019449949263,0.0414889253385365,-0.10112798600420356
1761391523493124400,6.359124267578125,-0.054070612883567806,-0.009509002101421356,-0.1637137676462531
1761391523503190300,6.369190185546875,-0.044703065079450606,-0.03788498256243765,-0.15329364204928278
1761391523513256200,6.379256103515625,-0.0562929651081562,-0.07767989039942622,-0.11716010626405476
1761391523523323400,6.389323486328125,-0.08866787901222706,-0.10517492330744863,-0.06420753762498498
1761391523533389300,6.399389404296875,-0.1357259827852249,-0.1247786915089935,-0.012380904275923966
1761391523543455500,6.40945556640625,-0.18517536560893058,-0.09891162512898445,-0.00846972218155861
1761391523553521400,6.419521484375,-0.17837796055376529,-0.05342617750018835,0.00017725626304745674
1761391523563587300,6.42958740234375,-0.15165712688863275,-0.007656871428713202,0.05194076124802231
1761391523573654500,6.439654541015625,-0.09326923532783984,0.004646875957772136,0.0854486247047782
1761391523583720200,6.44972021484375,-0.037706922581791875,-0.021409721644967794,0.0712340752609074
1761391523593786000,6.4597861328125,-0.013917466193437575,-0.058218599408492444,0.01710311049222946
1761391523603852300,6.469852294921875,0.014071195450425147,-0.07589870607107878,-0.0535351908326149
1761391523613918200,6.479918212890625,0.04757131399214268,-0.08413527708388864,-0.08074658449366688
1761391523623984400,6.489984375,0.07130465627908707,-0.08160656232386827,-0.06901888342946767
1761391523634051300,6.50005126953125,0.09942658891379832,-0.06889920257255434,-0.030478140372037887
1761391523644117200,6.5101171875,0.09848492414951324,-0.038178485616296526,0.03245806214287877
1761391523654183400,6.520183349609375,0.019070611172914503,-0.04152589634805918,0.08110913419574499
1761391523664249300,6.530249267578125,-0.09562310497760772,-0.07862791183926164,0.07646174678131938
1761391523674315300,6.540315185546875,-0.17767361167669296,-0.09234057617560028,0.013904752842336892
1761391523684382500,6.550382568359375,-0.2448486208051443,-0.1015109939724207,-0.038542496623098846
1761391523694448000,6.5604482421875,-0.2568640527695417,-0.08808657199293375,-0.07674173276647925
1761391523704514300,6.570514404296875,-0.23766543130278586,-0.06333849970549345,-0.10346256643161177
1761391523714580200,6.580580322265625,-0.18120880006551743,-0.05202822033576667,-0.10994929810240864
1761391523724646400,6.590646484375,-0.09739595986902713,-0.04225150720886886,-0.08816504405662418
1761391523734713300,6.60071337890625,-0.04051847287118435,-0.028910160402953623,-0.05401347586885094
1761391523744779300,6.610779296875,-0.007550853770971298,0.011728285586088896,0.012066431499272584
1761391523754845400,6.620845458984375,-0.01291384210884571,0.06684833445735275,0.0693181586369872
1761391523764911400,6.630911376953125,-0.07145429388284683,0.04923274439834058,0.06280994578674436
1761391523774977300,6.640977294921875,-0.06466156500279903,-0.022122107698023318,0.04097483833655715
1761391523785043200,6.651043212890625,-0.03015782237648964,-0.07560198814682662,0.01634936951547861
1761391523795110100,6.661110107421875,-0.014599018716812132,-0.07478058876134455,0.001041471876949072
1761391523805176300,6.67117626953125,0.02723287484049797,-0.09746237616874277,0.00259659236446023
1761391523815242200,6.6812421875,0.07333119367063046,-0.11688918036818503,-0.014005290607362985
1761391523825308400,6.691308349609375,0.0585585719525814,-0.09787110310010612,-0.009947685779631137
1761391523835374300,6.701374267578125,0.04027531176507473,-0.050581528658792375,-0.005217734648287296
1761391523845441300,6.711441162109375,-0.005159574720263481,0.021549349311366674,0.023792378997802732
1761391523855507500,6.721507568359375,-0.07311199796199798,0.022829890641197562,-0.002084551189094782
1761391523865573400,6.731573486328125,-0.1254004036039114,-0.017427374010533094,-0.028766660279035565
1761391523875639600,6.7416396484375,-0.1758627628624439,-0.04704823996610939,-0.03794964529648423
1761391523885705200,6.751705322265625,-0.2052957780957222,-0.05197327527813613,-0.07438523276820778
1761391523895771400,6.761771484375,-0.1358621763855219,-0.019001345328986643,-0.0793431474365294
1761391523905838300,6.77183837890625,-0.12752689423859118,-0.005631649211421608,-0.038611324075609445
1761391523915904300,6.781904296875,-0.17133330273926256,0.01643741312511265,-0.053245414105802774
1761391523925970400,6.791970458984375,-0.12889818259179592,0.04049940284453332,-0.043162557639181615
1761391523936036400,6.802036376953125,-0.061387073376774785,-0.0010101268906146288,-0.060534986592084165
1761391523946102300,6.812102294921875,-0.002873509609699249,-0.052595133503526445,-0.07560074603781104
1761391523956169500,6.82216943359375,0.042426352319121355,-0.04187989741750061,-0.039079379978775974
1761391523966235400,6.8322353515625,0.09955284564197063,-0.015577362229675054,-0.0009983633875846863
1761391523976301300,6.84230126953125,0.13028116138279439,-0.008012041541934013,0.0029195407085120676
1761391523986367200,6.8523671875,0.1478863761782646,0.028040245700627565,0.01697100854516029
1761391523996433200,6.86243310546875,0.10625205101966857,0.04297244189456105,0.041391602443903684
1761391524006499300,6.872499267578125,0.03280979818999767,0.04984152394644916,0.06581424216926098
1761391524016566300,6.882566162109375,-0.03542319555878639,0.03707213180959224,0.07665522352680564
1761391524026632200,6.892632080078125,-0.10715572186112403,0.05800561424493789,0.045914194434881206
1761391524036698400,6.902698486328125,-0.17874679386615752,0.03347396118715405,0.010160305617004633
1761391524046764300,6.912764404296875,-0.2137134778290987,-0.03315722338818013,-0.051266222987323994
1761391524056830500,6.92283056640625,-0.20624445712268352,-0.06496683155968785,-0.10057093664333223
1761391524066897400,6.9328974609375,-0.1597422336667776,-0.06535816896483301,-0.13981924344822763
1761391524076963300,6.94296337890625,-0.1396387723147869,-0.027978067184612154,-0.15350246249437333
1761391524087029200,6.953029296875,-0.07191139000058173,0.03408624786660075,-0.10909355805590748
1761391524097095200,6.96309521484375,-0.017810381978750227,0.0251619137853384,-0.0728967477761209
1761391524107161300,6.973161376953125,-0.016810849547386167,-0.0008599047649651766,-0.08172901965975761
1761391524117227300,6.983227294921875,0.0270616099268198,-0.05170344536080956,-0.05091171046122908
1761391524127294200,6.993294189453125,0.09144669607579707,-0.08007876823469996,0.007761866173148155
1761391524137360400,7.0033603515625,0.1411900934100151,-0.08734342547543346,0.054631753897666925
1761391524147426300,7.01342626953125,0.21193302415311335,-0.06581679945252836,0.07242942252531648
1761391524157492500,7.023492431640625,0.266106512889266,-0.015038359982147812,0.05051277427151799
1761391524167558400,7.033558349609375,0.23518588944673538,0.0060706982158124445,0.008870850328356028
1761391524177625300,7.043625244140625,0.14714812503159044,-0.023141221612691876,-0.0346691623210907
1761391524187691300,7.053691162109375,-0.07776713029146194,-0.04312200643308461,-0.11274155916944145
1761391524197757200,7.063757080078125,-0.3100596363842487,-0.025316227564215657,-0.1719612253792584
1761391524207823400,7.0738232421875,-0.3977116163522005,-0.03065956135354936,-0.1107611990071833
1761391524217889300,7.08388916015625,-0.3912678470402956,-0.0004731704697012901,-0.013105565288662909
1761391524227955500,7.09395556640625,-0.3421533952593803,0.08104322935268282,-0.0009665069445967673
1761391524238022400,7.1040224609375,-0.21557985622286796,0.10334807320646941,-0.0028249942928552626
1761391524248088300,7.11408837890625,-0.12720716076493263,0.04495492094866931,-0.008119593569636345
1761391524258154500,7.124154541015625,-0.08880407261252403,-0.001904080055654049,-0.06188040985167026
1761391524268220400,7.134220458984375,-0.13541969331502915,0.012344956179708242,-0.10877835462689399
1761391524278286300,7.144286376953125,-0.2771329338163137,0.0178486681625247,-0.14908683800920844
1761391524288352300,7.154352294921875,-0.26268296818137166,-0.009211626590043306,-0.1242582478314638
1761391524298419200,7.164419189453125,-0.18188626093566418,-0.028966493700072166,-0.048947424650937314
1761391524308485400,7.1744853515625,-0.055230888834595676,-0.017615443928539753,0.0020822131015360355
1761391524318551300,7.18455126953125,0.040110476592183114,-0.016420096664130687,0.02821457935422659
1761391524328617000,7.194616943359375,0.007619242832064628,-0.03457074344791472,0.0211262285284698
1761391524338683000,7.204682861328125,-0.02721533918380737,-0.06676796269752085,-0.019707155510783194
1761391524348749800,7.214749755859375,-0.051662967219948765,-0.11450235829688608,-0.07763502834439277
1761391524358816000,7.22481591796875,-0.07300386141240596,-0.13173282149583102,-0.0879654298312962
1761391524368882000,7.2348818359375,-0.04943126264512539,-0.07280388186089694,-0.044266134966909884
1761391524378948000,7.244947998046875,-0.012935469418764113,-0.047583881212770934,0.0105658176779747
1761391524389014000,7.255013916015625,0.0786181941628456,-0.02596775027550757,0.04969619719162583
1761391524399081000,7.2650810546875,0.09950316128134727,0.014389686815068125,0.059290247227996584
1761391524409147000,7.27514697265625,-0.03463467552959919,-0.00015760171450674533,-0.036941637297719716
1761391524419212800,7.285212890625,-0.1286456691354513,-0.014364625439047813,-0.09610548166707157
1761391524429279000,7.295279052734375,-0.17836568559408186,-0.023593787685781718,-0.09254165170565247
1761391524439345000,7.305344970703125,-0.1459954478651285,-0.02751096112951636,-0.08398352058827876
1761391524449410800,7.315410888671875,-0.040756373280286785,-0.01960004187449813,-0.03983589743450284
1761391524459478000,7.32547802734375,0.08209493036270141,-0.010081322096660733,-0.029489859987050292
1761391524469544000,7.3355439453125,0.14530045133829117,-0.004799436170980334,-0.007207154899835586
1761391524479609900,7.34560986328125,0.20840251193940637,-0.004181523468345404,0.003078238401561975
1761391524489676000,7.355676025390625,0.204938050699234,-0.027635464292019605,0.025967531079798937
1761391524499741700,7.36574169921875,0.1421177296489477,0.03463774426952004,0.06301540523096918
1761391524509809000,7.375808837890625,0.0025859248399734496,0.124345999180153,0.035948972998559474
1761391524519874800,7.385874755859375,-0.1966997991859913,0.16185403818897903,0.008942600390315055
1761391524529940700,7.395940673828125,-0.3502811721354723,0.2089582461260259,0.01553615343645215
1761391524540007000,7.4060068359375,-0.3912368673801422,0.2978961011860519,0.1229801907196641
1761391524550072800,7.41607275390625,-0.36137305951416493,0.47809499355666335,0.3631646191060543
1761391524560139000,7.426138916015625,-0.2916740848660469,0.31716603432334955,0.4279100630000233
1761391524570206000,7.4362060546875,-0.201543732085824,0.18545688596405088,0.3508233161881566
1761391524580271900,7.44627197265625,-0.12012158641815185,0.11798252856284379,0.16988851075842976
1761391524590338000,7.456338134765625,-0.05562777919769287,0.02997947013489902,-0.09769362764135002
1761391524600403700,7.46640380859375,0.023372107759118077,0.025855741268396376,-0.3154886756956577
1761391524610470000,7.476469970703125,0.16577157695889472,0.018591522419080138,-0.4389619106292724
1761391524620535800,7.486535888671875,0.31383915492296216,-0.025671032351255417,-0.43483109443485735
1761391524630602800,7.496602783203125,0.3470569493919611,-0.1282519936427474,-0.42279008963778614
1761391524640669000,7.5066689453125,0.3102297322541475,-0.12748911951147018,-0.3059485478036105
1761391524650734800,7.51673486328125,0.2663555192142725,-0.09524952242486179,-0.1495468567363918
1761391524660801000,7.526801025390625,0.17229308768212795,-0.11480243722200394,-0.022898498897999525
1761391524670867000,7.536866943359375,0.07459376095235347,-0.15203757757358252,0.052751054717600346
1761391524680934000,7.546933837890625,0.01982230632305145,-0.07615896444246173,0.10338248693272471
1761391524691000000,7.557,0.016815525722503662,0.012482611084729433,0.15963000546395778
1761391524701066000,7.56706591796875,0.06270341667234897,-0.016445888692513108,0.20206234913244842
1761391524711132000,7.5771318359375,0.043937925925850864,-0.07634564612098038,0.22166604426875708
1761391524721197800,7.58719775390625,-0.11052841316461562,-0.14372735680267215,0.17935133563056588
1761391524731264800,7.5972646484375,-0.3086965313374996,-0.18576712095700204,0.11129662105813622
1761391524741331000,7.6073310546875,-0.37925183055400846,-0.21415333055108784,0.027505262041091917
1761391524751396900,7.61739697265625,-0.30253742418587204,-0.20912921877875923,-0.08308554883524776
1761391524761463000,7.627463134765625,-0.1726782876074314,-0.1639041756518185,-0.13620806721374393
1761391524771529000,7.637529052734375,-0.03840250363051891,-0.13452720145471395,-0.17580021902024745
1761391524781595000,7.647594970703125,0.0020288754791021346,-0.12950257822573183,-0.24470672811642288
1761391524791662000,7.657662109375,-0.07511047830283642,-0.08961677723489701,-0.3079775694131851
1761391524801728000,7.66772802734375,-0.14947627571821212,-0.00811564804688096,-0.3721668407291174
1761391524811794000,7.6777939453125,-0.1088520043849945,-0.0029918752923607825,-0.39140798616334793
1761391524821859800,7.68785986328125,0.04808393968939781,-0.04171177430897951,-0.38462124863266944
1761391524831925800,7.69792578125,0.2611088507324457,-0.008255275713279843,-0.3617570173304528
1761391524841993000,7.707992919921875,0.45722178994119167,0.03604015841335058,-0.3225232505075633
1761391524852059000,7.718058837890625,0.5355056375831365,0.12367467578984796,-0.3597316489826888
1761391524862124800,7.728124755859375,0.4984346748173237,0.21654723995029926,-0.4436708920378238
1761391524872191000,7.73819091796875,0.503022002607584,0.2854329254541546,-0.5249000724166631
1761391524882257000,7.7482568359375,0.615959230479598,0.2569259390246123,-0.5689441621307283
1761391524892323000,7.758322998046875,0.8467600367099046,0.08901808068938553,-0.5321041585765779
1761391524902390000,7.76839013671875,1.064524835756421,-0.05444032297879457,-0.37854382841512557
1761391524912455700,7.77845556640625,1.2295546544373035,-0.03937646322920918,-0.22315452926084398
1761391524922521900,7.78852197265625,1.2474433623492718,0.134326564316079,-0.10927695179879665
1761391524932587800,7.798587890625,1.060789156359434,0.3206931124709546,-0.05341010314822197
1761391524942654000,7.808654052734375,0.6470347522228956,0.5959904283579438,-0.002676233471930027
1761391524952720000,7.818719970703125,0.4427104495078325,0.6931033335018902,0.23188509433567522
1761391524962786800,7.828786865234375,0.3550689909338951,0.5142640390466898,0.534393657753244
1761391524972853000,7.83885302734375,0.31162615504860874,0.3615784458931535,0.7939446845844388
1761391524982919000,7.8489189453125,0.33161855724155903,0.17205891360007225,0.8764711382322012
1761391524992985000,7.858985107421875,0.26865736641585825,0.10380568078085779,0.8625138514850288
1761391525003050800,7.86905078125,0.18519816196262837,0.0796720140647143,0.752765848108381
1761391525013117700,7.87911767578125,0.08319558508098125,0.026649229733645915,0.5566559776395559
1761391525023184000,7.889183837890625,-0.051017655053734776,-0.03486921493783593,0.3530971794042736
1761391525033249800,7.899249755859375,-0.2888268787413835,-0.1477121155899018,0.09000343846492469
1761391525043316000,7.90931591796875,-0.5333791469484568,-0.3110026163227856,-0.09848543560616671
1761391525053382000,7.9193818359375,-0.6389835477143526,-0.4153499296996742,-0.13184906828664242
1761391525063448800,7.92944873046875,-0.6620563802659511,-0.4169588992662728,-0.165129479663074
1761391525073515000,7.939514892578125,-0.6140320618093014,-0.3763444186747074,-0.23875381106138227
1761391525083581000,7.949580810546875,-0.4527274011313915,-0.3358757032293826,-0.31155572016090155
1761391525093647000,7.959647216796875,-0.3021358576476574,-0.3603953005231917,-0.41554114142283793
1761391525103712800,7.969712646484375,-0.2619903097420931,-0.4522537192050367,-0.4604532461430877
1761391525113779000,7.979779052734375,-0.33778993935287,-0.5298115175947546,-0.3136472125474363
1761391525123846000,7.989845947265625,-0.4926677818536758,-0.5020523538578301,-0.15779548351317643
1761391525133911800,7.999911865234375,-0.6162479842931032,-0.39866095296628773,-0.05858597141616046
1761391525143978000,8.00997802734375,-0.6720785925865173,-0.2857765512600541,-0.010556611458212137
1761391525154044000,8.0200439453125,-0.623404285788536,-0.19978695154637097,0.03027348464541137
1761391525164109800,8.03010986328125,-0.4828378772348165,-0.1717217175349593,0.13664865058809517
1761391525174177000,8.040177001953126,-0.3142857296466827,-0.13229805416315793,0.23401399612314996
1761391525184243000,8.050242919921875,-0.229550513908267,-0.06301379779577256,0.28014044506922364
1761391525194309000,8.06030908203125,-0.13957915108203886,-0.05029898539036512,0.34381095320805904
1761391525204374800,8.070374755859374,-0.025311551389098165,-0.10913564363196492,0.38532428233549
1761391525214440700,8.080440673828125,0.08813713313639164,-0.19284414667114613,0.35396029903963205
1761391525224507000,8.0905068359375,0.21188626240193842,-0.2753228156544268,0.3143530957944691
1761391525234573800,8.10057373046875,0.30820144129693505,-0.31239845459535714,0.27849399303644895
1761391525244640000,8.110639892578124,0.32956513184309005,-0.3024532530337572,0.2228447326593101
1761391525254706000,8.120705810546875,0.23344342969357967,-0.27954306369796394,0.11425035629719495
1761391525264771800,8.130771728515626,0.16616320662498474,-0.2764404215075075,-0.05049129309207201
1761391525274838000,8.140838134765625,0.0384422511190176,-0.24220745864659546,-0.23785708141736686
1761391525284905000,8.150905029296876,-0.20422668755948542,-0.1858741615280509,-0.3591724807299673
1761391525294971000,8.160970947265625,-0.5058411516815423,-0.18544176146015523,-0.40354141848422587
1761391525305037000,8.171037109375,-0.8855985936701297,-0.19729849573150277,-0.3816836608108133
1761391525315102700,8.181102783203125,-1.1657137581676245,-0.16660437452122567,-0.3257173703737557
1761391525325169400,8.19116943359375,-1.3461691095173358,-0.0912092340581119,-0.2914213522139937
1761391525335235300,8.2012353515625,-1.568760890328884,-0.041425650843977924,-0.2881296902574599
1761391525345302300,8.21130224609375,-1.6519091291368007,0.02662497207522392,-0.23222280185744165
1761391525355368400,8.221368408203125,-1.4707751478731632,0.1312555593729019,-0.23800343108549712
1761391525365434400,8.231434326171875,-1.1045090556204318,0.13270005909278987,-0.2531548229880631
1761391525375500500,8.24150048828125,-0.6926490869283676,0.08439823886901139,-0.284325767929852
1761391525385566500,8.25156640625,-0.292910348662734,0.11381474135890603,-0.22111754354052243
1761391525395633400,8.26163330078125,-0.014638766205310821,0.10405205675736069,-0.09138933986537158
1761391525405699600,8.271699462890625,-0.0386076708137989,-0.0048797348655760285,-0.04946465345807373
1761391525415765500,8.281765625,-0.21590251230597496,-0.021842340908572077,-0.006366904683411121
1761391525425831400,8.29183154296875,-0.42247780881822106,-0.09206701993122696,0.07151354978941381
1761391525435897300,8.3018974609375,-0.5856757358968258,-0.12591061814837157,0.08073438259921968
1761391525445963300,8.31196337890625,-0.7317565239578485,-0.16160393588542937,0.04124276855774223
1761391525456030500,8.322030517578124,-0.7486404387414455,-0.11045111014470457,0.02180098598487675
1761391525466096400,8.332096435546875,-0.6508189469367265,-0.09293978417776524,0.11010682675167918
1761391525476162600,8.34216259765625,-0.5240998619496822,-0.06984985436089336,0.12064385672658681
1761391525486228500,8.352228515625,-0.35872634439766404,-0.03922339155934751,0.03483976964764297
1761391525496294400,8.36229443359375,-0.08889934968054294,-0.015208163591101765,-0.06686163233034312
1761391525506361600,8.372361572265625,0.2046598182797432,-0.03579422082826495,-0.1495044788993895
1761391525516427500,8.382427490234376,0.5317015691250563,0.024193726340308783,-0.17093005570061504
1761391525526493200,8.3924931640625,0.7390583714038134,-0.05734707727096974,-0.02939385226666927
1761391525536559400,8.402559326171875,0.7221575054854155,-0.16105207415632902,0.030464842499047518
1761391525546625300,8.412625244140624,0.71105217410326,-0.03390278105847537,-0.08487783907949924
1761391525556691500,8.42269140625,0.5628875655055046,0.013692790592089294,-0.12993074050992726
1761391525566758400,8.43275830078125,0.34308336958587166,-0.34697592004500327,-0.13809227352514863
1761391525576824300,8.44282421875,0.22194997577667236,-0.5613350023012608,-0.2746287689756602
1761391525586890500,8.452890380859374,0.22387246827185153,-0.5568318456631154,-0.47375535691715775
1761391525596956400,8.462956298828125,0.2849205189526081,-0.6496191426929087,-0.4451460060916841
1761391525607022600,8.473022705078124,0.43079906243979926,-0.48664486830234527,-0.3648777796994895
1761391525617088300,8.483088134765625,0.5370201337993145,-0.22839104167483745,-0.26810857342667876
1761391525627155200,8.4931552734375,0.5297434207946061,-0.03501921786777675,-0.1139130871668458
1761391525637221400,8.503221435546875,0.4419768745362758,0.10476210472285746,0.06533113482743501
1761391525647287300,8.513287353515626,0.22199907561540602,0.31347178291529415,0.230064820105955
1761391525657353500,8.523353515625,-0.18624913232028484,0.6000681991908698,0.32486345695815977
1761391525667419400,8.53341943359375,-0.48098026666939253,0.8022178612805902,0.5004663267754018
1761391525677486300,8.543486328125,-0.5603104084938765,0.8468629856277257,0.6148459354754537
1761391525687552500,8.553552490234376,-0.43354514627754687,0.7841092270076274,0.6550348841313273
1761391525697618400,8.563618408203125,-0.16754326280653475,0.720174953366071,0.6897034619305282
1761391525707684600,8.5736845703125,0.1790735416024923,0.38115671432726084,0.45282896180972454
1761391525717750300,8.583750244140624,0.42671150086522097,-0.07434336638785899,0.04245550534836948
1761391525727817200,8.593817138671875,0.3972673797160387,-0.14303937453851104,-0.09220094850920141
1761391525737883400,8.60388330078125,0.2642541630208492,-0.176087365398556,-0.06775909262672067
1761391525747949300,8.61394921875,0.1181324584275484,-0.2709660817496478,-0.0002937222495675087
1761391525758015500,8.624015380859374,-0.03980944781899452,-0.2206554789867252,-0.011309183391183614
1761391525768081400,8.634081298828125,-0.21968086180090904,-0.1312812783360481,0.01779182340875268
1761391525778147600,8.644147705078124,-0.39221009632647036,-0.09790931621864438,0.12565423223450778
1761391525788214500,8.654214599609375,-0.5757166519403457,-0.0870283681768924,0.14861118332147596
1761391525798280400,8.664280517578124,-0.6221159995436668,-0.07736541762277484,0.10675210949629545
1761391525808346600,8.6743466796875,-0.5462012191206217,-0.06695245241895317,0.08431129123792051
1761391525818412300,8.684412353515626,-0.41725861286520954,-0.07052899573147296,0.14981252193525432
1761391525828478500,8.694478515625,-0.2725672333359718,-0.1067504289958626,0.24290581617429852
1761391525838545400,8.70454541015625,-0.1538689577192068,-0.12216485574878752,0.27848522520810365
1761391525848611300,8.714611328125,-0.08482172497808933,-0.1044301693547517,0.19154665420651434
1761391525858677500,8.724677490234376,-0.05581482620239257,-0.07379793439954518,0.09588336334899067
1761391525868743400,8.734743408203125,-0.09523673600852489,-0.07557510013990104,0.08152882091253995
1761391525878809300,8.744809326171875,-0.050800212910771365,0.031156112698838112,-0.026635931860655545
1761391525888875500,8.75487548828125,-0.15463000521957873,0.019765899960696696,-0.0679550535902381
1761391525898942500,8.7649423828125,-0.2879939350485802,0.037899230283498765,0.049808279263973236
1761391525909008400,8.77500830078125,-0.25972236481010913,0.06421973951943219,0.15227861978784202
1761391525919074300,8.78507421875,-0.2003548145622015,-0.08746084131002425,0.14418094578906893
1761391525929140200,8.79514013671875,-0.11213117218613623,-0.2180557448171079,0.12534735824242232
1761391525939206400,8.805206298828125,-0.030933482924103736,-0.23659736367985604,0.16336232386007904
1761391525949273300,8.8152734375,-0.010080079987645148,-0.22370587953329085,0.20253347377553582
1761391525959339300,8.82533935546875,0.1344984868168831,-0.06580430529713631,0.10083777088597416
1761391525969405400,8.835405517578126,0.27349837670624255,-0.05913542199246585,0.08816109853386879
1761391525979471400,8.845471435546875,0.35900340777337547,-0.17622165930271147,0.04398351863324642
1761391525989537500,8.85553759765625,0.44285482641458507,-0.1831440789770335,-0.050328357615321874
1761391525999603500,8.865603515625,0.4285445615112781,-0.09924699456319212,-0.10897183137238026
1761391526009670400,8.87567041015625,0.27652327748537064,-0.037207302496582266,-0.0823480283409357
1761391526019736300,8.885736328125,0.1863239511221647,-0.00891731981858611,-0.0019883973382413384
1761391526029802200,8.89580224609375,0.11775719537436961,-0.11439604837819933,0.09795512812174856
1761391526039868400,8.905868408203125,-0.053473231512308116,-0.15099018741250037,0.10089658840112388
1761391526049934300,8.915934326171875,-0.26639585122466086,-0.10789821079149842,0.06645232087709009
1761391526060001300,8.926001220703125,-0.33635669167935844,0.0579759497590363,-0.058502530916407704
1761391526070067500,8.9360673828125,-0.20360592531263827,0.018082915309816597,-0.057833034157007926
1761391526080133400,8.94613330078125,-0.2960644287794828,-0.24279680284187197,-0.04647285123094916
1761391526090199600,8.956199462890625,-0.40406595381498334,-0.2222818380795419,-0.11057356748059391
1761391526100265500,8.966265380859374,-0.5030693488806486,-0.13627835597097873,-0.0666009355675429
1761391526110331400,8.976331298828125,-0.5709451997548342,-0.1863151832938194,0.11942936637029052
1761391526120398600,8.986398681640624,-0.533483191844821,-0.22282266695797442,0.13429017782844602
1761391526130464300,8.99646435546875,-0.5258037432581186,-0.08846826478689908,-0.08524382284767926
