time,seconds_elapsed,z,y,x
1761391517221891800,0.087891845703125,0.1235114336013794,-0.08958368003368378,0.30330973863601685
1761391517231958000,0.0979580078125,0.10974102467298508,-0.13464169204235077,0.2737366557121277
1761391517242024000,0.10802392578125,0.0832192599773407,-0.1471184939146042,0.23346248269081116
1761391517252089900,0.11808984375,0.05552717670798302,-0.13477635383605957,0.19981078803539276
1761391517262157000,0.128156982421875,0.037774231284856796,-0.12609949707984924,0.16388563811779022
1761391517272223000,0.138222900390625,0.028152495622634888,-0.1400107890367508,0.13394053280353546
1761391517282289000,0.148288818359375,0.024297773838043213,-0.15812820196151733,0.10526145994663239
1761391517292354800,0.158354736328125,0.024017076939344406,-0.15039145946502686,0.0802365392446518
1761391517302420700,0.168420654296875,0.027599221095442772,-0.10842245072126389,0.06276499480009079
1761391517312487000,0.17848681640625,0.03866918385028839,-0.0351884551346302,0.0594291165471077
1761391517322554400,0.188554443359375,0.05575830116868019,0.021438762545585632,0.058321766555309296
1761391517332620300,0.198620361328125,0.08426158130168915,0.0508994497358799,0.07839534431695938
1761391517342686200,0.208686279296875,0.10340368747711182,0.07031477242708206,0.10672297328710556
1761391517352752000,0.218752197265625,0.12185007333755493,0.06280465424060822,0.14101143181324005
1761391517362818300,0.228818359375,0.13893470168113708,0.05121959000825882,0.1798052191734314
1761391517372885200,0.23888525390625,0.14943236112594604,0.039952024817466736,0.21667934954166412
1761391517382951200,0.248951171875,0.15882745385169983,0.02957075461745262,0.24843169748783112
1761391517393017300,0.259017333984375,0.16582757234573364,0.004149285145103931,0.25223973393440247
1761391517403083300,0.269083251953125,0.1748015284538269,-0.02661508321762085,0.23586605489253998
1761391517413149400,0.2791494140625,0.1832011342048645,-0.06225110962986946,0.19338810443878174
1761391517423216400,0.28921630859375,0.18936696648597717,-0.09122783690690994,0.14413884282112122
1761391517433282300,0.2992822265625,0.18567129969596863,-0.09109627455472946,0.10413362085819244
1761391517443348200,0.30934814453125,0.17612500488758087,-0.09074941277503967,0.07260804623365402
1761391517453414100,0.3194140625,0.16426701843738556,-0.08813764899969101,0.046616923063993454
1761391517463480300,0.329480224609375,0.15601730346679688,-0.08857020735740662,0.026678841561079025
1761391517473546200,0.339546142578125,0.14244264364242554,-0.08590678125619888,0.007943503558635712
1761391517483613200,0.34961328125,0.12545153498649597,-0.09900303930044174,-0.01032824907451868
1761391517493679400,0.359679443359375,0.09531040489673615,-0.12220210582017899,-0.0280502550303936
1761391517503745300,0.369745361328125,0.0602559968829155,-0.14992164075374603,-0.04603048413991928
1761391517513811500,0.3798115234375,0.02741176262497902,-0.1572197675704956,-0.06494291871786118
1761391517523877400,0.38987744140625,0.0026997397653758526,-0.1513025313615799,-0.08693360537290573
1761391517533944300,0.3999443359375,-0.01740393042564392,-0.12424348294734955,-0.0946439877152443
1761391517544010200,0.41001025390625,-0.033680304884910583,-0.08420620858669281,-0.09215016663074493
1761391517554076200,0.420076171875,-0.059266626834869385,-0.0726906955242157,-0.08903373032808304
1761391517564142300,0.430142333984375,-0.07698781043291092,-0.0660087838768959,-0.0959281474351883
1761391517574208300,0.440208251953125,-0.07834948599338531,-0.035075634717941284,-0.10632273554801941
1761391517584274200,0.450274169921875,-0.06767191737890244,0.00336291640996933,-0.1081615537405014
1761391517594341400,0.46034130859375,-0.060078177601099014,0.050750941038131714,-0.11111313849687576
1761391517604407300,0.4704072265625,-0.050730571150779724,0.08143022656440735,-0.10150795429944992
1761391517614473200,0.48047314453125,-0.04728231206536293,0.08653337508440018,-0.08143757283687592
1761391517624539400,0.490539306640625,-0.05567990988492966,0.06367988139390945,-0.05248076468706131
1761391517634605000,0.50060498046875,-0.0655013844370842,0.03624825179576874,-0.028009774163365364
1761391517644672500,0.510672607421875,-0.06655829399824142,0.01238985825330019,-0.0012827897444367409
1761391517654738200,0.52073828125,-0.06398088485002518,-0.0023816311731934547,0.017022714018821716
1761391517664804000,0.53080419921875,-0.05348744988441467,-0.012311401776969433,0.03473668918013573
1761391517674870300,0.540870361328125,-0.048442356288433075,-0.012981719337403774,0.04648921638727188
1761391517684936200,0.550936279296875,-0.04953565075993538,0.011614862829446793,0.03894950449466705
1761391517695003400,0.56100341796875,-0.045841045677661896,0.039966873824596405,0.02316547930240631
1761391517705069300,0.5710693359375,-0.03773698955774307,0.04665203392505646,-0.0010962281376123428
1761391517715135200,0.58113525390625,-0.026698455214500427,0.035325609147548676,-0.034614238888025284
1761391517725201400,0.591201416015625,-0.018384266644716263,0.004004988819360733,-0.06268256902694702
1761391517735267000,0.60126708984375,-0.013191635720431805,-0.038645267486572266,-0.08179847151041031
1761391517745333200,0.611333251953125,-0.026914216578006744,-0.037682097405195236,-0.08817906677722931
1761391517755400200,0.621400146484375,-0.026634320616722107,0.007541040889918804,-0.09231549501419067
1761391517765466000,0.631466064453125,-0.034461379051208496,0.04614492878317833,-0.0960172787308693
1761391517775532300,0.6415322265625,-0.039902213960886,0.05466890707612038,-0.1085362657904625
1761391517785598200,0.65159814453125,-0.03652183711528778,0.030494559556245804,-0.1178450882434845
1761391517795664400,0.661664306640625,-0.03650026395916939,-0.012537595815956593,-0.13263627886772156
1761391517805731300,0.6717314453125,-0.034520022571086884,-0.05828569084405899,-0.1421716809272766
1761391517815797200,0.68179736328125,-0.029422463849186897,-0.06951464712619781,-0.14423643052577972
1761391517825863400,0.691863525390625,-0.020620524883270264,-0.04173479974269867,-0.1283119171857834
1761391517835929300,0.701929443359375,-0.016164522618055344,-0.008210664615035057,-0.11461260914802551
1761391517845995300,0.711995361328125,-0.010629896074533463,0.035206399857997894,-0.10197683423757553
1761391517856062200,0.722062255859375,-0.007751550991088152,0.08831168711185455,-0.09217240661382675
1761391517866128100,0.732128173828125,0.007088950835168362,0.11452896893024445,-0.09350420534610748
1761391517876194300,0.7421943359375,0.020512878894805908,0.10549313575029373,-0.08661353588104248
1761391517886260200,0.75226025390625,0.036100663244724274,0.08159079402685165,-0.07583433389663696
1761391517896326400,0.762326416015625,0.0435524545609951,0.04761631786823273,-0.06616172939538956
1761391517906392300,0.772392333984375,0.04118647426366806,0.011526612564921379,-0.05423925071954727
1761391517916459300,0.782459228515625,0.03434401750564575,-0.01283625140786171,-0.05357372760772705
1761391517926525400,0.792525390625,0.02901012822985649,-0.009695319458842278,-0.0566706620156765
1761391517936591400,0.80259130859375,0.016316169872879982,-0.007161588408052921,-0.05070944130420685
1761391517946657300,0.8126572265625,0.003933848813176155,0.004941670224070549,-0.03717963024973869
1761391517956723200,0.82272314453125,-0.008656511083245277,0.03922880440950394,-0.009971179068088531
1761391517966790100,0.8327900390625,-0.030638132244348526,0.07264038175344467,0.00735607510432601
1761391517976856300,0.842856201171875,-0.05164914205670357,0.09155602008104324,0.02662804163992405
1761391517986922200,0.852922119140625,-0.059809453785419464,0.09384303539991379,0.04116995260119438
1761391517996988400,0.862988525390625,-0.05773165076971054,0.07252256572246552,0.05910581350326538
1761391518007054300,0.873054443359375,-0.05108101665973663,0.04771864786744118,0.080923892557621
1761391518017120300,0.883120361328125,-0.03296912461519241,0.05032375082373619,0.11076328158378601
1761391518027187500,0.8931875,-0.013030065223574638,0.09967980533838272,0.14597855508327484
1761391518037253400,0.90325341796875,0.01602369174361229,0.1434435248374939,0.1815013885498047
1761391518047319300,0.9133193359375,0.05312834680080414,0.17747491598129272,0.2187141478061676
1761391518057385200,0.92338525390625,0.0807913988828659,0.20561280846595764,0.25503915548324585
1761391518067451100,0.933451171875,0.09837289154529572,0.18920248746871948,0.29563701152801514
1761391518077518300,0.943518310546875,0.09708498418331146,0.14193297922611237,0.31675586104393005
1761391518087584300,0.953584228515625,0.06749168783426285,0.09165571630001068,0.3364177942276001
1761391518097650200,0.963650146484375,0.03850290924310684,0.1132800430059433,0.35274749994277954
1761391518107716400,0.97371630859375,0.010627703741192818,0.1534094363451004,0.35494768619537354
1761391518117782300,0.9837822265625,0.005514434538781643,0.18221817910671234,0.34568068385124207
1761391518127849200,0.99384912109375,0.026670090854167938,0.22210146486759186,0.32619383931159973
1761391518137915400,1.003915283203125,0.04690052941441536,0.2268562763929367,0.303312748670578
1761391518147981000,1.01398095703125,0.059723518788814545,0.21346765756607056,0.2766871750354767
1761391518158047200,1.024047119140625,0.05941805616021156,0.19533765316009521,0.24720439314842224
1761391518168113200,1.034113037109375,0.06162517890334129,0.17080746591091156,0.2142322063446045
1761391518178179300,1.044179443359375,0.07519451528787613,0.1597612053155899,0.1797245591878891
1761391518188246300,1.054246337890625,0.09932812303304672,0.15996089577674866,0.14916540682315826
1761391518198312200,1.064312255859375,0.12549607455730438,0.14863847196102142,0.12128636986017227
1761391518208378400,1.07437841796875,0.14519552886486053,0.11299721896648407,0.11223717033863068
1761391518218444300,1.0844443359375,0.13028796017169952,0.09439850598573685,0.12916235625743866
1761391518228510500,1.094510498046875,0.08501916378736496,0.10504651069641113,0.15986168384552002
1761391518238577400,1.104577392578125,0.03259643167257309,0.11654071509838104,0.2098846286535263
1761391518248643300,1.114643310546875,-0.005938599817454815,0.10399731993675232,0.2620902359485626
1761391518258709200,1.124709228515625,-0.026667315512895584,0.09613700211048126,0.28442588448524475
1761391518268775200,1.134775146484375,-0.02361002191901207,0.11205548048019409,0.2763185501098633
1761391518278841300,1.14484130859375,-0.017256252467632294,0.1341671645641327,0.23592691123485565
1761391518288907300,1.1549072265625,-0.00618068128824234,0.1426941156387329,0.1860431432723999
1761391518298974200,1.16497412109375,0.0046120453625917435,0.1269790679216385,0.13818107545375824
1761391518309040400,1.175040283203125,0.01599344052374363,0.09092555940151215,0.08999083936214447
1761391518319106300,1.185106201171875,0.031244032084941864,0.012076012790203094,0.041089609265327454
1761391518329172000,1.195171875,0.03853585943579674,-0.07658401876688004,-0.006697854492813349
1761391518339238000,1.20523779296875,0.03780109062790871,-0.1278703808784485,-0.026695530861616135
1761391518349304800,1.215304931640625,0.021978480741381645,-0.13390399515628815,-0.019791575148701668
1761391518359371000,1.22537109375,0.0006353766657412052,-0.09452702105045319,-0.0011901934631168842
1761391518369437000,1.23543701171875,-0.017519081011414528,-0.02267885021865368,0.02814599871635437
1761391518379503000,1.245503173828125,-0.028072919696569443,0.054113395512104034,0.05948847159743309
1761391518389568800,1.25556884765625,-0.031079288572072983,0.1140679270029068,0.08647333830595016
1761391518399635000,1.265635009765625,-0.016068115830421448,0.13404004275798798,0.1059836596250534
1761391518409702000,1.275701904296875,-0.020496301352977753,0.09697640687227249,0.15210802853107452
1761391518419767800,1.285767822265625,-0.01759026013314724,0.21481117606163025,0.2024574875831604
1761391518429834000,1.295833984375,-0.018702112138271332,-0.013938450254499912,0.1784639060497284
1761391518439900000,1.30589990234375,-0.0622706301510334,-0.16621613502502441,0.15720708668231964
1761391518449966000,1.315966064453125,-0.06431298702955246,-0.14896202087402344,0.1633479744195938
1761391518460033000,1.326032958984375,-0.026392504572868347,-0.17419546842575073,0.13936620950698853
1761391518470099000,1.336098876953125,-0.009661680087447166,-0.20618581771850586,0.12037613987922668
1761391518480165000,1.3461650390625,0.00032410863786935806,-0.1798921525478363,0.11593958735466003
1761391518490230800,1.356230712890625,0.005222047679126263,-0.12287723273038864,0.12204436212778091
1761391518500296700,1.366296630859375,0.01082880049943924,-0.048281289637088776,0.12481164187192917
1761391518510363000,1.37636279296875,0.026773126795887947,0.017992772161960602,0.13290855288505554
1761391518520429800,1.386429931640625,0.05134771391749382,0.061998579651117325,0.15342049300670624
1761391518530496000,1.39649609375,0.08128327876329422,0.06312648952007294,0.15721023082733154
1761391518540562000,1.40656201171875,0.10979108512401581,0.025393493473529816,0.154988095164299
1761391518550627800,1.4166279296875,0.12137709558010101,0.024240218102931976,0.14526955783367157
1761391518560694000,1.426694091796875,0.10871482640504837,0.02606581524014473,0.136476069688797
1761391518570761000,1.436760986328125,0.08747493475675583,0.025637203827500343,0.1406092792749405
1761391518580827000,1.446826904296875,0.0794348493218422,0.03336063772439957,0.14908026158809662
1761391518590892800,1.456892822265625,0.08057111501693726,0.04654906690120697,0.16027581691741943
1761391518600958700,1.466958740234375,0.09276706725358963,0.0792260468006134,0.16306307911872864
1761391518611025000,1.47702490234375,0.10154446959495544,0.08417091518640518,0.1639726310968399
1761391518621090800,1.4870908203125,0.09557818621397018,0.09613889455795288,0.17674967646598816
1761391518631157800,1.49715771484375,0.09435766190290451,0.1405806690454483,0.18917837738990784
1761391518641224000,1.507223876953125,0.10717971622943878,0.16680693626403809,0.20154929161071777
1761391518651289900,1.517289794921875,0.12808261811733246,0.2580292522907257,0.21375490725040436
1761391518661356000,1.52735595703125,0.14387835562229156,0.3475532829761505,0.22904783487319946
1761391518671422000,1.537421875,0.12121909856796265,0.40561366081237793,0.27221113443374634
1761391518681489000,1.547489013671875,0.09696755558252335,0.5294705629348755,0.3302725553512573
1761391518691555000,1.55755517578125,0.04368272051215172,0.38397541642189026,0.324110746383667
1761391518701620700,1.567620849609375,0.00019862782210111618,0.40430572628974915,0.2981465458869934
1761391518711687000,1.57768701171875,0.03320109844207764,0.5046094655990601,0.2747233808040619
1761391518721752800,1.5877529296875,0.1020379513502121,0.6038766503334045,0.25734785199165344
1761391518731819000,1.597819091796875,0.14043176174163818,0.6680677533149719,0.25568887591362
1761391518741886000,1.607885986328125,0.1382032334804535,0.679871678352356,0.28279587626457214
1761391518751952000,1.617951904296875,0.1464126855134964,0.5333895087242126,0.32291659712791443
1761391518762018000,1.62801806640625,0.08625266700983047,0.2305273562669754,0.30979999899864197
1761391518772084000,1.638083984375,0.025851396843791008,0.1027688980102539,0.2571350932121277
1761391518782150000,1.64814990234375,-0.009807797148823738,0.13565707206726074,0.14432919025421143
1761391518792217000,1.658217041015625,-0.02305721491575241,0.12865442037582397,0.005044376011937857
1761391518802282800,1.66828271484375,-0.03076067380607128,0.10426491498947144,-0.14091257750988007
1761391518812349000,1.678348876953125,-0.04385441541671753,-0.00011296290904283524,-0.2695564329624176
1761391518822414800,1.688414794921875,-0.06149865686893463,-0.14372286200523376,-0.3482097089290619
1761391518832481000,1.69848095703125,-0.09539016336202621,-0.25389689207077026,-0.3661160171031952
1761391518842548000,1.7085478515625,-0.14594069123268127,-0.3051363527774811,-0.3278360068798065
1761391518852614000,1.71861376953125,-0.18032306432724,-0.3440208435058594,-0.2524203062057495
1761391518862680000,1.72868017578125,-0.2071688026189804,-0.36861807107925415,-0.17754685878753662
1761391518872746000,1.73874609375,-0.21881161630153656,-0.35700926184654236,-0.11103548854589462
1761391518882812000,1.74881201171875,-0.19826027750968933,-0.2680378556251526,-0.043404512107372284
1761391518892877800,1.7588779296875,-0.16358830034732819,-0.14234976470470428,0.021853143349289894
1761391518902944800,1.76894482421875,-0.12864576280117035,-0.08553095906972885,0.05751873180270195
1761391518913011000,1.779010986328125,-0.10459153354167938,-0.07550385594367981,0.07009220868349075
1761391518923076900,1.789076904296875,-0.07871492952108383,-0.0531865656375885,0.0756014883518219
1761391518933142800,1.799142822265625,-0.05973410978913307,-0.04173215478658676,0.07447546720504761
1761391518943209000,1.809208984375,-0.049719296395778656,-0.0664082020521164,0.060440074652433395
1761391518953275000,1.81927490234375,-0.030117331072688103,-0.10520213842391968,0.03759740665555
1761391518963341800,1.829341796875,-0.017390349879860878,-0.11917175352573395,0.008505033329129219
1761391518973408000,1.839407958984375,-0.010318167507648468,-0.11954895406961441,-0.03963925689458847
1761391518983474000,1.849473876953125,-0.007253136485815048,-0.12649713456630707,-0.08680117875337601
1761391518993539800,1.859539794921875,-0.002958375494927168,-0.1425880789756775,-0.12680213153362274
1761391519003605800,1.869605712890625,-0.007006912957876921,-0.13581565022468567,-0.15834647417068481
1761391519013672700,1.879672607421875,-0.02098705805838108,-0.11792761832475662,-0.18115536868572235
1761391519023739000,1.88973876953125,-0.04240153729915619,-0.10196889191865921,-0.2003341168165207
1761391519033804800,1.8998046875,-0.05790647864341736,-0.07608726620674133,-0.21389564871788025
1761391519043871000,1.90987109375,-0.059740595519542694,-0.070995032787323,-0.2057972401380539
1761391519053937000,1.91993701171875,-0.053169164806604385,-0.05100680887699127,-0.16291241347789764
1761391519064003800,1.93000390625,-0.04577995836734772,-0.010783221572637558,-0.0994466245174408
1761391519074070000,1.940070068359375,-0.0449289046227932,-0.00364796444773674,-0.041233669966459274
1761391519084136000,1.950135986328125,-0.048994485288858414,-0.014889166690409184,-0.003790954826399684
1761391519094201900,1.960201904296875,-0.04388105869293213,-0.0219932422041893,0.01649787649512291
1761391519104267800,1.970267822265625,-0.03532139211893082,-0.040317386388778687,0.011549189686775208
1761391519114334000,1.980333984375,-0.027548812329769135,-0.057248543947935104,-0.006015433929860592
1761391519124401000,1.99040087890625,-0.025749314576387405,-0.06348113715648651,-0.0449250154197216
1761391519134466800,2.000466796875,-0.026180129498243332,-0.043669573962688446,-0.08630605787038803
1761391519144533000,2.010532958984375,-0.03452461212873459,-0.025355281308293343,-0.13179711997509003
1761391519154599000,2.020598876953125,-0.042470887303352356,0.004467703402042389,-0.17860452830791473
1761391519164665000,2.0306650390625,-0.04521234333515167,0.013393022119998932,-0.22042414546012878
1761391519174732000,2.04073193359375,-0.03541841357946396,-0.005008812062442303,-0.25135987997055054
1761391519184798000,2.0507978515625,-0.020467162132263184,-0.05670209974050522,-0.2547822892665863
1761391519194863900,2.06086376953125,-0.00035948818549513817,-0.06098977476358414,-0.20660217106342316
1761391519204929800,2.0709296875,0.021496009081602097,-0.06911641359329224,-0.14586105942726135
1761391519214996000,2.080995849609375,0.033367056399583817,-0.11759622395038605,-0.0848008319735527
1761391519225062000,2.091061767578125,0.05086482688784599,-0.15876682102680206,-0.053763821721076965
1761391519235128800,2.10112890625,0.0686490461230278,-0.17020420730113983,-0.049249064177274704
1761391519245195000,2.111195068359375,0.09735472500324249,-0.14074485003948212,-0.06673751026391983
1761391519255261000,2.121260986328125,0.12317442148923874,-0.11022727936506271,-0.09834237396717072
1761391519265327000,2.1313271484375,0.1355421394109726,-0.08352136611938477,-0.12441498786211014
1761391519275393000,2.14139306640625,0.1393461376428604,-0.07692349702119827,-0.12199953943490982
1761391519285460000,2.1514599609375,0.14156827330589294,-0.026318106800317764,-0.09002828598022461
1761391519295526000,2.16152587890625,0.13853372633457184,0.01617087423801422,-0.04470021277666092
1761391519305591800,2.171591796875,0.15154993534088135,0.05646609887480736,-0.01305360347032547
1761391519315657700,2.18165771484375,0.17007963359355927,0.09352977573871613,0.010773107409477234
1761391519325724000,2.191723876953125,0.19177161157131195,0.11317059397697449,0.014112979173660278
1761391519335789800,2.201789794921875,0.2069050520658493,0.10385064035654068,-0.008507135324180126
1761391519345857000,2.21185693359375,0.22762231528759003,0.0840284675359726,-0.05297526717185974
1761391519355923000,2.2219228515625,0.2527400255203247,0.057040706276893616,-0.11789257079362869
1761391519365988900,2.23198876953125,0.2757028639316559,0.04132433235645294,-0.17936258018016815
1761391519376055000,2.242054931640625,0.2975449860095978,0.007165485993027687,-0.2449214905500412
1761391519386121000,2.252120849609375,0.3167594373226166,-0.051272522658109665,-0.27022871375083923
1761391519396188000,2.26218798828125,0.332889199256897,-0.02889258973300457,-0.24279676377773285
1761391519406254000,2.272254150390625,0.3518354594707489,0.050551366060972214,-0.17047010362148285
1761391519416319700,2.28231982421875,0.35201048851013184,0.11515544354915619,-0.07733169198036194
1761391519426386000,2.292385986328125,0.33509647846221924,0.1141279935836792,0.004179679322987795
1761391519436451800,2.302451904296875,0.33313336968421936,0.08183895796537399,0.08872108161449432
1761391519446518000,2.31251806640625,0.3289996087551117,0.04727085679769516,0.126142218708992
1761391519456585000,2.3225849609375,0.3187818229198456,-0.010350421071052551,0.1279142200946808
1761391519466651000,2.33265087890625,0.30193892121315,-0.06330684572458267,0.10811975598335266
1761391519476717000,2.342717041015625,0.2748352885246277,-0.0769072026014328,0.08649319410324097
1761391519486783000,2.352782958984375,0.25172412395477295,-0.07171323895454407,0.05282231792807579
1761391519496849200,2.36284912109375,0.2352546900510788,-0.021751709282398224,0.020339403301477432
1761391519506916000,2.372916015625,0.22862368822097778,0.04222673922777176,-0.014582362025976181
1761391519516981800,2.382981689453125,0.22254055738449097,0.06626984477043152,-0.058330949395895004
1761391519527048000,2.3930478515625,0.21362562477588654,0.069913849234581,-0.08489011973142624
1761391519537113900,2.40311376953125,0.2148464173078537,0.0591922327876091,-0.09863682836294174
1761391519547180000,2.413179931640625,0.21812796592712402,0.0535212978720665,-0.09570015966892242
1761391519557246000,2.423245849609375,0.2258715033531189,0.056563302874565125,-0.0791039690375328
1761391519567313000,2.43331298828125,0.2307690531015396,0.044942863285541534,-0.04594121500849724
1761391519577379000,2.443379150390625,0.22114719450473785,0.019446417689323425,-0.005778259597718716
1761391519587445000,2.453445068359375,0.20281265676021576,-0.032427966594696045,0.024179106578230858
1761391519597511200,2.46351123046875,0.18900345265865326,-0.0808391273021698,0.04415223374962807
1761391519607576800,2.473576904296875,0.18514293432235718,-0.09718427807092667,0.05145994573831558
1761391519617643800,2.483643798828125,0.18415866792201996,-0.10017415136098862,0.04924638941884041
1761391519627710000,2.4937099609375,0.18996170163154602,-0.09690192341804504,0.033883143216371536
1761391519637776000,2.50377587890625,0.19748280942440033,-0.07658621668815613,0.00796574354171753
1761391519647842000,2.513842041015625,0.20073214173316956,-0.06130179762840271,-0.012550716288387775
1761391519657908000,2.523907958984375,0.19484756886959076,-0.04770803824067116,-0.028100786730647087
1761391519667974000,2.533973876953125,0.18654116988182068,-0.038238637149333954,-0.04185761138796806
1761391519678041000,2.544041015625,0.1719566285610199,-0.03728806599974632,-0.04128744453191757
1761391519688107000,2.55410693359375,0.15584318339824677,-0.04870876669883728,-0.036850087344646454
1761391519698173000,2.5641728515625,0.1315803825855255,-0.0695723369717598,-0.02608829364180565
1761391519708238800,2.57423876953125,0.10868491977453232,-0.09102489799261093,-0.013811653479933739
1761391519718304800,2.5843046875,0.08621302247047424,-0.09493962675333023,-0.0027304133400321007
1761391519728372000,2.5943720703125,0.07271372526884079,-0.09544562548398972,-0.0024145622737705708
1761391519738438000,2.60443798828125,0.07030429691076279,-0.09163866937160492,-0.009788191877305508
1761391519748503800,2.61450390625,0.07369955629110336,-0.07669806480407715,-0.024490438401699066
1761391519758570000,2.624570068359375,0.06940888613462448,-0.05294862389564514,-0.04668758064508438
1761391519768636000,2.634635986328125,0.06917399168014526,-0.039492733776569366,-0.06498482823371887
1761391519778702000,2.6447021484375,0.07159411907196045,-0.02862853929400444,-0.07416774332523346
1761391519788769000,2.65476904296875,0.08130080252885818,-0.025511842221021652,-0.0719836875796318
1761391519798835000,2.6648349609375,0.09163068979978561,-0.0365503653883934,-0.05998925492167473
1761391519808900900,2.67490087890625,0.10158931463956833,-0.05193357914686203,-0.043662481009960175
1761391519818966800,2.684966796875,0.1110144555568695,-0.056874267756938934,-0.017937300726771355
1761391519829033000,2.695032958984375,0.11341183632612228,-0.058621037751436234,0.0031464132480323315
1761391519839100000,2.705099853515625,0.10189249366521835,-0.05916333943605423,0.011920087039470673
1761391519849165800,2.715165771484375,0.08783926069736481,-0.06836269795894623,0.014178447425365448
1761391519859232000,2.72523193359375,0.08213268220424652,-0.09381427615880966,0.000044323038309812546
1761391519869298000,2.7352978515625,0.08331672102212906,-0.1141805350780487,-0.021585337817668915
1761391519879364000,2.745364013671875,0.09131238609552383,-0.12389548867940903,-0.03734568506479263
1761391519889430000,2.755429931640625,0.09743685275316238,-0.10802597552537918,-0.03630226105451584
1761391519899497000,2.7654970703125,0.09952841699123383,-0.094446562230587,-0.019720571115612984
1761391519909563100,2.775563232421875,0.09327265620231628,-0.06341168284416199,0.008931579068303108
1761391519919628800,2.78562890625,0.08924678713083267,-0.015024392865598202,0.033834245055913925
1761391519929695000,2.795695068359375,0.08622036874294281,0.015561480075120926,0.045857351273298264
1761391519939761000,2.805760986328125,0.0894140899181366,0.016136471182107925,0.059486668556928635
1761391519949827800,2.815827880859375,0.09888136386871338,0.007352299988269806,0.06023367866873741
1761391519959894000,2.82589404296875,0.1114804819226265,-0.0020331693813204765,0.04937225207686424
1761391519969960000,2.8359599609375,0.11601584404706955,-0.016514640301465988,0.02937777154147625
1761391519980026000,2.846026123046875,0.13055415451526642,-0.04011973738670349,0.004647586960345507
1761391519990092000,2.856092041015625,0.13978679478168488,-0.058981843292713165,-0.02235846407711506
1761391520000158000,2.866157958984375,0.14638516306877136,-0.06298099458217621,-0.05154670029878616
1761391520010225200,2.87622509765625,0.14825549721717834,-0.08564449846744537,-0.07135289907455444
1761391520020290800,2.886290771484375,0.14411123096942902,-0.0992584228515625,-0.08815212547779083
1761391520030357000,2.89635693359375,0.14486491680145264,-0.11220245063304901,-0.09366034716367722
1761391520040423000,2.9064228515625,0.14629539847373962,-0.11910795420408249,-0.0919070690870285
1761391520050488800,2.91648876953125,0.14842380583286285,-0.1281837373971939,-0.0810842514038086
1761391520060556000,2.92655615234375,0.14475610852241516,-0.12985777854919434,-0.054473064839839935
1761391520070622000,2.9366220703125,0.136441171169281,-0.11832443624734879,-0.025634223595261574
1761391520080687900,2.94668798828125,0.13104267418384552,-0.11775881052017212,-0.008688692934811115
1761391520090754000,2.956754150390625,0.11591671407222748,-0.11682803928852081,-0.0035751578398048878
1761391520100820000,2.966820068359375,0.09944862872362137,-0.1101338341832161,-0.004810749553143978
1761391520110886000,2.976885986328125,0.09073290228843689,-0.091994509100914,-0.0179009847342968
1761391520120952800,2.986952880859375,0.07975564152002335,-0.06333166360855103,-0.023948779329657555
1761391520131018800,2.997018798828125,0.07534731179475784,-0.03012816607952118,-0.0193492341786623
1761391520141085000,3.0070849609375,0.07104635238647461,-0.014370964840054512,-0.010322308167815208
1761391520151150800,3.01715087890625,0.061884015798568726,-0.016741178929805756,0.015376130118966103
1761391520161217000,3.027217041015625,0.051160410046577454,-0.007725689094513655,0.036475811153650284
1761391520171284000,3.037283935546875,0.04419650882482529,-0.00539808627218008,0.055911824107170105
1761391520181350000,3.047349853515625,0.0467597171664238,-0.006504768505692482,0.05934763699769974
1761391520191416000,3.057416015625,0.0506436713039875,-0.020352941006422043,0.044338326901197433
1761391520201482000,3.06748193359375,0.05401880666613579,-0.044802263379096985,0.02259701117873192
1761391520211548000,3.0775478515625,0.053523726761341095,-0.07908247411251068,0.0022009252570569515
1761391520221613800,3.08761376953125,0.06212995946407318,-0.10062582045793533,-0.01254800334572792
1761391520231680800,3.0976806640625,0.07267847657203674,-0.11226170510053635,-0.019552383571863174
1761391520241747000,3.107746826171875,0.07761569321155548,-0.12333089113235474,-0.013441392220556736
1761391520251812900,3.117812744140625,0.07996752858161926,-0.13309350609779358,-0.008667942136526108
1761391520261879000,3.127879150390625,0.08212953805923462,-0.1292463093996048,-0.0013661128468811512
1761391520271945000,3.137945068359375,0.08984764665365219,-0.12094896286725998,0.003990303259342909
1761391520282012000,3.148011962890625,0.0991051122546196,-0.09575296938419342,0.0037298002280294895
1761391520292078000,3.158078125,0.09988275915384293,-0.06218408793210983,0.004578548949211836
1761391520302144000,3.16814404296875,0.08954250812530518,-0.03468453884124756,0.004609791096299887
1761391520312210000,3.1782099609375,0.07931383699178696,-0.011853789910674095,0.01113986223936081
1761391520322276000,3.188276123046875,0.06861665844917297,-0.005177266895771027,0.033489059656858444
1761391520332342300,3.19834228515625,0.058768291026353836,-0.016014467924833298,0.03996293619275093
1761391520342409200,3.2084091796875,0.05571994185447693,-0.04321694374084473,0.04178318753838539
1761391520352475100,3.21847509765625,0.050044212490320206,-0.045799944549798965,0.03448506072163582
1761391520362541300,3.228541259765625,0.04804421588778496,-0.03274426609277725,0.034796178340911865
1761391520372607200,3.238607177734375,0.04926314577460289,-0.02094087190926075,0.02284098230302334
1761391520382673200,3.248673095703125,0.05233510211110115,-0.011578262783586979,0.009482566267251968
1761391520392740400,3.258740234375,0.056204941123723984,-0.0055589862167835236,-0.008747304789721966
1761391520402806000,3.268805908203125,0.061807334423065186,-0.005686899647116661,-0.019098060205578804
1761391520412872200,3.2788720703125,0.06316208094358444,-0.00976579636335373,-0.024769794195890427
1761391520422938000,3.288938232421875,0.05886416137218475,-0.030815785750746727,-0.026337789371609688
1761391520433004000,3.299004150390625,0.05242171138525009,-0.04044923931360245,-0.020788028836250305
1761391520443070200,3.3090703125,0.045507967472076416,-0.047544632107019424,-0.013576158322393894
1761391520453137200,3.31913720703125,0.03266806900501251,-0.04974653199315071,-0.01796584762632847
1761391520463203000,3.329203125,0.0238046757876873,-0.031015582382678986,-0.03186178207397461
1761391520473269200,3.339269287109375,0.013423141092061996,-0.011127892881631851,-0.046695854514837265
1761391520483335200,3.349335205078125,0.004794178530573845,0.004258695058524609,-0.06682345271110535
1761391520493401000,3.359401123046875,0.012361017987132072,0.027238044887781143,-0.07620815932750702
1761391520503467000,3.369467041015625,0.023180972784757614,0.036970943212509155,-0.06203345209360123
1761391520513534000,3.379533935546875,0.02874404937028885,0.02483811415731907,-0.04290396347641945
1761391520523600100,3.38960009765625,0.03899547457695007,0.022059213370084763,-0.021536080166697502
1761391520533666000,3.399666015625,0.04215638339519501,0.023265626281499863,-0.0006611589342355728
1761391520543732200,3.409732177734375,0.04189940541982651,0.025089390575885773,0.01666446588933468
1761391520553798100,3.419798095703125,0.03425399959087372,0.02976350113749504,0.024484040215611458
1761391520563865000,3.429864990234375,0.029671436175704002,0.027803577482700348,0.014422044157981873
1761391520573931300,3.43993115234375,0.0299643836915493,0.01463477686047554,-0.0018171118572354317
1761391520583997200,3.4499970703125,0.03589310497045517,-0.0006911978125572205,-0.025523323565721512
1761391520594063000,3.46006298828125,0.04514945298433304,-0.015317544341087341,-0.053703028708696365
1761391520604129000,3.47012890625,0.052334826439619064,-0.02945740893483162,-0.06467562913894653
1761391520614195200,3.4801953125,0.04970015957951546,-0.03263908997178078,-0.0672069638967514
1761391520624262100,3.49026220703125,0.04044700786471367,-0.03146516904234886,-0.05112014338374138
1761391520634328000,3.500328125,0.029407139867544174,-0.02458861842751503,-0.03024601936340332
1761391520644394200,3.510394287109375,0.02177414298057556,-0.013943261466920376,-0.013142595067620277
1761391520654460200,3.520460205078125,0.015165243297815323,0.0091620571911335,0.012315625324845314
1761391520664526300,3.5305263671875,0.01041030790656805,0.029596000909805298,0.03468583896756172
1761391520674593300,3.54059326171875,0.003423504764214158,0.030355535447597504,0.049199800938367844
1761391520684659200,3.5506591796875,0.002611433155834675,0.017899908125400543,0.059972941875457764
1761391520694725000,3.56072509765625,0.0029445947147905827,0.006248577497899532,0.05309879407286644
1761391520704791000,3.570791015625,0.0036849812604486942,-0.0016045058146119118,0.031237682327628136
1761391520714857200,3.580857177734375,-0.0006599659100174904,-0.014866515062749386,0.0052311173640191555
1761391520724923100,3.590923095703125,-0.0008852607570588589,-0.019437016919255257,-0.027002371847629547
1761391520734990000,3.600989990234375,-0.008766353130340576,-0.02355479821562767,-0.049429651349782944
1761391520745056300,3.61105615234375,-0.011605833657085896,-0.020479675382375717,-0.06961257755756378
1761391520755122200,3.6211220703125,-0.012672961689531803,-0.015337909571826458,-0.0741463452577591
1761391520765188000,3.63118798828125,-0.008824484422802925,-0.010708541609346867,-0.07488907128572464
1761391520775254300,3.641254150390625,-0.00733258156105876,-0.006339626386761665,-0.0711292177438736
1761391520785321200,3.6513212890625,-0.006476999260485172,-0.00355544313788414,-0.05479633808135986
1761391520795387400,3.661387451171875,-0.002659623511135578,0.004045484587550163,-0.03979048877954483
1761391520805453000,3.671453125,0.001089931931346655,0.001154949888586998,-0.02393159829080105
1761391520815519000,3.68151904296875,0.007171526551246643,0.015768781304359436,-0.007579256314784288
1761391520825585200,3.691585205078125,0.009843687526881695,0.03702879697084427,-0.0030206977389752865
1761391520835652000,3.701652099609375,0.010282044298946857,0.0495603010058403,-0.014775091782212257
1761391520845718300,3.71171826171875,0.004473193548619747,0.04252615571022034,-0.03731869161128998
1761391520855784200,3.7217841796875,-0.005110990256071091,0.045580267906188965,-0.04113100469112396
1761391520865850000,3.73185009765625,-0.015433825552463531,0.048233140259981155,-0.05152619257569313
1761391520875916300,3.741916259765625,-0.0261882022023201,0.04200959950685501,-0.059928201138973236
1761391520885982000,3.75198193359375,-0.03281655162572861,0.036636121571063995,-0.06869008392095566
1761391520896049200,3.762049072265625,-0.03625283017754555,0.049562305212020874,-0.06946239620447159
1761391520906115000,3.772114990234375,-0.03769233450293541,0.0483420267701149,-0.05984151363372803
1761391520916181000,3.782180908203125,-0.04013684764504433,0.03376494348049164,-0.06311321258544922
1761391520926247200,3.7922470703125,-0.03619592636823654,0.019690893590450287,-0.06913778930902481
1761391520936313000,3.80231298828125,-0.0295188520103693,0.01725197210907936,-0.06600138545036316
1761391520946380000,3.812380126953125,-0.02458127960562706,0.009690758772194386,-0.05694197490811348
1761391520956446200,3.8224462890625,-0.025206856429576874,0.0030301930382847786,-0.04209005832672119
1761391520966512000,3.83251220703125,-0.02182382345199585,-0.00625488581135869,-0.017537148669362068
1761391520976578300,3.842578369140625,-0.01466391421854496,-0.008682623505592346,-0.0001887856051325798
1761391520986644200,3.852644287109375,-0.01619662716984749,0.0005096988752484322,0.007411572616547346
1761391520996710100,3.862710205078125,-0.018277090042829514,0.017392808571457863,0.014039382338523865
1761391521006777000,3.872777099609375,-0.020744305104017258,0.02882174775004387,0.009205956012010574
1761391521016843000,3.882843017578125,-0.02016559988260269,0.033561110496520996,0.0033147777430713177
1761391521026909200,3.8929091796875,-0.008942581713199615,0.04105360805988312,-0.011646196246147156
1761391521036975000,3.90297509765625,-0.0016742823645472527,0.03946157544851303,-0.027637945488095284
1761391521047041300,3.913041259765625,0.004712575115263462,0.029190583154559135,-0.04951682686805725
1761391521057108200,3.923108154296875,0.013380631804466248,0.0067603737115859985,-0.06647157669067383
1761391521067174100,3.933174072265625,0.023003358393907547,0.0068201664835214615,-0.06670764833688736
1761391521077240300,3.943240234375,0.025292079895734787,0.004720529541373253,-0.048389632254838943
1761391521087306200,3.95330615234375,0.02046995796263218,-0.000893300399184227,-0.02547229453921318
1761391521097372200,3.9633720703125,0.007161875255405903,0.01169093418866396,0.00016569159924983978
1761391521107438000,3.97343798828125,-0.009525133296847343,0.018775004893541336,0.023742692545056343
1761391521117505000,3.983505126953125,-0.020841702818870544,0.022069867700338364,0.03345657140016556
1761391521127571200,3.9935712890625,-0.018987152725458145,0.01824766770005226,0.024029642343521118
1761391521137637000,4.00363720703125,-0.020626861602067947,0.022128161042928696,0.005265277344733477
1761391521147703300,4.013703369140625,-0.02400268241763115,0.03227347135543823,-0.004636355675756931
1761391521157769200,4.023769287109375,-0.025404568761587143,0.03496566042304039,-0.02312295511364937
1761391521167836200,4.033836181640625,-0.023740381002426147,0.03848499804735184,-0.042447280138731
1761391521177902300,4.04390234375,-0.02146710641682148,0.04036785289645195,-0.05183891952037811
1761391521187968300,4.05396826171875,-0.019931040704250336,0.0456174835562706,-0.06130235269665718
1761391521198034200,4.0640341796875,-0.020217064768075943,0.04452985152602196,-0.052123766392469406
1761391521208100000,4.07410009765625,-0.01372333150357008,0.0502043142914772,-0.03138625994324684
1761391521218166000,4.084166015625,-0.0017364434897899628,0.04731585457921028,-0.01207062043249607
1761391521228233200,4.094233154296875,0.0056601278483867645,0.03849406540393829,0.003528814297169447
1761391521238299100,4.104299072265625,0.0144211295992136,0.03543543070554733,-0.0008568796329200268
1761391521248365000,4.114364990234375,0.022205669432878494,0.034521542489528656,-0.011025084182620049
1761391521258431200,4.12443115234375,0.015245763584971428,0.03285040706396103,-0.029058946296572685
1761391521268497200,4.1344970703125,0.016601862385869026,0.024792779237031937,-0.039254963397979736
1761391521278563300,4.144563232421875,0.021605409681797028,0.004295493476092815,-0.06069527566432953
1761391521288630300,4.15463037109375,0.024574238806962967,-0.003560943529009819,-0.06952235847711563
1761391521298696000,4.164696044921875,0.01923699676990509,-0.004547378048300743,-0.06694122403860092
1761391521308762000,4.17476220703125,0.009098351001739502,-0.013241964392364025,-0.060175925493240356
1761391521318828000,4.184828125,-0.0002352292649447918,-0.011303182691335678,-0.0571279376745224
1761391521328894700,4.194894775390625,-0.005665083881467581,0.004529068246483803,-0.0570964589715004
1761391521338961700,4.204961669921875,-0.010503781959414482,0.024167217314243317,-0.055219732224941254
1761391521349027600,4.215027587890625,-0.016773561015725136,0.04633944481611252,-0.044511578977108
1761391521359093800,4.22509375,-0.019720615819096565,0.04576366767287254,-0.02385956421494484
1761391521369159700,4.23515966796875,-0.01089702919125557,0.04143043980002403,0.0007547023706138134
1761391521379225900,4.245225830078125,-0.006066587287932634,0.035129666328430176,0.01892491802573204
1761391521389291800,4.255291748046875,0.0019662585109472275,0.007847188040614128,0.021918155252933502
1761391521399358700,4.265358642578125,0.010296093299984932,-0.017637664452195168,0.011881500482559204
1761391521409425000,4.2754248046875,0.015092273242771626,-0.009165816009044647,-0.013411042280495167
1761391521419490800,4.28549072265625,0.01676873303949833,-0.004994773305952549,-0.03450381010770798
1761391521429556700,4.295556640625,0.017151741310954094,-0.012551775202155113,-0.037413690239191055
1761391521439622700,4.30562255859375,0.014042766764760017,-0.008684865199029446,-0.0416523739695549
1761391521449689600,4.315689697265625,0.008947782218456268,-0.020950647071003914,-0.03824036568403244
1761391521459755800,4.325755859375,-0.008919898420572281,-0.046882111579179764,-0.029480431228876114
1761391521469821700,4.33582177734375,-0.021488741040229797,-0.054584603756666183,-0.018001098185777664
1761391521479887600,4.3458876953125,-0.03731244429945946,-0.050450313836336136,-0.0040032570250332355
1761391521489953800,4.355953857421875,-0.040800534188747406,-0.03083699382841587,0.002586995717138052
1761391521500019700,4.366019775390625,-0.041325442492961884,-0.003116683103144169,0.0032051154412329197
1761391521510086700,4.376086669921875,-0.036130599677562714,0.010091046802699566,-0.0007681041024625301
1761391521520152800,4.38615283203125,-0.04243003949522972,0.019680023193359375,-0.007969824597239494
1761391521530218500,4.396218505859375,-0.05288821831345558,0.024714462459087372,-0.01702060177922249
1761391521540284700,4.40628466796875,-0.0597304105758667,0.028216518461704254,-0.014816303737461567
1761391521550350600,4.4163505859375,-0.05750041455030441,0.042846549302339554,-0.017131315544247627
1761391521560417500,4.42641748046875,-0.057990171015262604,0.05188531428575516,-0.02429788187146187
1761391521570483700,4.436483642578125,-0.05271576717495918,0.04127015918493271,-0.04520457983016968
1761391521580549600,4.446549560546875,-0.04247351735830307,0.015222047455608845,-0.060773685574531555
1761391521590615800,4.45661572265625,-0.037327367812395096,-0.026404820382595062,-0.0581510104238987
1761391521600681700,4.466681640625,-0.030650023370981216,-0.055364832282066345,-0.030637629330158234
1761391521610748000,4.476747802734375,-0.025969482958316803,-0.07440540194511414,-0.00894663855433464
1761391521620814800,4.48681494140625,-0.01830650493502617,-0.06791020929813385,0.000040996819734573364
1761391521630880500,4.496880615234375,-0.01427072286605835,-0.05052398517727852,0.008316747844219208
1761391521640946700,4.50694677734375,-0.021216511726379395,-0.01935488171875477,-0.0035292580723762512
1761391521651012600,4.5170126953125,-0.03318140655755997,0.014645068906247616,-0.023537250235676765
1761391521661078800,4.527078857421875,-0.04690041393041611,0.018102649599313736,-0.03314407169818878
1761391521671145700,4.537145751953125,-0.05401867628097534,0.012365748174488544,-0.0321870818734169
1761391521681211600,4.547211669921875,-0.051462572067976,0.008085782639682293,-0.028502866625785828
1761391521691277800,4.55727783203125,-0.05367905646562576,-0.00800013542175293,-0.027909742668271065
1761391521701343700,4.56734375,-0.054721154272556305,-0.009803893975913525,-0.02336159534752369
1761391521711410000,4.577409912109375,-0.05485580861568451,-0.011603312566876411,-0.012080864980816841
1761391521721475600,4.5874755859375,-0.05277348309755325,-0.020825838670134544,-0.0024306345731019974
1761391521731542500,4.59754248046875,-0.046177640557289124,-0.0242120660841465,0.022000057622790337
1761391521741608700,4.607608642578125,-0.03425467014312744,-0.0203627310693264,0.04734163358807564
1761391521751674600,4.617674560546875,-0.02005242556333542,-0.022986868396401405,0.06743882596492767
1761391521761740800,4.62774072265625,-0.0006875162944197655,-0.026399442926049232,0.07163996249437332
1761391521771806700,4.637806640625,0.014580091461539268,-0.020929358899593353,0.06473706662654877
1761391521781873700,4.647873779296875,0.02242043800652027,-0.026488706469535828,0.04435110092163086
1761391521791939800,4.65793994140625,0.02121349424123764,-0.026699095964431763,0.02781526744365692
1761391521802005800,4.668005859375,0.014381419867277145,-0.025825846940279007,0.012188103049993515
1761391521812071700,4.67807177734375,0.012307194992899895,-0.026771707460284233,-0.0005799592472612858
1761391521822137600,4.6881376953125,-0.00115561718121171,-0.013034590519964695,-0.008672506548464298
1761391521832203500,4.69820361328125,-0.024017708376049995,0.0011215824633836746,-0.012893682345747948
1761391521842270700,4.708270751953125,-0.049950506538152695,0.013438702560961246,-0.02806304767727852
1761391521852336600,4.718336669921875,-0.06155731901526451,0.017571454867720604,-0.03386175259947777
1761391521862402600,4.728402587890625,-0.054603807628154755,0.013803880661725998,-0.041133780032396317
1761391521872468700,4.73846875,-0.038647010922431946,0.010620499961078167,-0.034788042306900024
1761391521882534700,4.74853466796875,-0.02446727640926838,0.006699795834720135,-0.02157423458993435
1761391521892601900,4.758601806640625,-0.01589437760412693,-0.004286595620214939,-0.0071592931635677814
1761391521902667800,4.768667724609375,-0.01059255562722683,-0.015018868260085583,0.00524624390527606
1761391521912733700,4.778733642578125,-0.01248212531208992,-0.01747226156294346,0.018220143392682076
1761391521922799600,4.788799560546875,-0.013546057045459747,-0.011273752897977829,0.036483034491539
1761391521932865500,4.798865478515625,-0.01581861451268196,0.0011835703626275063,0.05162317305803299
1761391521942931700,4.808931640625,-0.008156167343258858,0.00884894747287035,0.0584816113114357
1761391521952998700,4.81899853515625,0.001763428095728159,0.008472484536468983,0.05281068757176399
1761391521963064600,4.829064697265625,0.012638978660106659,-0.006572511978447437,0.03421223536133766
1761391521973130800,4.839130859375,0.02036893181502819,-0.03748919442296028,0.019732171669602394
1761391521983196700,4.84919677734375,0.020254947245121002,-0.04999193549156189,0.00497745955362916
1761391521993262800,4.859262939453125,0.033446162939071655,-0.04542587324976921,-0.0017399550415575504
1761391522003329800,4.869329833984375,0.03379690274596214,-0.05818427726626396,0.01018781028687954
1761391522013395700,4.879395751953125,0.034660518169403076,-0.0549965463578701,0.033993400633335114
1761391522023461600,4.889461669921875,0.037483204156160355,-0.04786939546465874,0.06656945496797562
1761391522033527600,4.899527587890625,0.032070208340883255,-0.026934226974844933,0.08955919742584229
1761391522043593700,4.90959375,0.01378441322594881,-0.01241227611899376,0.10686921328306198
1761391522053659600,4.91965966796875,-0.008346381597220898,-0.000401289202272892,0.1051366776227951
1761391522063726600,4.9297265625,-0.01735931634902954,0.0073141539469361305,0.0775069147348404
1761391522073792800,4.939792724609375,-0.027424946427345276,0.011253595352172852,0.04308204725384712
1761391522083858700,4.949858642578125,-0.032590948045253754,0.010957185178995132,-0.01072339154779911
1761391522093924900,4.9599248046875,-0.034180235117673874,-0.0060558379627764225,-0.06047555059194565
1761391522103990800,4.96999072265625,-0.028518622741103172,-0.013691919855773449,-0.0860632061958313
1761391522114057700,4.9800576171875,-0.022201377898454666,-0.03879227489233017,-0.07895954698324203
1761391522124124000,4.9901240234375,-0.015000189654529095,-0.08182363212108612,-0.04886636137962341
1761391522134189600,5.000189453125,-0.0018731458112597466,-0.08850913494825363,-0.010840189643204212
1761391522144255700,5.010255859375,0.007687335833907127,-0.08200809359550476,0.011492546647787094
1761391522154321700,5.02032177734375,0.004111104644834995,-0.07491011172533035,0.010026302188634872
1761391522164387600,5.0303876953125,0.004059439525008202,-0.05784670636057854,-0.0034226621501147747
1761391522174454800,5.040454833984375,-0.0004296302795410156,-0.023737551644444466,-0.008240994065999985
1761391522184520700,5.050520751953125,-0.007276617921888828,0.009168201126158237,-0.010164596140384674
1761391522194587000,5.0605869140625,-0.021775757893919945,0.03011736087501049,-0.014560174196958542
1761391522204652800,5.07065283203125,-0.03381643816828728,0.052588582038879395,-0.023465517908334732
1761391522214718500,5.080718505859375,-0.04674884304404259,0.049289390444755554,-0.03840988129377365
1761391522224786000,5.090785888671875,-0.05007699504494667,0.04974506050348282,-0.04527550935745239
1761391522234851600,5.1008515625,-0.050685565918684006,0.03902684152126312,-0.05879510939121246
1761391522244917500,5.11091748046875,-0.041838809847831726,0.019801214337348938,-0.06566393375396729
1761391522254983700,5.120983642578125,-0.03380398824810982,-0.009812322445213795,-0.06135940924286842
1761391522265049600,5.131049560546875,-0.022066105157136917,-0.03318076208233833,-0.04640043154358864
1761391522275116800,5.14111669921875,-0.011566070839762688,-0.028688199818134308,-0.011055057868361473
1761391522285182700,5.1511826171875,-0.0057060508988797665,-0.040835678577423096,0.011835344135761261
1761391522295248600,5.16124853515625,-0.006600596942007542,-0.04467257112264633,0.03261822089552879
1761391522305314800,5.171314697265625,-0.006454389542341232,-0.027419012039899826,0.039313141256570816
1761391522315380700,5.181380615234375,-0.010898314416408539,-0.019812868908047676,0.026447156444191933
1761391522325446400,5.1914462890625,-0.019434811547398567,-0.0033678486943244934,0.008370151743292809
1761391522335513300,5.201513427734375,-0.02838079258799553,0.007856405340135098,-0.009761251509189606
1761391522345579300,5.211579345703125,-0.02789689600467682,0.004341033287346363,-0.025988956913352013
1761391522355645400,5.2216455078125,-0.014095944352447987,-0.0059303902089595795,-0.041483428329229355
1761391522365711400,5.23171142578125,0.004506501369178295,-0.013439172878861427,-0.042510345578193665
1761391522375777500,5.241777587890625,0.011857505887746811,-0.01176708284765482,-0.03625352308154106
1761391522385843500,5.251843505859375,0.005815325770527124,0.001702386885881424,-0.026034440845251083
1761391522395910400,5.261910400390625,0.005348207429051399,0.014091944321990013,-0.02914474718272686
1761391522405976300,5.271976318359375,0.0036411213222891092,0.02219540998339653,-0.02902943268418312
1761391522416042200,5.282042236328125,0.002480047522112727,0.02578972466289997,-0.03767082095146179
1761391522426108400,5.2921083984375,0.010953160002827644,0.011135948821902275,-0.050865985453128815
1761391522436174300,5.30217431640625,0.02262978069484234,-0.007157853804528713,-0.0550733283162117
1761391522446241300,5.3122412109375,0.02894733101129532,-0.010979756712913513,-0.03858916088938713
1761391522456307500,5.322307373046875,0.030112583190202713,-0.00981797557324171,-0.009498641826212406
1761391522466373400,5.332373291015625,0.036086853593587875,0.008088053204119205,0.016424302011728287
1761391522476439600,5.342439453125,0.0453832782804966,0.019061733037233353,0.02743416652083397
1761391522486505500,5.35250537109375,0.03957732021808624,0.008633594028651714,0.027219515293836594
1761391522496571400,5.3625712890625,0.03253832831978798,-0.013391264714300632,0.013208441436290741
1761391522506638300,5.372638427734375,0.015251750126481056,-0.05771239101886749,0.008774811401963234
1761391522516704300,5.382704345703125,0.004427764099091291,-0.08227214217185974,0.003863296005874872
1761391522526770400,5.3927705078125,-0.003487949725240469,-0.09250453859567642,0.0031197411008179188
1761391522536836400,5.40283642578125,-0.015780888497829437,-0.07186166942119598,-0.004778086207807064
1761391522546902500,5.412902587890625,-0.018714893609285355,-0.03417874127626419,-0.008985348045825958
1761391522556969500,5.422969482421875,-0.016017626971006393,-0.005831223446875811,-0.0141586409881711
1761391522567035400,5.433035400390625,-0.022807355970144272,0.00830137263983488,-0.0011797253973782063
1761391522577101600,5.4431015625,-0.033639222383499146,0.04383222013711929,0.00893796980381012
1761391522587167500,5.45316748046875,-0.04617738351225853,0.05751527473330498,0.0013247919268906116
1761391522597233400,5.4632333984375,-0.05183961242437363,0.05438387766480446,-0.01259922981262207
1761391522607299300,5.47329931640625,-0.055557653307914734,0.044746700674295425,-0.03124934621155262
1761391522617366300,5.4833662109375,-0.051190804690122604,0.04626631736755371,-0.04318691045045853
1761391522627432400,5.493432373046875,-0.04805386811494827,0.03874741494655609,-0.06059013679623604
1761391522637498400,5.503498291015625,-0.03877614811062813,0.02564610168337822,-0.06702429801225662
1761391522647564300,5.513564208984375,-0.03546104580163956,0.020429234951734543,-0.06699366867542267
1761391522657630500,5.52363037109375,-0.02815847285091877,0.008688635192811489,-0.06371500343084335
1761391522667697400,5.533697509765625,-0.02080814726650715,0.003120231442153454,-0.05292173847556114
1761391522677763600,5.543763671875,-0.014639046974480152,-0.003660009242594242,-0.03990307077765465
1761391522687829500,5.55382958984375,-0.004348858259618282,-0.009753587655723095,-0.02097172476351261
1761391522697895200,5.563895263671875,0.004644912667572498,-0.009454313665628433,-0.005529824644327164
1761391522707961300,5.57396142578125,0.004731198772788048,-0.008478797972202301,0.004297239240258932
1761391522718027300,5.58402734375,0.002210150007158518,0.002265114337205887,0.01893598958849907
1761391522728094500,5.594094482421875,0.0014665955677628517,0.013911385089159012,0.032217707484960556
1761391522738160400,5.604160400390625,0.0018626167438924313,0.028406186029314995,0.042146049439907074
1761391522748226300,5.614226318359375,-0.0020881830714643,0.03516049683094025,0.041551366448402405
1761391522758292500,5.62429248046875,0.000015723519027233124,0.027644004672765732,0.03359578922390938
1761391522768358400,5.6343583984375,0.006152711808681488,0.019591938704252243,0.017587527632713318
1761391522778425300,5.64442529296875,0.011709939688444138,0.013562990352511406,-0.00420102383941412
1761391522788491500,5.654491455078125,0.020463217049837112,0.01562667451798916,-0.014567644335329533
1761391522798557400,5.664557373046875,0.01999446377158165,0.015432831831276417,-0.021733758971095085
1761391522808623400,5.674623291015625,0.01807938516139984,0.011776045896112919,-0.01689106598496437
1761391522818689300,5.684689208984375,0.014947506599128246,0.01836257427930832,-0.004270612262189388
1761391522828755500,5.69475537109375,0.015162157826125622,0.02745247632265091,0.010634034872055054
1761391522838822400,5.704822509765625,0.014649894088506699,0.03336721658706665,0.026104697957634926
1761391522848888300,5.714888427734375,0.016244329512119293,0.03898968547582626,0.02781764231622219
1761391522858954500,5.72495458984375,0.022471074014902115,0.037588074803352356,0.028807353228330612
1761391522869020400,5.7350205078125,0.025610145181417465,0.02426561340689659,0.01460098847746849
1761391522879086600,5.745086669921875,0.019193485379219055,0.015009467490017414,-0.0003971965052187443
1761391522889152300,5.75515234375,0.01626906916499138,0.010399003513157368,-0.010662617161870003
1761391522899218400,5.765218505859375,0.015413045883178711,0.01574019156396389,-0.00959810335189104
1761391522909285400,5.775285400390625,0.009011872112751007,0.022769073024392128,-0.0067344061098992825
1761391522919351300,5.785351318359375,-0.0017284825444221497,0.03284534439444542,-0.0030821780674159527
1761391522929417500,5.79541748046875,-0.008665750734508038,0.0352640263736248,-0.007289439905434847
1761391522939483400,5.8054833984375,-0.015427459962666035,0.035485073924064636,-0.01711120642721653
1761391522949549300,5.81554931640625,-0.019326861947774887,0.032401133328676224,-0.029913023114204407
1761391522959616500,5.825616455078125,-0.025181951001286507,0.019136600196361542,-0.04514799267053604
1761391522969682400,5.835682373046875,-0.025956930592656136,-0.0019604284316301346,-0.05827364698052406
1761391522979748600,5.84574853515625,-0.022146910429000854,-0.004484495148062706,-0.06243632361292839
1761391522989814500,5.855814453125,-0.0229642353951931,0.01465644221752882,-0.0529986135661602
1761391522999880200,5.865880126953125,-0.03134078532457352,0.022080976516008377,-0.03691091760993004
1761391523009947400,5.875947509765625,-0.03358529508113861,0.03438477963209152,-0.015266608446836472
1761391523020013300,5.886013427734375,-0.03349139913916588,0.03461744636297226,0.009255848824977875
1761391523030079500,5.89607958984375,-0.029990140348672867,0.028071127831935883,0.032172881066799164
1761391523040145400,5.9061455078125,-0.025823622941970825,0.017732471227645874,0.045597609132528305
1761391523050211300,5.91621142578125,-0.024136511608958244,0.008023918606340885,0.037405192852020264
1761391523060277500,5.926277587890625,-0.01978554017841816,0.0056893108412623405,0.021386699751019478
1761391523070344400,5.936344482421875,-0.02249397523701191,0.011303787119686604,0.00534781301394105
1761391523080410400,5.946410400390625,-0.026796963065862656,0.02765033021569252,-0.01094859465956688
1761391523090476500,5.9564765625,-0.03198932856321335,0.03878607228398323,-0.026562441140413284
1761391523100542200,5.966542236328125,-0.031972531229257584,0.04691833257675171,-0.0410032719373703
1761391523110608400,5.9766083984375,-0.025617163628339767,0.040049243718385696,-0.06152132898569107
1761391523120674300,5.98667431640625,-0.017255546525120735,0.028341345489025116,-0.07360993325710297
1761391523130741200,5.9967412109375,-0.011641070246696472,0.028333887457847595,-0.07696712017059326
1761391523140807400,6.006807373046875,-0.006301515270024538,0.03470110148191452,-0.07016321271657944
1761391523150873300,6.016873291015625,-0.0056730094365775585,0.04035818576812744,-0.050625190138816833
1761391523160939500,6.026939453125,-0.00682955514639616,0.041862182319164276,-0.03133001923561096
1761391523171005400,6.03700537109375,-0.0032047266140580177,0.03587113693356514,-0.021237170323729515
1761391523181072400,6.047072265625,0.0006470209918916225,0.02728566899895668,-0.01567925699055195
1761391523191138600,6.057138671875,0.0022084321826696396,0.022698108106851578,-0.022285759449005127
1761391523201204200,6.067204345703125,0.007471959572285414,0.007255501113831997,-0.0257369764149189
1761391523211270400,6.0772705078125,0.011840342544019222,-0.006409444380551577,-0.02730904147028923
1761391523221336300,6.08733642578125,0.016950609162449837,-0.019818756729364395,-0.022373806685209274
1761391523231403300,6.0974033203125,0.01961909607052803,-0.02868948131799698,-0.005324516445398331
1761391523241469400,6.107469482421875,0.01874140091240406,-0.024329572916030884,0.016957303509116173
1761391523251536400,6.117536376953125,0.016260933130979538,-0.02322835475206375,0.03843862563371658
1761391523261602300,6.127602294921875,0.01640186831355095,-0.008898323401808739,0.05973002687096596
1761391523271668500,6.13766845703125,0.016001328825950623,-0.005213307216763496,0.06964976340532303
1761391523281734400,6.147734375,0.025927739217877388,-0.011871994473040104,0.07208611071109772
1761391523291800600,6.157800537109375,0.034209370613098145,-0.011374515481293201,0.06567268818616867
1761391523301867500,6.167867431640625,0.034416694194078445,0.007296498864889145,0.06190519779920578
1761391523311933400,6.177933349609375,0.029914086684584618,0.014157867059111595,0.05757889896631241
1761391523321999400,6.187999267578125,0.024605948477983475,0.013907562009990215,0.04887688532471657
1761391523332065300,6.198065185546875,0.02451353520154953,0.018097512423992157,0.029376687481999397
1761391523342131500,6.20813134765625,0.027997905388474464,0.013196136802434921,0.00395262660458684
1761391523352198400,6.218198486328125,0.03162326663732529,0.006347019225358963,-0.022208936512470245
1761391523362264300,6.228264404296875,0.050434526056051254,-0.011774959973990917,-0.05843868479132652
1761391523372330500,6.23833056640625,0.05791907384991646,-0.029190169647336006,-0.0789538100361824
1761391523382396200,6.248396240234375,0.06879975646734238,-0.03506311774253845,-0.08322300761938095
1761391523392462300,6.25846240234375,0.07922177016735077,-0.016868403181433678,-0.055795639753341675
1761391523402528300,6.2685283203125,0.08778805285692215,0.0002620397135615349,-0.02442241460084915
1761391523412595200,6.27859521484375,0.08266093581914902,0.0033803358674049377,0.007164007518440485
1761391523422661400,6.288661376953125,0.07473735511302948,0.014145391061902046,0.02696578949689865
1761391523432727300,6.298727294921875,0.06565465033054352,0.01453154906630516,0.025887474417686462
1761391523442793500,6.30879345703125,0.05418644845485687,0.002776830457150936,0.003211954142898321
1761391523452859400,6.318859375,0.05645626038312912,-0.016863184049725533,-0.02530943602323532
1761391523462926300,6.32892626953125,0.06084965914487839,-0.02662307396531105,-0.04728735610842705
1761391523472992500,6.338992431640625,0.057163581252098083,-0.029665734618902206,-0.06266337633132935
1761391523483058200,6.34905810546875,0.04805050045251846,-0.027990087866783142,-0.06367360055446625
1761391523493124400,6.359124267578125,0.04145997017621994,-0.017341438680887222,-0.05988099053502083
1761391523503190300,6.369190185546875,0.03364722430706024,-0.008743596263229847,-0.05392546206712723
1761391523513256200,6.379256103515625,0.028230085968971252,-0.0023144586011767387,-0.048129621893167496
1761391523523323400,6.389323486328125,0.027341289445757866,0.004356684163212776,-0.03929710015654564
1761391523533389300,6.399389404296875,0.03235442563891411,0.0059018488973379135,-0.02696533128619194
1761391523543455500,6.40945556640625,0.0278313010931015,0.005805426277220249,-0.005061446689069271
1761391523553521400,6.419521484375,0.023164112120866776,-0.00027909688651561737,0.00995851680636406
1761391523563587300,6.42958740234375,0.026914402842521667,-0.0072583965957164764,0.01730189472436905
1761391523573654500,6.439654541015625,0.030199680477380753,-0.011994562111794949,0.01633623242378235
1761391523583720200,6.44972021484375,0.036591991782188416,-0.019679147750139236,0.011882493272423744
1761391523593786000,6.4597861328125,0.036774683743715286,-0.011658239178359509,0.006733270827680826
1761391523603852300,6.469852294921875,0.035611726343631744,0.005493304692208767,0.0001791217364370823
1761391523613918200,6.479918212890625,0.02734580636024475,0.01835504174232483,-0.006264928728342056
1761391523623984400,6.489984375,0.028816193342208862,0.03287069499492645,-0.017802584916353226
1761391523634051300,6.50005126953125,0.03200559690594673,0.03892432525753975,-0.0293138325214386
1761391523644117200,6.5101171875,0.038005486130714417,0.02616165578365326,-0.05140291526913643
1761391523654183400,6.520183349609375,0.054004695266485214,0.012232525274157524,-0.06068402901291847
1761391523664249300,6.530249267578125,0.060662560164928436,0.005223915912210941,-0.05076755955815315
1761391523674315300,6.540315185546875,0.06255846470594406,0.0020113447681069374,-0.039470430463552475
1761391523684382500,6.550382568359375,0.05782254412770271,-0.0085502490401268,-0.020695576444268227
1761391523694448000,6.5604482421875,0.050610173493623734,-0.007346233353018761,0.0016086637042462826
1761391523704514300,6.570514404296875,0.04104876518249512,-0.007080576382577419,0.02412000671029091
1761391523714580200,6.580580322265625,0.02915295585989952,-0.006821184419095516,0.03695005178451538
1761391523724646400,6.590646484375,0.019450709223747253,-0.01426912285387516,0.030956141650676727
1761391523734713300,6.60071337890625,0.017534833401441574,-0.0183072742074728,0.01905074529349804
1761391523744779300,6.610779296875,0.028125040233135223,-0.01658751256763935,0.009570147842168808
1761391523754845400,6.620845458984375,0.0417092889547348,-0.01671188324689865,0.007560525555163622
1761391523764911400,6.630911376953125,0.053942274302244186,-0.005757736042141914,0.01805114559829235
1761391523774977300,6.640977294921875,0.05581074580550194,0.006708255037665367,0.028721898794174194
1761391523785043200,6.651043212890625,0.05395667254924774,0.013601877726614475,0.03363799303770065
1761391523795110100,6.661110107421875,0.05300059914588928,0.018088240176439285,0.024867134168744087
1761391523805176300,6.67117626953125,0.046621136367321014,0.013367394916713238,0.013408258557319641
1761391523815242200,6.6812421875,0.04754471778869629,0.0034636305645108223,-0.002068168018013239
1761391523825308400,6.691308349609375,0.053766872733831406,-0.00569427665323019,-0.018994906917214394
1761391523835374300,6.701374267578125,0.06293560564517975,-0.00615793326869607,-0.030497366562485695
1761391523845441300,6.711441162109375,0.0659279078245163,-0.010437039658427238,-0.03749233856797218
1761391523855507500,6.721507568359375,0.07020414620637894,-0.014904758892953396,-0.03433622792363167
1761391523865573400,6.731573486328125,0.07341796904802322,-0.019763566553592682,-0.02949373610317707
1761391523875639600,6.7416396484375,0.06715741008520126,-0.02908835932612419,-0.012018606066703796
1761391523885705200,6.751705322265625,0.057572416961193085,-0.029465477913618088,0.0030638580210506916
1761391523895771400,6.761771484375,0.04426220431923866,-0.032461002469062805,0.011263465508818626
1761391523905838300,6.77183837890625,0.04521936550736427,-0.038270920515060425,0.01494251936674118
1761391523915904300,6.781904296875,0.051176056265830994,-0.02410290576517582,0.02505427412688732
1761391523925970400,6.791970458984375,0.04633931815624237,-0.006562643684446812,0.041487328708171844
1761391523936036400,6.802036376953125,0.038176994770765305,-0.00765267526730895,0.046800337731838226
1761391523946102300,6.812102294921875,0.025873014703392982,-0.02224779687821865,0.03592668101191521
1761391523956169500,6.82216943359375,0.02663494646549225,0.0009861532598733902,0.019076593220233917
1761391523966235400,6.8322353515625,0.026288073509931564,-0.001354624517261982,0.0022810096852481365
1761391523976301300,6.84230126953125,0.027675846591591835,-0.003280622884631157,-0.011274213902652264
1761391523986367200,6.8523671875,0.027640877291560173,0.00486984197050333,-0.03344230353832245
1761391523996433200,6.86243310546875,0.03062255308032036,0.00655162800103426,-0.05828773230314255
1761391524006499300,6.872499267578125,0.036690305918455124,0.0159220602363348,-0.07211852073669434
1761391524016566300,6.882566162109375,0.03972071781754494,0.01062050648033619,-0.07006202638149261
1761391524026632200,6.892632080078125,0.041763823479413986,0.006044013425707817,-0.062265217304229736
1761391524036698400,6.902698486328125,0.036099810153245926,-0.0049031758680939674,-0.05116010084748268
1761391524046764300,6.912764404296875,0.03650902956724167,-0.01637616939842701,-0.03846767172217369
1761391524056830500,6.92283056640625,0.020526332780718803,-0.02558298408985138,-0.0325530543923378
1761391524066897400,6.9328974609375,0.0058325352147221565,-0.031345121562480927,-0.023083774372935295
1761391524076963300,6.94296337890625,-0.008447600528597832,-0.023088790476322174,-0.012836730107665062
1761391524087029200,6.953029296875,-0.008268645033240318,-0.002918822690844536,0.0009421180002391338
1761391524097095200,6.96309521484375,-0.007635079324245453,0.011913652531802654,0.0014161602593958378
1761391524107161300,6.973161376953125,-0.003960687667131424,0.02323693037033081,0.006620487663894892
1761391524117227300,6.983227294921875,-0.004580139182507992,0.039028674364089966,0.008359264582395554
1761391524127294200,6.993294189453125,-0.002866927534341812,0.038780469447374344,-0.012484762817621231
1761391524137360400,7.0033603515625,-0.007570869289338589,0.03229247406125069,-0.03986658528447151
1761391524147426300,7.01342626953125,-0.003917453810572624,0.029935460537672043,-0.07837267965078354
1761391524157492500,7.023492431640625,0.0008418811485171318,0.025856297463178635,-0.1264725625514984
1761391524167558400,7.033558349609375,0.007574922405183315,0.01288694515824318,-0.16203127801418304
1761391524177625300,7.043625244140625,0.00853579118847847,-0.02051468752324581,-0.18133333325386047
1761391524187691300,7.053691162109375,-0.003929703962057829,-0.0649927407503128,-0.1807725429534912
1761391524197757200,7.063757080078125,-0.016333909705281258,-0.05695132166147232,-0.1388104408979416
1761391524207823400,7.0738232421875,-0.030323458835482597,-0.04068067669868469,-0.08751896768808365
1761391524217889300,7.08388916015625,-0.03521887958049774,-0.051051557064056396,-0.05444144085049629
1761391524227955500,7.09395556640625,-0.03101315163075924,-0.03973861038684845,-0.05175880342721939
1761391524238022400,7.1040224609375,-0.030570002272725105,-0.04034048318862915,-0.05290103331208229
1761391524248088300,7.11408837890625,-0.03827765956521034,-0.06366309523582458,-0.05378434807062149
1761391524258154500,7.124154541015625,-0.04134242609143257,-0.08140800148248672,-0.05951467156410217
1761391524268220400,7.134220458984375,-0.047473128885030746,-0.08793550729751587,-0.04570797458291054
1761391524278286300,7.144286376953125,-0.048797786235809326,-0.058054305613040924,-0.011776905506849289
1761391524288352300,7.154352294921875,-0.04743197187781334,-0.019282091408967972,0.03339804336428642
1761391524298419200,7.164419189453125,-0.053364694118499756,-0.010821228846907616,0.05172378569841385
1761391524308485400,7.1744853515625,-0.054629549384117126,-0.010297127068042755,0.044151853770017624
1761391524318551300,7.18455126953125,-0.049992457032203674,-0.015257265418767929,0.02535020001232624
1761391524328617000,7.194616943359375,-0.043397143483161926,-0.01739499904215336,0.013329941779375076
1761391524338683000,7.204682861328125,-0.04833677411079407,-0.02361108362674713,0.015307871624827385
1761391524348749800,7.214749755859375,-0.05935051292181015,-0.03655266761779785,0.01710042543709278
1761391524358816000,7.22481591796875,-0.06910913437604904,-0.048559267073869705,0.020616862922906876
1761391524368882000,7.2348818359375,-0.06390765309333801,-0.053074102848768234,0.012764319777488708
1761391524378948000,7.244947998046875,-0.06484109163284302,-0.06914574652910233,0.00009992346167564392
1761391524389014000,7.255013916015625,-0.0561562106013298,-0.08509427309036255,-0.028352083638310432
1761391524399081000,7.2650810546875,-0.056877925992012024,-0.09404728561639786,-0.05522311478853226
1761391524409147000,7.27514697265625,-0.05396180599927902,-0.08624136447906494,-0.05530919134616852
1761391524419212800,7.285212890625,-0.05450429022312164,-0.0664394274353981,-0.02595982514321804
1761391524429279000,7.295279052734375,-0.05785200744867325,-0.04880276694893837,0.0018083290196955204
1761391524439345000,7.305344970703125,-0.05996842682361603,-0.027283363044261932,0.020974300801753998
1761391524449410800,7.315410888671875,-0.0622405931353569,-0.000973651185631752,0.02367968112230301
1761391524459478000,7.32547802734375,-0.06813976168632507,0.016584835946559906,0.009601946920156479
1761391524469544000,7.3355439453125,-0.07250889390707016,0.018223997205495834,-0.019438335672020912
1761391524479609900,7.34560986328125,-0.07462184876203537,0.007795589976012707,-0.05365729331970215
1761391524489676000,7.355676025390625,-0.08287062495946884,0.0035008657723665237,-0.08629964292049408
1761391524499741700,7.36574169921875,-0.0907735601067543,-0.016636092215776443,-0.11865891516208649
1761391524509809000,7.375808837890625,-0.09693881124258041,-0.034134455025196075,-0.1335473656654358
1761391524519874800,7.385874755859375,-0.10624363273382187,-0.012993481941521168,-0.11709357053041458
1761391524529940700,7.395940673828125,-0.10056041181087494,0.03325103968381882,-0.0592014454305172
1761391524540007000,7.4060068359375,-0.09603650122880936,0.06731952726840973,-0.0071877785958349705
1761391524550072800,7.41607275390625,-0.052109912037849426,0.060722485184669495,0.05545473471283913
1761391524560139000,7.426138916015625,-0.017509594559669495,0.08085358142852783,0.07365984469652176
1761391524570206000,7.4362060546875,0.018311593681573868,0.049316730350255966,0.06538580358028412
1761391524580271900,7.44627197265625,0.026945296674966812,0.03519239276647568,0.05747860670089722
1761391524590338000,7.456338134765625,0.016326630488038063,0.040001433342695236,0.04552748054265976
1761391524600403700,7.46640380859375,0.0015157265588641167,0.05132759362459183,0.02770853415131569
1761391524610470000,7.476469970703125,-0.007746289484202862,0.0656023621559143,0.004439829383045435
1761391524620535800,7.486535888671875,-0.012563682161271572,0.05798172950744629,-0.01649288274347782
1761391524630602800,7.496602783203125,-0.015988055616617203,0.05818639323115349,-0.04472818598151207
1761391524640669000,7.5066689453125,-0.01897266134619713,0.08083391189575195,-0.06168586388230324
1761391524650734800,7.51673486328125,-0.01641014963388443,0.08639515191316605,-0.08032862842082977
1761391524660801000,7.526801025390625,-0.013731807470321655,0.08248483389616013,-0.09759443253278732
1761391524670867000,7.536866943359375,-0.010146192274987698,0.08399739861488342,-0.10685854405164719
1761391524680934000,7.546933837890625,0.005186425056308508,0.08543923497200012,-0.1111837849020958
1761391524691000000,7.557,0.013336965814232826,0.08829599618911743,-0.11863455921411514
1761391524701066000,7.56706591796875,0.031143661588430405,0.08345569670200348,-0.12676040828227997
1761391524711132000,7.5771318359375,0.0501285195350647,0.06272641569375992,-0.13919726014137268
1761391524721197800,7.58719775390625,0.06263311952352524,0.05860677734017372,-0.1330443024635315
1761391524731264800,7.5972646484375,0.07171627879142761,0.06925322860479355,-0.09767355024814606
1761391524741331000,7.6073310546875,0.05845985934138298,0.07371455430984497,-0.053925804793834686
1761391524751396900,7.61739697265625,0.037084758281707764,0.07077250629663467,-0.017245881259441376
1761391524761463000,7.627463134765625,0.020498856902122498,0.06509198248386383,-0.00833707395941019
1761391524771529000,7.637529052734375,0.012896772474050522,0.056360747665166855,-0.01886005513370037
1761391524781595000,7.647594970703125,0.007174704223871231,0.04759974405169487,-0.03599563241004944
1761391524791662000,7.657662109375,0.004148232750594616,0.05887041613459587,-0.033883433789014816
1761391524801728000,7.66772802734375,0.0046220095828175545,0.09368458390235901,-0.0006210864521563053
1761391524811794000,7.6777939453125,0.0027219820767641068,0.1317458301782608,0.05511265993118286
1761391524821859800,7.68785986328125,-0.003775065764784813,0.14680173993110657,0.09414581209421158
1761391524831925800,7.69792578125,-0.009758591651916504,0.1561679095029831,0.11104173958301544
1761391524841993000,7.707992919921875,-0.010245684534311295,0.1591099053621292,0.10980843007564545
1761391524852059000,7.718058837890625,-0.0038147559389472008,0.16098812222480774,0.1094897985458374
1761391524862124800,7.728124755859375,-0.00003413250669836998,0.18598242104053497,0.12209054827690125
1761391524872191000,7.73819091796875,-0.0017144125886261463,0.15863780677318573,0.17557130753993988
1761391524882257000,7.7482568359375,-0.019623372703790665,0.0828104317188263,0.26566046476364136
1761391524892323000,7.758322998046875,-0.057292066514492035,-0.03712092339992523,0.3646778464317322
1761391524902390000,7.76839013671875,-0.09397551417350769,-0.14491689205169678,0.42724961042404175
1761391524912455700,7.77845556640625,-0.12825533747673035,-0.22731739282608032,0.4239552319049835
1761391524922521900,7.78852197265625,-0.1539929360151291,-0.25646305084228516,0.360898494720459
1761391524932587800,7.798587890625,-0.1800730973482132,-0.2060856819152832,0.25697314739227295
1761391524942654000,7.808654052734375,-0.20151500403881073,-0.03506706282496452,0.15566329658031464
1761391524952720000,7.818719970703125,-0.19466879963874817,0.12698978185653687,0.062022801488637924
1761391524962786800,7.828786865234375,-0.161658376455307,0.2253672182559967,-0.03976854309439659
1761391524972853000,7.83885302734375,-0.11846798658370972,0.22963784635066986,-0.1355690211057663
1761391524982919000,7.8489189453125,-0.07871685177087784,0.20439374446868896,-0.21885858476161957
1761391524992985000,7.858985107421875,-0.03475598618388176,0.16641397774219513,-0.2900903820991516
1761391525003050800,7.86905078125,0.012371845543384552,0.13881804049015045,-0.34047552943229675
1761391525013117700,7.87911767578125,0.06040103733539581,0.09788620471954346,-0.37922826409339905
1761391525023184000,7.889183837890625,0.08426588773727417,0.012044803239405155,-0.3765176832675934
1761391525033249800,7.899249755859375,0.07899325340986252,-0.058801501989364624,-0.3314324617385864
1761391525043316000,7.90931591796875,0.05837612226605415,-0.10701803117990494,-0.25932708382606506
1761391525053382000,7.9193818359375,0.03468817099928856,-0.11529219150543213,-0.18266315758228302
1761391525063448800,7.92944873046875,0.0025070649571716785,-0.0889066532254219,-0.11686709523200989
1761391525073515000,7.939514892578125,-0.034032296389341354,-0.03258184716105461,-0.07966078817844391
1761391525083581000,7.949580810546875,-0.07154823839664459,0.029678329825401306,-0.08694693446159363
1761391525093647000,7.959647216796875,-0.09986846894025803,0.10024392604827881,-0.14993484318256378
1761391525103712800,7.969712646484375,-0.13295504450798035,0.1089700385928154,-0.2184787541627884
1761391525113779000,7.979779052734375,-0.16743572056293488,0.07704578340053558,-0.2577114999294281
1761391525123846000,7.989845947265625,-0.19285373389720917,0.04357624053955078,-0.25489041209220886
1761391525133911800,7.999911865234375,-0.2009166032075882,0.027088172733783722,-0.22058871388435364
1761391525143978000,8.00997802734375,-0.1990814208984375,0.02285933867096901,-0.16537633538246155
1761391525154044000,8.0200439453125,-0.19584721326828003,0.015713276341557503,-0.10678494721651077
1761391525164109800,8.03010986328125,-0.18489231169223785,0.009182939305901527,-0.04920234531164169
1761391525174177000,8.040177001953126,-0.1722666323184967,0.0036563389003276825,-0.026023998856544495
1761391525184243000,8.050242919921875,-0.14659641683101654,0.017992669716477394,-0.01273109670728445
1761391525194309000,8.06030908203125,-0.11566442251205444,0.03814362734556198,-0.010676590725779533
1761391525204374800,8.070374755859374,-0.08851376175880432,0.04804126173257828,-0.014521662145853043
1761391525214440700,8.080440673828125,-0.07471529394388199,0.051674675196409225,-0.02591329999268055
1761391525224507000,8.0905068359375,-0.0782085582613945,0.055353302508592606,-0.04753391072154045
1761391525234573800,8.10057373046875,-0.0874033123254776,0.058425307273864746,-0.08444776386022568
1761391525244640000,8.110639892578124,-0.10175695270299911,0.06495537608861923,-0.12468360364437103
1761391525254706000,8.120705810546875,-0.12420433759689331,0.08887148648500443,-0.15603584051132202
1761391525264771800,8.130771728515626,-0.16439436376094818,0.12169227749109268,-0.19299758970737457
1761391525274838000,8.140838134765625,-0.2057807594537735,0.17030349373817444,-0.2193424254655838
1761391525284905000,8.150905029296876,-0.24720756709575653,0.20244784653186798,-0.23880401253700256
1761391525294971000,8.160970947265625,-0.2933937609195709,0.19450944662094116,-0.2455880045890808
1761391525305037000,8.171037109375,-0.32929903268814087,0.18456387519836426,-0.20746459066867828
1761391525315102700,8.181102783203125,-0.35664379596710205,0.19726155698299408,-0.16055020689964294
1761391525325169400,8.19116943359375,-0.3714589476585388,0.21579554677009583,-0.096675343811512
1761391525335235300,8.2012353515625,-0.3744297921657562,0.2472655326128006,-0.010297263972461224
1761391525345302300,8.21130224609375,-0.3513298034667969,0.2457270473241806,0.08928578346967697
1761391525355368400,8.221368408203125,-0.3638854920864105,0.2227144092321396,0.1701095849275589
1761391525365434400,8.231434326171875,-0.3847433626651764,0.20580041408538818,0.24586398899555206
1761391525375500500,8.24150048828125,-0.39110520482063293,0.1611090451478958,0.3019440174102783
1761391525385566500,8.25156640625,-0.3915494382381439,0.0918804332613945,0.3000774085521698
1761391525395633400,8.26163330078125,-0.39007675647735596,0.055107682943344116,0.266803115606308
1761391525405699600,8.271699462890625,-0.37782806158065796,-0.004268828779459,0.21120136976242065
1761391525415765500,8.281765625,-0.36503103375434875,-0.048912413418293,0.15944574773311615
1761391525425831400,8.29183154296875,-0.3578506112098694,-0.028863869607448578,0.11703676730394363
1761391525435897300,8.3018974609375,-0.3688270151615143,0.046400636434555054,0.0901535302400589
1761391525445963300,8.31196337890625,-0.3842645585536957,0.0944424644112587,0.08422719687223434
1761391525456030500,8.322030517578124,-0.3886275887489319,0.09324831515550613,0.0783054456114769
1761391525466096400,8.332096435546875,-0.37985751032829285,0.11885540187358856,0.0784202292561531
1761391525476162600,8.34216259765625,-0.3638676106929779,0.15025728940963745,0.09081732481718063
1761391525486228500,8.352228515625,-0.35749760270118713,0.15793518722057343,0.11315138638019562
1761391525496294400,8.36229443359375,-0.3488927185535431,0.16443189978599548,0.15613847970962524
1761391525506361600,8.372361572265625,-0.3445639908313751,0.08707239478826523,0.18499569594860077
1761391525516427500,8.382427490234376,-0.32639801502227783,-0.10474221408367157,0.17054080963134766
1761391525526493200,8.3924931640625,-0.28955769538879395,-0.2514166235923767,0.14825335144996643
1761391525536559400,8.402559326171875,-0.2719516456127167,-0.260591596364975,0.13921919465065002
1761391525546625300,8.412625244140624,-0.26208731532096863,-0.29928040504455566,0.08605025708675385
1761391525556691500,8.42269140625,-0.24907349050045013,-0.3054375946521759,0.04734855890274048
1761391525566758400,8.43275830078125,-0.2612084746360779,-0.22859875857830048,0.032269738614559174
1761391525576824300,8.44282421875,-0.31736961007118225,-0.1604427546262741,0.02819404937326908
1761391525586890500,8.452890380859374,-0.4173305630683899,-0.11505398154258728,0.030563728883862495
1761391525596956400,8.462956298828125,-0.5200900435447693,-0.0666235089302063,0.025169936940073967
1761391525607022600,8.473022705078124,-0.6110907793045044,-0.12393712997436523,-0.01583901420235634
1761391525617088300,8.483088134765625,-0.6669808626174927,-0.17960473895072937,-0.09846802055835724
1761391525627155200,8.4931552734375,-0.6869511008262634,-0.1878213882446289,-0.18642929196357727
1761391525637221400,8.503221435546875,-0.6686221957206726,-0.150429829955101,-0.2725227177143097
1761391525647287300,8.513287353515626,-0.6210342049598694,-0.1349605917930603,-0.315233439207077
1761391525657353500,8.523353515625,-0.5308835506439209,-0.08153600990772247,-0.2930145859718323
1761391525667419400,8.53341943359375,-0.42943254113197327,0.009353682398796082,-0.21210135519504547
1761391525677486300,8.543486328125,-0.3289324641227722,0.048477254807949066,-0.1255369633436203
1761391525687552500,8.553552490234376,-0.23072627186775208,0.03460191935300827,-0.0531943254172802
1761391525697618400,8.563618408203125,-0.13577410578727722,0.028407219797372818,-0.024724220857024193
1761391525707684600,8.5736845703125,-0.1109294667840004,0.017571885138750076,-0.05286557972431183
1761391525717750300,8.583750244140624,-0.11748833954334259,-0.0003579268231987953,-0.11293278634548187
1761391525727817200,8.593817138671875,-0.12858493626117706,-0.06346925348043442,-0.1884927898645401
1761391525737883400,8.60388330078125,-0.1360105574131012,-0.07211773097515106,-0.23675839602947235
1761391525747949300,8.61394921875,-0.13801564276218414,-0.048001207411289215,-0.2555656135082245
1761391525758015500,8.624015380859374,-0.13601373136043549,-0.0481080636382103,-0.253589391708374
1761391525768081400,8.634081298828125,-0.12584364414215088,-0.0429665669798851,-0.23081190884113312
1761391525778147600,8.644147705078124,-0.11449574679136276,-0.035345472395420074,-0.19034554064273834
1761391525788214500,8.654214599609375,-0.09953011572360992,-0.04151388630270958,-0.13353872299194336
1761391525798280400,8.664280517578124,-0.08994831889867783,-0.04154689237475395,-0.07526256144046783
1761391525808346600,8.6743466796875,-0.08201423287391663,-0.042772211134433746,-0.02546756900846958
1761391525818412300,8.684412353515626,-0.06324077397584915,-0.05065803602337837,0.00929206795990467
1761391525828478500,8.694478515625,-0.04650120809674263,-0.06807377934455872,0.016434133052825928
1761391525838545400,8.70454541015625,-0.033912643790245056,-0.09187354892492294,0.007219103630632162
1761391525848611300,8.714611328125,-0.02714022621512413,-0.1237127035856247,-0.01293969340622425
1761391525858677500,8.724677490234376,-0.024808574467897415,-0.12788985669612885,-0.0220972690731287
1761391525868743400,8.734743408203125,-0.01665131188929081,-0.12605680525302887,-0.016400501132011414
1761391525878809300,8.744809326171875,-0.004154979716986418,-0.1452377289533615,-0.02713826298713684
1761391525888875500,8.75487548828125,0.022846544161438942,-0.11271120607852936,-0.014864819124341011
1761391525898942500,8.7649423828125,0.05865723639726639,-0.02732660248875618,0.01821957342326641
1761391525909008400,8.77500830078125,0.08642175793647766,0.033606525510549545,0.039855893701314926
1761391525919074300,8.78507421875,0.08802343904972076,0.04455249756574631,0.05583036318421364
1761391525929140200,8.79514013671875,0.09031455963850021,0.010819297283887863,0.06974112242460251
1761391525939206400,8.805206298828125,0.096816286444664,-0.0015418734401464462,0.10420054942369461
1761391525949273300,8.8152734375,0.10634108632802963,0.011316133663058281,0.12470129132270813
1761391525959339300,8.82533935546875,0.11610139161348343,0.02777612954378128,0.0874146819114685
1761391525969405400,8.835405517578126,0.10950980335474014,0.07272203266620636,0.023199476301670074
1761391525979471400,8.845471435546875,0.10510901361703873,0.08899027854204178,-0.04937881976366043
1761391525989537500,8.85553759765625,0.12189332395792007,0.094727523624897,-0.13930737972259521
1761391525999603500,8.865603515625,0.14858053624629974,0.12778639793395996,-0.20387543737888336
1761391526009670400,8.87567041015625,0.17725133895874023,0.23692461848258972,-0.23711274564266205
1761391526019736300,8.885736328125,0.16859591007232666,0.3170515298843384,-0.25297150015830994
1761391526029802200,8.89580224609375,0.14720061421394348,0.3309287428855896,-0.24635514616966248
1761391526039868400,8.905868408203125,0.08465740829706192,0.28012603521347046,-0.05237124115228653
1761391526049934300,8.915934326171875,0.06705790758132935,0.21466286480426788,-0.015379134565591812
1761391526060001300,8.926001220703125,0.09286995977163315,0.1942690759897232,-0.010071119293570518
1761391526070067500,8.9360673828125,0.12445185333490372,0.12762878835201263,-0.01898844726383686
1761391526080133400,8.94613330078125,0.15448276698589325,0.05419086664915085,-0.020170563831925392
1761391526090199600,8.956199462890625,0.16283975541591644,-0.021899376064538956,-0.02231574058532715
1761391526100265500,8.966265380859374,0.17656399309635162,-0.11442647129297256,-0.03190517798066139
1761391526110331400,8.976331298828125,0.19550944864749908,-0.19684945046901703,-0.026825200766324997
1761391526120398600,8.986398681640624,0.18478895723819733,-0.21698850393295288,0.01603531651198864
1761391526130464300,8.99646435546875,0.1535138636827469,-0.17747385799884796,0.09662523120641708
