time,seconds_elapsed,z,y,x
1761340585307262700,0.0902626953125,0.5039876327693462,-0.30294666257388886,0.2715265834429301
1761340585317330700,0.10033056640625,0.566068533629179,-0.18598511108923702,0.37438042512536046
1761340585327397600,0.110397705078125,0.5475502956420183,-0.019401523627713323,0.4090285811910406
1761340585337465600,0.120465576171875,0.24903496657907961,0.11577186677604913,0.5482576036611572
1761340585347532800,0.13053271484375,-0.12903612975776194,-0.03578209199905395,0.5677505684319883
1761340585357600800,0.140600830078125,-0.611410481134057,-0.28219741413164884,0.48632484256774183
1761340585367667700,0.150667724609375,-1.1788432888537645,-0.45035135618243366,0.3140725983526558
1761340585377735700,0.160735595703125,-1.7595388982504605,-0.48488220601137727,0.21454580046739427
1761340585387802600,0.170802734375,-1.9334949507087469,-0.3200696468103677,0.1284346384669654
1761340585397870600,0.18087060546875,-1.580663509568572,-0.15794194277916102,-0.028265122231375426
1761340585407937500,0.1909375,-1.0583896940022706,-0.16546883115265518,-0.13949481553314252
1761340585418005800,0.201005859375,-0.6269885740160942,-0.03729487118218094,-0.0089405362973921
1761340585428072700,0.21107275390625,-0.6109510469287633,0.34136911301389333,0.17553298291880637
1761340585438140700,0.221140625,-0.6794236946523189,0.4389535811923444,0.17279506412120535
1761340585448207600,0.23120751953125,-0.5649193635940551,0.1245496776592452,-0.02235427476937184
1761340585458275600,0.241275634765625,-0.22383038269579408,-0.5081514013852924,-0.06028313072286546
1761340585468342500,0.251342529296875,0.1909036801278591,-0.8543845402389765,0.01266392246838659
1761340585478410800,0.26141064453125,0.2984580459177494,-0.45995921554844826,0.149781907601282
1761340585488477700,0.271477783203125,-0.2830383584678173,0.07667747189123184,0.300210515608266
1761340585498545700,0.281545654296875,-1.2416419825941323,0.5194299704425036,0.1288951229850296
1761340585508612600,0.291612548828125,-1.4746055198162793,0.7261915102418511,-0.17657410773588345
1761340585518681300,0.301681396484375,-1.2630296385377644,0.7384398011140525,-0.5614248725418001
1761340585528748300,0.311748291015625,-0.9295306743770837,0.5819511624157429,-0.7470632525525986
1761340585538816500,0.32181640625,-0.35149405505657194,0.023595322055742142,-0.7562419267211109
1761340585548883500,0.331883544921875,-0.05345628037750721,-0.44302806408964096,-0.6426527377463876
1761340585558951400,0.341951416015625,0.06563304038345813,-0.5711131036676466,-0.6239775556318462
1761340585569019400,0.352019287109375,0.5649596956044435,-0.6705979986399412,-0.38379309071283785
1761340585579086300,0.36208642578125,1.1361644230782986,-0.6124480074882507,-0.02039144798051566
1761340585589154600,0.372154541015625,1.6504355494529008,-0.3472847667984664,0.303682831361331
1761340585599221500,0.382221435546875,1.9883914930224418,-0.011789514254033564,0.6231088099732994
1761340585609289500,0.39228955078125,2.0363561902463436,0.13353548700362444,1.000234442153573
1761340585619356400,0.4023564453125,1.9590268668502568,0.05288213375136256,1.4489309803336858
1761340585629424400,0.41242431640625,1.2049801851511002,-0.1664182042993605,1.8585156975701451
1761340585639491300,0.4224912109375,0.8058294759064912,-0.10533259808719157,1.552364612931758
1761340585649559600,0.4325595703125,0.8433826692312956,0.015189824216812848,0.951740095032379
1761340585659626500,0.44262646484375,1.1059177533745765,-0.10098872366398573,0.42217188467420635
1761340585669694500,0.452694580078125,1.190873333865404,-0.31509543859437106,0.014539982005953788
1761340585679761400,0.462761474609375,0.4273778558194637,-0.6688204675734043,-0.13709120672382413
1761340585689829400,0.472829345703125,0.08797171344161032,-0.779231099577248,-0.321801585169509
1761340585699896300,0.482896240234375,0.47094168773591516,-0.5558943456172942,-0.5470697455834597
1761340585709964300,0.49296435546875,0.98936701118052,-0.33302652434334157,-0.6902491861797869
1761340585720031500,0.503031494140625,0.7032195807814597,-0.38541459096744657,-0.512531589230895
1761340585730099500,0.513099365234375,-0.3752940328389406,0.04049363069087267,-0.43836599056273695
1761340585740166400,0.52316650390625,-1.875875120911002,0.8898128503642976,-0.4296650169085711
1761340585750234400,0.533234375,-2.0296189909458158,0.2541162153661251,0.18592092327922582
1761340585760301300,0.54330126953125,-2.761673036545515,-0.21388824987411498,0.8634581465978175
1761340585770369300,0.553369384765625,-2.169903075426817,-0.431912138248235,0.6877274126172065
1761340585780436200,0.563436279296875,-0.43841596718430514,0.6655845543920993,0.03804543382115662
1761340585790504400,0.57350439453125,1.1434019731163978,1.1415674511656164,0.12226276316531001
1761340585800571400,0.5835712890625,2.175546049749851,-1.1014468915708362,-0.06980071798954159
1761340585810639400,0.593639404296875,1.6672750405728816,-1.2695298142120242,-0.3601485226878896
1761340585820707300,0.603707275390625,1.198603635856509,-0.6242061767559498,-0.29402590868920087
1761340585830774300,0.613774169921875,1.1523568484663962,-0.5695063260581344,-0.317745295516029
1761340585840842500,0.623842529296875,0.7231026773810386,-0.28714126374199983,-0.16401225740248337
1761340585850909400,0.633909423828125,0.6459171463698148,0.05620777104273438,0.09767811954496428
1761340585860977400,0.643977294921875,0.6184381878137588,0.323984628297016,-0.06652772420085966
1761340585871044400,0.65404443359375,0.3941419411718845,0.5853207849793136,-0.2610239123953506
1761340585881112300,0.6641123046875,-0.047716275420784944,0.776995668675378,0.03070413114763796
1761340585891179300,0.67417919921875,-0.5475573099046945,0.390292389604263,0.07807283523976802
1761340585901247500,0.68424755859375,-1.0185761545300482,0.12286960648465901,0.029585137055069207
1761340585911314400,0.694314453125,-1.2285697350531817,0.10466474529560654,-0.3586800941031426
1761340585921382400,0.70438232421875,-1.8406705365389584,0.38984457277152684,-0.6798612823519855
1761340585931449300,0.714449462890625,-1.988704212233424,0.5331889581386,-0.6803419054757803
1761340585941517300,0.724517333984375,-2.0965712972342967,0.8984327946715056,-0.3476044272068888
1761340585951584300,0.734584228515625,-1.8861621216475963,1.3696072682499885,-0.30193982361890376
1761340585961652200,0.74465234375,0.0738695383310318,1.160555571686849,-1.3339504100658
1761340585971719400,0.754719482421875,2.3494307905375957,-1.1974273586187512,-3.2536466986551877
1761340585981787400,0.764787353515625,1.6381243494123219,-2.5140590426802634,-2.1751802851773796
1761340585991854300,0.774854248046875,1.0877578273057937,-1.6423035347931085,-0.2871301578260958
1761340586001922300,0.78492236328125,1.1372054565638303,-0.528867587808147,0.3084535163618624
1761340586011989200,0.7949892578125,0.7667723077595233,-0.023046017609909174,0.4554088953003287
1761340586022057200,0.80505712890625,-0.9604436990350484,-0.3200361098669469,1.4233733452290296
1761340586032124200,0.815124267578125,-0.9608382513105869,-0.23306882422752678,0.770955292532593
1761340586042192400,0.8251923828125,-0.6953548387557268,0.4577397494006902,0.245855313629657
1761340586052259300,0.83525927734375,-0.5834124671399593,0.46715836980491876,0.279092543451488
1761340586062327300,0.845327392578125,-0.3304430837213993,0.5423093262486159,0.6251170810557901
1761340586072395300,0.855395263671875,0.17005787597596644,0.786998810969293,0.9166502961464226
1761340586082462200,0.865462158203125,0.678505995285511,0.3241976134605706,0.8727015565656125
1761340586092530400,0.875530517578125,0.6102905371934175,-0.25035554765835405,0.1375647425197065
1761340586102597400,0.885597412109375,0.5852624789208173,-0.5708762992370874,-0.5858246428482234
1761340586112665300,0.895665283203125,0.7059101350396871,-0.7419087193336338,-0.8138977776803076
1761340586122732300,0.905732177734375,0.7818430356413125,-0.5414798166219145,-0.7498371011801064
1761340586132800300,0.91580029296875,1.1026163737416266,-0.3727497551836073,-0.4806603870652616
1761340586142867200,0.9258671875,0.9866589212656021,-0.17250030069202182,-0.35120661641731854
1761340586152935400,0.935935302734375,0.5978776303440332,-0.10944310214594005,-0.2212441655948758
1761340586163002400,0.94600244140625,0.16339374191164968,0.14370719079747796,0.08804572852589189
1761340586173070300,0.9560703125,-0.5225356813728809,0.3283650353383273,0.23217582091055808
1761340586183137500,0.966137451171875,-0.9213052823454141,0.22485826443880796,0.2992690700396895
1761340586193205200,0.976205322265625,-1.0760293955892324,0.06762052440624684,0.04776486380286515
1761340586203272400,0.9862724609375,-0.4536445159763097,-0.06366977748647332,0.1280946841891855
1761340586213340200,0.996340087890625,0.560152587583661,-0.031123598668724297,0.3886626329779625
1761340586223407600,1.00640771484375,1.4997937370866536,-0.04070215887501836,0.5313916263930499
1761340586233475300,1.016475341796875,2.2586311601936817,-0.10485825857371091,0.7579158512827009
1761340586243542500,1.02654248046875,2.371561958324909,0.08772760248742997,0.8538700148455798
1761340586253610500,1.036610595703125,2.0825725824981927,0.3750007855134085,0.9995340387992561
1761340586263677400,1.046677490234375,2.074940480184555,0.5405937910350039,1.1805583491433411
1761340586273745400,1.056745361328125,2.1249124255776404,0.5360071208318695,1.177307822914794
1761340586283812400,1.066812255859375,2.3880109888225793,0.4691110747752711,1.310082043222338
1761340586293880600,1.076880615234375,3.1159114218741655,0.7481662453584372,1.5011512891754508
1761340586303947500,1.086947509765625,2.3170582147210834,0.19666293777432292,1.9067725096084176
1761340586314015500,1.097015380859375,1.1208943732321262,-0.09423084690161049,1.749237576727569
1761340586324083500,1.10708349609375,1.12564302906394,0.5349309795003384,1.463309926559031
1761340586334150400,1.117150390625,0.9990601376771926,1.1458080113448201,1.8101555712878703
1761340586344218400,1.12721826171875,1.0693360354304313,0.523941748778522,1.9085330895401535
1761340586354285600,1.13728564453125,2.2324358117073775,-0.1573034074136056,1.6571186804786324
1761340586364353500,1.147353515625,3.6616269033044575,-0.02965407410543412,0.6205302647221833
1761340586374420500,1.15742041015625,4.299464203593135,-0.1888501451315358,0.02111899507008493
1761340586384488400,1.167488525390625,3.8333378071844577,-0.5261267646674066,-0.09806574888937175
1761340586394555400,1.177555419921875,1.6220400605738161,-0.39675621532350774,-0.4937816248470917
1761340586404623600,1.18762353515625,-0.33400457559525965,-0.41982389677595344,-0.6953567384518683
1761340586414690600,1.197690673828125,-2.6053040787041186,-0.010803097032569348,-0.8871220038451254
1761340586424758500,1.207758544921875,-4.538244318139553,0.39959213286917655,-1.2474929005794226
1761340586434825500,1.217825439453125,-5.442153644526004,0.729288380278647,-1.3071429210305212
1761340586444893400,1.2278935546875,-5.860712234073877,-0.18692692198399452,-1.8685639211148022
1761340586454960400,1.23796044921875,-6.3289692127704615,-2.4158036895029245,-5.215863593718409
1761340586465028400,1.2480283203125,-7.914875883689522,-4.635664535667002,-10.772578267925978
1761340586475095600,1.258095458984375,-9.070556323620677,-7.254738488787412,-14.90775733372569
1761340586485163500,1.26816357421875,-9.464244675806164,-6.219871709191799,-17.95424918241501
1761340586495230500,1.27823046875,-10.626789156287908,-3.3143820301249622,-17.46740791475773
1761340586505298400,1.28829833984375,-11.046876855099201,-1.763067510768026,-12.536986818039416
1761340586515364400,1.2983642578125,-10.55714454217553,-0.53042749406863,-7.055975911852717
1761340586525432300,1.308432373046875,-9.149778913417459,2.7006933749258515,-2.2895231420636177
1761340586535499300,1.318499267578125,-7.709260372120141,6.6507344845175735,0.34657954113855954
1761340586545567200,1.328567138671875,-8.960889495721458,5.69953266108036,4.49996047245264
1761340586555634400,1.338634521484375,-11.077170286554097,3.5621474151596426,8.105058848327397
1761340586565702400,1.348702392578125,-12.238907542306183,3.6393043045982716,7.130598898899555
1761340586575769300,1.358769287109375,-9.453269692805408,5.850992804092169,3.228582692286372
1761340586585837300,1.36883740234375,-3.294430252203345,4.803852818378806,3.710857090419531
1761340586595904300,1.378904296875,1.8171663268327711,3.2410663262844084,4.237780193096399
1761340586605972200,1.38897216796875,5.783236780205368,1.981033823736012,4.225991263364255
1761340586616039200,1.3990390625,7.542575771969556,1.7188868621274829,4.245739919929206
1761340586626107400,1.409107421875,6.974224680361151,0.8908985997743905,5.407289251893759
1761340586636174300,1.41917431640625,5.644429782539606,0.3059962594028562,5.966804126095772
1761340586646242300,1.4292421875,4.531053529852628,0.7301562491543591,5.019087222164869
1761340586656310300,1.439310302734375,3.992711207538843,1.390677236546576,3.4457299439564344
1761340586666377200,1.449377197265625,4.032842726919054,0.83652279339917,2.9010788768872615
1761340586676445400,1.459445556640625,4.182639320632815,-0.4659499438632279,3.4017700984597203
1761340586686512400,1.469512451171875,5.305657846412062,-0.4440571514090523,2.452279170593619
1761340586696580400,1.479580322265625,6.616073505502939,-0.18699052527211604,0.8701245456844567
1761340586706647300,1.489647216796875,8.124422889488935,-1.030732748530805,-0.7007543597117066
1761340586716715300,1.49971533203125,9.797949391672015,-1.4449103465154767,-2.2276171593792737
1761340586726782200,1.5097822265625,11.049483822727202,-0.5530534596355632,-1.175672695993632
1761340586736850400,1.519850341796875,11.54955398979187,0.3100165278948843,0.6773201465018093
1761340586746917400,1.52991748046875,11.748635131156444,0.1671229185026139,3.2996389267623423
1761340586756985300,1.5399853515625,12.393704136264324,0.18570596535429357,5.046785376429558
1761340586767052300,1.55005224609375,13.320938224136828,0.907613587731868,5.934134613159299
1761340586777120300,1.560120361328125,13.78854872162342,1.9168860534742473,5.770715736806392
1761340586787187500,1.5701875,12.897500045853853,2.3495083858184516,5.217557538154721
1761340586797255200,1.580255126953125,11.354237169396876,2.00265236582607,4.899063250902294
1761340586807322600,1.590322509765625,9.559437572672962,1.494369666211307,4.442470698775351
1761340586817390300,1.600390380859375,7.843715604317188,1.2142520174957812,3.9969478221952914
1761340586827457500,1.61045751953125,6.732880852806567,1.1161332232449204,4.328391022869944
1761340586837525200,1.620525146484375,4.3812604432702065,1.265552142752707,4.106272412528098
1761340586847592400,1.630592529296875,3.8907431174486873,1.2250376884695142,3.130502257284522
1761340586857660400,1.640660400390625,3.2693618619203564,1.9496318465173244,1.6076304269492625
1761340586867727400,1.650727294921875,3.0641572692394257,1.44711428630054,1.0425314690046013
1761340586877795600,1.660795654296875,3.1658062103778124,0.42134895091876384,0.30547800768241284
1761340586887862500,1.670862548828125,2.8105612783551215,-0.5149839508190751,-1.3983829886183141
1761340586897930500,1.680930419921875,2.2798270929574964,-1.5306538625136017,-3.19151962056607
1761340586907997400,1.69099755859375,1.6958055540084838,-0.8451222063750028,-5.891970126646757
1761340586918065400,1.7010654296875,-3.461361520591378,-1.1336663957174866,-5.130894569224119
1761340586928132400,1.71113232421875,-14.758345355415344,-0.9954190046958624,-1.401976921457052
1761340586938200600,1.72120068359375,-25.71710670468807,1.5885697526484728,-0.16745295417457817
1761340586948267500,1.731267578125,-32.74371915941238,5.021383808669448,-3.811801098158955
1761340586958335500,1.74133544921875,-35.96397884451151,2.145108679779619,-7.249044661059975
1761340586968403500,1.751403564453125,-33.850233125114435,-3.7407401875078676,-13.092493041121958
1761340586978470400,1.761470458984375,-28.349381792426108,-7.563267846864462,-18.92032241176963
1761340586988538600,1.77153857421875,-21.5826337413311,-8.206600237438082,-19.697286443197726
1761340586998605600,1.78160546875,-15.22270123502016,-5.136707639417052,-15.05305895410776
1761340587008673500,1.791673583984375,-10.507011268740891,-1.7227222025066613,-9.17806743479073
1761340587018740500,1.801740478515625,-7.259232877597213,0.862925281830132,-5.980279693740606
1761340587028808400,1.811808349609375,-4.795487141093611,1.0496841903034597,-1.5081113374464212
1761340587038875400,1.82187548828125,-3.7455297598719595,2.615740132522583,2.230764955885708
1761340587048943400,1.831943359375,-4.552858534425496,4.543294002744555,5.250300116327405
1761340587059010600,1.842010498046875,-3.8635564198374746,5.339771128416061,7.923342683261632
1761340587069078500,1.85207861328125,-2.1348580655306577,5.646577315962315,8.800856170153617
1761340587079145500,1.8621455078125,0.06434709222614765,5.298830046218633,8.713872883227467
1761340587089213400,1.87221337890625,2.6560791571736333,4.44305112901181,8.27131791654229
1761340587099280400,1.8822802734375,5.604052179443836,3.51488385194242,7.252517305606603
1761340587109348400,1.892348388671875,8.438491176992654,2.6763798946633934,5.904468958213925
1761340587119415300,1.902415283203125,10.527557213163375,1.8761948543846607,4.691372102102637
1761340587129483500,1.9124833984375,11.543146460837125,1.581673125002533,3.990271120910346
1761340587139550500,1.922550537109375,11.792547922641038,1.7352061287656426,3.894992299325764
1761340587149618400,1.932618408203125,11.094737507426737,1.861612640672177,4.060911468061804
1761340587159685400,1.942685302734375,10.052598106479644,1.7897529808588324,4.004641299307346
1761340587169753300,1.95275341796875,9.2346146669209,1.531194983652979,3.629747079440951
1761340587179820300,1.9628203125,8.735607160651684,0.9351528981730342,3.1924989869922396
1761340587189888500,1.972888427734375,8.834378500527142,0.24199350536866113,2.6009806625470517
1761340587199955500,1.98295556640625,9.257773424190283,-0.5882821920681744,1.855971858306229
1761340587210023400,1.9930234375,9.611465281552075,-1.3838947367995977,0.8825304382711648
1761340587220090400,2.00309033203125,9.628720952257513,-2.3202584720671178,-0.36302272641733285
1761340587230158300,2.013158447265625,9.30789033101201,-3.373538860231638,-1.9715439647264776
1761340587240225300,2.023225341796875,8.505674953949452,-3.579854629024863,-3.02459215157032
1761340587250293500,2.03329345703125,7.500873642271757,-3.440166172349453,-2.906306256146729
1761340587260360400,2.0433603515625,7.348452545273304,-2.7975913221448656,-1.9237644148111341
1761340587270428400,2.053428466796875,8.100415990957618,-1.8648554219856857,-0.7970974495269357
1761340587280495400,2.063495361328125,9.01795929042101,-1.16928884017542,0.2967778377458453
1761340587290563300,2.073563232421875,9.705638187721371,-0.6653392743941396,1.1533071349285542
1761340587300631300,2.08363134765625,9.784185070213676,-0.5081041647100821,1.7104422743871808
1761340587310698500,2.093698486328125,9.071542412048577,-0.8558359080910682,1.6907606917090714
1761340587320766500,2.103766357421875,7.924463211724162,-1.2459005168214439,1.3499217400491237
1761340587330833400,2.11383349609375,6.476558067306875,-1.4528120595507323,1.0612347081698477
1761340587340901400,2.1239013671875,4.278650548145174,-1.3772390783026813,0.4875632983215153
1761340587350968300,2.13396826171875,2.0359084464788437,-1.1414920478418469,-0.33617300567552444
1761340587361036300,2.144036376953125,0.06876140153706073,-1.0979044697236269,-1.6929036950871348
1761340587371103200,2.154103271484375,-2.6073317851394413,-1.4211198672138154,-3.46441681650877
1761340587381171500,2.16417138671875,-4.946217216265201,-1.9547301925696432,-5.126642756998539
1761340587391238400,2.17423828125,-6.343022872564196,-1.9613868739798663,-6.413716118946671
1761340587401306400,2.184306396484375,-7.269172672331333,-2.1380970474518834,-6.4433291669219726
1761340587411373300,2.194373291015625,-7.476971957680583,-2.9706378585428,-5.429230450066924
1761340587421441300,2.204441162109375,-9.232445506188274,-3.990891006374359,-4.159183333982527
1761340587431508200,2.21450830078125,-13.75816761188507,-2.8765044076010584,-2.5986431595101953
1761340587441576400,2.224576416015625,-19.668549009013176,0.47137058067247267,-0.4702513308515772
1761340587451643400,2.234643310546875,-23.34592351654768,3.906410057657957,1.8307257733687758
1761340587461711400,2.24471142578125,-23.579678496408462,5.872100474050641,3.7021941837534307
1761340587471778300,2.2547783203125,-21.358502329862116,5.466890026375651,4.557175813102722
1761340587481846300,2.26484619140625,-17.303490441232917,3.7832960114255547,3.4925124456584453
1761340587491913200,2.274913330078125,-13.014167107903956,2.608960847645998,2.1479589546442033
1761340587501981400,2.2849814453125,-9.896240839076041,1.418253956388682,0.8852358978375792
1761340587512048400,2.29504833984375,-8.054016643354297,0.2864551446413621,-0.35557087604142723
1761340587522116600,2.30511669921875,-6.248108792638778,-0.5375548251979053,-1.2716978059008717
1761340587532183600,2.31518359375,-5.399111790657043,-0.7879097883343696,-2.028451408471167
1761340587542251500,2.32525146484375,-6.685461514505744,-0.6832417916357517,-2.072938492712378
1761340587552318500,2.335318359375,-6.646319006162882,-0.22783110623713582,-1.3587044737026095
1761340587562386400,2.345386474609375,-4.3904380214601755,0.06109386258386075,-0.39449513852372764
1761340587572453400,2.355453369140625,-1.0871715518504381,-0.2297036221107468,0.323467545620352
1761340587582521600,2.365521484375,2.311666000288725,-0.8006213858693838,0.8494437228359282
1761340587592588500,2.375588623046875,5.08665503000319,-0.9844985283613205,1.5142065855816005
1761340587602656500,2.385656494140625,7.367046186584234,-0.8600557177431881,2.5904583917498587
1761340587612723700,2.3957236328125,8.953307662290333,-0.7256500237762927,3.451779160992801
1761340587622791400,2.40579150390625,9.596277649292348,-0.4367501163313165,4.09467637501955
1761340587632858600,2.415858642578125,9.251188200581073,-0.19328918702490627,4.405522777867317
1761340587642926300,2.42592626953125,8.015298497903347,-0.4584744568834081,3.907943258574605
1761340587652994600,2.43599462890625,6.857333746427297,-0.8105860958490521,3.463886655154824
1761340587663061500,2.4460615234375,6.524409951806068,-0.8069659325905144,3.3465023847460746
1761340587673128700,2.456128662109375,7.106936283761263,-0.9232043208997696,2.9705986955761907
1761340587683196700,2.46619677734375,7.942959237879514,-1.2590122195899487,2.2795921151578424
1761340587693264400,2.476264404296875,8.88811418236792,-1.2741527978375553,2.1091677439570424
1761340587703331600,2.48633154296875,10.030517207574844,-1.2086002753444016,2.1388997421368954
1761340587713399600,2.496399658203125,10.847580609679222,-1.1764303824931381,2.196115375047922
1761340587723466800,2.506466796875,10.774522387731075,-1.160325489258021,2.315289159221947
1761340587733534500,2.516534423828125,9.892460151493548,-0.9580063888855278,2.3317691693797706
1761340587743601700,2.5266015625,8.88121507050395,-0.8237127769909799,2.2344268393941222
1761340587753669400,2.53666943359375,8.386758067145943,-1.0080949463956057,1.7611337662264703
1761340587763736600,2.546736572265625,8.236081183466315,-0.7841760086335241,1.3841864132225512
1761340587773804500,2.556804443359375,7.986555803021788,-0.32354689446687696,1.5432903489857912
1761340587783871700,2.566871826171875,7.712333788216114,-0.045088338069990276,1.8744297444082796
1761340587793939700,2.576939697265625,7.581998266297578,0.1897553138103336,2.1439558564826844
1761340587804006700,2.587006591796875,7.410808755943179,0.13434497675560414,1.979109431544691
1761340587814074600,2.59707470703125,7.261431848946213,-0.2350896259980276,1.2567528963558374
1761340587824141600,2.6071416015625,7.403390588641166,-0.5083839680321515,0.6255773920439184
1761340587834209500,2.61720947265625,7.44471336363256,-0.6667837010487914,0.37317119546607136
1761340587844276700,2.62727685546875,6.861912890911102,-0.5146518693204969,0.4348340170443058
1761340587854344700,2.6373447265625,5.6071396240651605,-0.010107579915923997,0.8073805047407746
1761340587864411600,2.64741162109375,3.701106096255779,0.7811327684801072,1.2197266495145858
1761340587874479600,2.657479736328125,1.4274071307897567,1.716319495857507,1.2514831392593682
1761340587884546600,2.667546630859375,-0.4934019413471222,2.1428370815858244,0.8895739270418882
1761340587894614500,2.677614501953125,-1.571784037542343,2.4188227450631556,-0.056835839813202615
1761340587904681500,2.687681396484375,-2.3234680817633864,1.7287411705352365,-0.6959859762661159
1761340587914749700,2.697749755859375,-4.153079464149475,0.0380186371457763,-1.288092475862801
1761340587924816600,2.707816650390625,-8.13592101958096,-1.9485741541579364,-2.0272648290351034
1761340587934884600,2.717884521484375,-13.508921632903814,-5.117769714713097,-6.048322717875242
1761340587944951600,2.72795166015625,-19.51100399312973,-7.75887166750729,-12.314444137066602
1761340587955019500,2.73801953125,-25.580094773745536,-8.537968034788966,-15.6833208507061
1761340587965086500,2.74808642578125,-30.581853259968756,-4.125685845789313,-14.985545506805181
1761340587975154700,2.75815478515625,-33.412585219693185,0.9326474181581288,-10.327799195450543
1761340587985221600,2.7682216796875,-30.41787382712364,2.317974745044112,-5.005679459059238
1761340587995289600,2.77828955078125,-23.85618306919336,2.9629765301346778,-3.6388460394367574
1761340588005356500,2.7883564453125,-18.169825531506536,1.8154248899929224,-4.055882241722941
1761340588015424500,2.798424560546875,-13.889317957317829,0.6981022377677262,-4.7617961761549115
1761340588025491500,2.808491455078125,-10.570805987781286,0.43652215279433876,-4.576019045260549
1761340588035559700,2.8185595703125,-7.3981357368528835,0.900204918910563,-3.067414517469704
1761340588045626600,2.828626708984375,-4.083606114950776,1.8651240097939967,-0.8475663846567273
1761340588055694600,2.838694580078125,-1.1863345213919878,2.3220509084418413,1.1619473913714289
1761340588065761500,2.848761474609375,1.1425725365549326,2.50815361802876,2.770725234790146
1761340588075829500,2.85882958984375,2.9040649069607256,2.6748545847922562,4.041774805915355
1761340588085896400,2.868896484375,4.2457782061129805,2.7510210018888115,5.094557765951753
1761340588095964700,2.878964599609375,5.326906386145949,2.7137375654160976,5.520131787219643
1761340588106031600,2.889031494140625,6.180919170463085,1.940234780357778,4.979726102635264
1761340588116099600,2.899099609375,7.032296345579624,0.7449325971994548,3.4226305156588555
1761340588126166500,2.90916650390625,6.846787217971682,-0.5518856944978237,1.5389838839635253
1761340588136234500,2.919234375,6.436986519896983,-1.47391403042078,0.12128262955415993
1761340588146301400,2.929301513671875,6.500864241045713,-1.4187240581184626,-0.09877740429006517
1761340588156369400,2.939369384765625,7.0836460090667,-0.6970682185448706,0.9715649586386979
1761340588166436600,2.9494365234375,8.311386307558417,0.14313209432326257,2.4467701979137955
1761340588176504600,2.959504638671875,9.947807360184193,0.5447332289272919,3.45275969646275
1761340588186571500,2.969571533203125,11.48123624036908,0.5753759122112766,3.929295258682966
1761340588196639500,2.979639404296875,12.516860560333727,0.4146444117788225,3.7712688890233634
1761340588206706400,2.98970654296875,13.002327032506464,0.12136236199317499,3.04830532785207
1761340588216774400,2.9997744140625,12.807697609853744,-0.030492570756189524,2.1427584633916616
1761340588226841300,3.00984130859375,11.969644026690721,0.14445733331134541,1.5819512112915515
1761340588236909600,3.01990966796875,10.898347504842281,0.5210334601163864,1.7357342442929744
1761340588246976500,3.0299765625,10.043852489966154,0.9092078711859881,1.9749378449484705
1761340588257044500,3.04004443359375,9.50735141160488,1.167964240508154,2.092474675570428
1761340588267111400,3.050111328125,9.299876535904406,1.2134238230433314,2.142779360049218
1761340588277179400,3.060179443359375,9.257548967784643,1.0911318337835372,1.844203971362114
1761340588287247600,3.07024755859375,9.326440717703104,0.8868256512470543,1.4542707339264451
1761340588297314600,3.080314453125,9.495067099571228,0.6168192813750356,1.2906690483525394
1761340588307381500,3.090381591796875,9.481790269368886,0.5390513108333572,1.0357385939940809
1761340588317449500,3.100449462890625,8.805480907344817,0.4960371852215379,0.8097936302971095
1761340588327517400,3.110517333984375,7.644142880043387,0.2985824394823983,0.3446631861232221
1761340588337584400,3.12058447265625,6.4930041751950975,-0.14355656681302933,-0.5185296606019139
1761340588347652600,3.130652587890625,5.5945607129991055,-0.8554489546000957,-1.607220969365537
1761340588357719600,3.140719482421875,5.166667308872938,-1.198739098804444,-2.2525012791365384
1761340588367787500,3.15078759765625,4.981428814899921,-1.1040404151953755,-1.874419807536155
1761340588377854500,3.1608544921875,4.7810383445024485,-0.5407870120521634,-0.6443836531922221
1761340588387922400,3.17092236328125,3.760030578911304,0.26867607111632824,0.8093931597374379
1761340588397989600,3.18098974609375,1.3787491906046867,0.791366650789976,1.8220155204296111
1761340588408057300,3.191057373046875,-2.489661683526635,0.5500975324394181,2.0957130729697644
1761340588418124800,3.201124755859375,-7.056267588275671,-0.5076271583154798,1.4480194184467197
1761340588428192500,3.211192626953125,-11.822537402713298,-1.7906093054272234,0.8460567107461392
1761340588438259700,3.221259765625,-16.456804638803003,-2.466856854261458,1.0241380995061249
1761340588448327400,3.231327392578125,-20.638317585754393,-1.6549214626953004,0.6437330803290009
1761340588458394600,3.24139453125,-24.76231825493574,-0.9016831017043441,-1.1104719826128333
1761340588468462600,3.251462646484375,-27.84746687427759,0.34998650003783405,-3.443421959275007
1761340588478529500,3.261529541015625,-29.912482172775267,1.5985387734770773,-5.5648658319592474
1761340588488597500,3.271597412109375,-29.749907930552958,-1.733109887138754,-12.467248680424689
1761340588498664700,3.281664794921875,-26.994200524413586,-6.921365196833014,-25.607450398182866
1761340588508732700,3.291732666015625,-21.09243497993946,-5.95625116789937,-29.20088522427082
1761340588518799600,3.301799560546875,-15.926587170755862,-2.391355623075366,-20.302570550405978
1761340588528867600,3.31186767578125,-9.936116922390461,-0.003662175769358873,-8.632152631396055
1761340588538934500,3.3219345703125,-4.800895137616991,2.9689874609872695,-1.460400468853116
1761340588549002500,3.33200244140625,-4.197294453451037,3.6442969983190294,3.5760192886456843
1761340588559069400,3.3420693359375,-5.573862208363414,3.7254637079209085,4.414053290325403
1761340588569137400,3.352137451171875,-4.698870933425426,4.330539725336433,4.73389811540395
1761340588579204400,3.362204345703125,-1.9835417149037122,3.929498964561522,5.4461430064231156
1761340588589272600,3.3722724609375,1.5234329713493584,3.4238276164889334,5.489003073984384
1761340588599339500,3.382339599609375,4.964505737149715,3.0693884478911757,5.01095360006988
1761340588609407500,3.392407470703125,7.698720273405313,2.7745985690921544,4.696666701379418
1761340588619474400,3.402474365234375,9.482672897422313,2.6630589330583807,4.53615260655731
1761340588629542400,3.41254248046875,10.379488466155529,2.7408471061378714,4.198931407003104
1761340588639609300,3.422609375,10.361758748197555,3.1178759999454018,4.061810754989088
1761340588649677600,3.432677490234375,9.947081383997201,3.4214193863034246,4.617602809275686
1761340588659744500,3.44274462890625,9.759320093548297,3.820468096478283,5.121780703920126
1761340588669812500,3.4528125,9.57900619649589,3.962361661982536,5.395688830471038
1761340588679879400,3.46287939453125,9.828535668593645,3.637680795049667,5.412371669724584
1761340588689947400,3.472947509765625,10.697146887105703,3.0057971424683925,4.9878527104675765
1761340588700014300,3.483014404296875,11.730783832645416,2.325761161136627,4.534764659330248
1761340588710082600,3.49308251953125,12.451821978712081,1.7916503389127552,4.278697894418239
1761340588720149500,3.5031494140625,12.630325611472129,1.0550419910095632,2.5531384226590395
1761340588730217500,3.513217529296875,12.666811467826365,0.49591268205903466,0.9844601691123097
1761340588740284400,3.523284423828125,12.59628539470434,0.3756735702084377,0.19887047602226957
1761340588750352400,3.533352294921875,12.103872464394568,0.12156648799683897,-0.05805606579054147
1761340588760419300,3.54341943359375,11.326830107033253,-1.0897550655376165,-0.8104000717576593
1761340588770487600,3.553487548828125,10.486378815078735,-2.465496964085102,-2.5141712708830832
1761340588780554500,3.563554443359375,9.480210306701064,-3.384274773779511,-4.393227652178704
1761340588790622500,3.57362255859375,8.01697081502974,-4.260962038980424,-5.433822454032302
1761340588800689400,3.583689453125,5.935095567145943,-4.509955796766281,-5.147747504347563
1761340588810757400,3.59375732421875,4.393661659681797,-4.346998108184337,-3.8797845010608434
1761340588820824300,3.60382421875,5.555015469074249,-3.265336259666085,-2.8246093851909038
1761340588830892300,3.613892333984375,6.500178012347221,-2.1390232223860917,-1.5993426372058688
1761340588840959500,3.62395947265625,6.583261369225382,-1.5148169725649059,0.22691329727247356
1761340588851027500,3.63402734375,6.762988990822434,-0.8960904693290591,1.1234351437561214
1761340588861094400,3.644094482421875,6.57304451111555,-0.6577680354222655,0.9164379685699939
1761340588871162400,3.654162353515625,5.195114235678314,-0.5158273793732747,0.7508048502337187
1761340588881229300,3.664229248046875,3.1778426851302384,0.24258491365686058,0.829325210045278
1761340588891297300,3.67429736328125,1.0717512798786162,1.031629697370529,0.9065304686702788
1761340588901364200,3.6843642578125,-1.0121586887031793,1.5756383748829363,0.5943684531792998
1761340588911432400,3.694432373046875,-2.8772604866653677,1.9806142831496893,0.1262754694053903
1761340588921499400,3.70449951171875,-4.09717695966363,2.1131129744514823,0.16944558929651973
1761340588931567400,3.7145673828125,-4.739918983128667,1.9855651835553347,0.41160340011510993
1761340588941634300,3.72463427734375,-5.602801887121796,1.3627056721679867,1.1363918751586228
1761340588951702300,3.734702392578125,-7.890005646327137,0.5998641279861331,2.24477740688622
1761340588961769200,3.744769287109375,-12.572839052665232,0.7574163042627274,2.6119150212764737
1761340588971837400,3.75483740234375,-17.850615789461134,1.3323517426975071,2.5036110061630605
1761340588981904400,3.764904296875,-21.892947060215473,2.1532097147792575,2.444030689947307
1761340588991972400,3.774972412109375,-24.43787821102142,3.097501028175652,1.848277942802757
1761340589002039600,3.78503955078125,-25.73165662356615,2.855059176251292,0.043697906624898315
1761340589012107300,3.795107177734375,-24.034525373911855,-9.307418037325144,-11.646835967892407
1761340589022174500,3.805174560546875,-23.315329640841483,-22.007027028381824,-37.36969553701877
1761340589032242400,3.815242431640625,-26.9165479604125,-11.908716972041129,-36.40792555781603
1761340589042309600,3.8253095703125,-28.783029230034348,0.46788843764513727,-11.617090817970038
1761340589052377300,3.83537744140625,-21.318114205372332,6.282823547667265,5.26664510192871
1761340589062444500,3.845444580078125,-12.22846915040016,5.826545176056027,6.916908801946043
1761340589072512500,3.855512451171875,-5.523977941253781,4.850490943174064,6.482030945760012
1761340589082579500,3.865579345703125,-1.5671265671253203,4.581764018653333,6.2885992084592575
1761340589092647700,3.875647705078125,1.5227221927314996,4.174133065833151,5.552844554775953
1761340589102714600,3.885714599609375,4.399084853774309,3.7211852999493478,5.285535680359602
1761340589112782600,3.895782470703125,7.038524426314234,3.599624912899732,5.12356291116178
1761340589122849500,3.905849609375,9.316807796961069,3.6772400674998758,4.810072131285071
1761340589132917500,3.91591748046875,10.992710380625724,3.719926239798963,4.4420524733632805
1761340589142984400,3.925984375,12.114351772832869,3.869617327311635,4.3128412792995565
1761340589153052400,3.936052490234375,11.719723509448766,4.101672225256264,4.014632824228704
1761340589163119400,3.946119384765625,10.487128172141313,4.174263998736441,4.254735711811483
1761340589173187600,3.9561875,9.68590589776933,4.148413518165052,4.692198616054654
1761340589183254500,3.966254638671875,9.618744917166232,4.117772588446736,4.517247122818231
1761340589193321500,3.976321533203125,10.048885223436354,3.7852144122675058,3.647347618061304
1761340589203389400,3.986389404296875,10.764779576873778,2.525101830220222,2.289508675146848
1761340589213456400,3.996456298828125,10.761757598704099,2.590489663670957,2.3111212258875367
1761340589223523300,4.0065234375,11.349434737551212,-1.21445470046103,-0.41837629178352653
1761340589233591300,4.01659130859375,12.21776772364378,-4.115695489911735,-5.361197362804413
1761340589243658500,4.026658447265625,13.2008493709445,-4.304950233788788,-9.035778440228103
1761340589253726500,4.0367265625,13.703217878079414,-3.366542425473034,-8.990811171254515
1761340589263793400,4.04679345703125,13.179654607224464,-2.2658311547003684,-5.90386339353621
1761340589273861400,4.056861328125,11.66149226975441,-0.7376232240341604,-2.215534799658507
1761340589283928300,4.06692822265625,8.226090535327792,0.4549982321402058,1.5884399887889622
1761340589293996300,4.076996337890625,6.4900651991337535,1.4024812177173793,3.4633819205030796
1761340589304063200,4.087063232421875,6.731341806671023,2.172507266575843,2.7742645148321983
1761340589314131500,4.09713134765625,6.891447612953185,1.6037228981167078,2.5887933811470867
1761340589324198400,4.107198486328125,7.847697951951623,1.1519337276834993,2.350560817480832
1761340589334266400,4.117266357421875,9.237630799871683,1.125828760894388,2.210548097287118
1761340589344333300,4.127333251953125,10.01457612659931,1.0524057972870766,2.3561519154861568
1761340589354401300,4.1374013671875,9.776813080140947,1.0808191140837966,2.391135258322954
1761340589364468200,4.14746826171875,9.06266294002235,1.060863975161314,2.2950272924378514
1761340589374535400,4.157535400390625,8.372147942513227,0.9725736972898245,1.805076076066494
1761340589384603400,4.167603271484375,7.460455122643709,1.1593900350388138,1.4686302447989583
1761340589394670600,4.177670654296875,5.94849339337945,1.5965499377474188,1.642883818899095
1761340589404738300,4.18773828125,4.257389733451604,2.0279361524254083,2.0256582706212996
1761340589414805500,4.197805419921875,2.4224556947380305,2.5136615677952765,1.6912831081479787
1761340589424873500,4.20787353515625,0.25046704520881174,2.4148311912089584,1.1962458937492222
1761340589434940400,4.2179404296875,-1.0652011275827884,1.9443182502791285,0.622890637177974
1761340589445008600,4.228008544921875,-1.6599194171130656,1.344835230565071,-0.27449144286420196
1761340589455075600,4.23807568359375,-2.849060228097439,0.2815655094362795,-0.8572615569800138
1761340589465143600,4.2481435546875,-4.748160741773248,-0.41825529575236137,-0.9892902926824987
1761340589475210500,4.25821044921875,-8.269832061898708,-1.6429706203997134,-1.0853702745821325
1761340589485278500,4.268278564453125,-13.951992732417583,-2.6000433816969393,-1.0739813039530068
1761340589495345400,4.278345458984375,-20.48546978777647,-2.4902397756755352,-0.99226017533876
1761340589505413600,4.28841357421875,-26.182318324339388,-1.6094544275060294,-1.208315247857943
1761340589515480600,4.29848046875,-30.096788938856122,-0.029935777123644945,-1.8521284807510674
1761340589525549000,4.308549072265625,-32.06482504159212,0.8737991425439715,-2.4333251715376973
1761340589535616000,4.318615966796875,-30.78813103483915,0.381329367480427,-2.7516394260481
1761340589545684000,4.32868408203125,-27.0060733330369,-1.0912351480275393,-3.258309137508273
1761340589555751000,4.3387509765625,-22.403134132146835,-4.19029421930015,-4.8939019226163625
1761340589565819100,4.348819091796875,-16.49403868317604,-17.536395526266098,-19.09993195994496
1761340589575886000,4.358885986328125,-11.22765310896635,-18.645093265748024,-36.99280751298666
1761340589585954000,4.3689541015625,-11.367373714345693,-10.109384408062695,-30.575680708813664
1761340589596021000,4.37902099609375,-10.52818265158534,-3.2026842809200287,-10.091945782005787
1761340589606089000,4.3890888671875,-7.907180068489908,5.2670028293251985,2.852905213087797
1761340589616157000,4.399156982421875,-4.3387177710950375,6.576326017004251,7.1783362171083684
1761340589626225000,4.409224853515625,-0.10032324549257755,5.343160770854354,4.625750167635083
1761340589636292000,4.4192919921875,4.67189641726017,4.296353378096223,3.545556638103723
1761340589646359800,4.42935986328125,9.375237774097918,3.8593703663244843,3.4472163831219076
1761340589656427000,4.439427001953125,13.163954349267483,4.2361435318052765,3.9629368315219877
1761340589666494700,4.44949462890625,15.758395673173665,4.81802835098654,4.705564585845172
1761340589676562000,4.45956201171875,16.99322856027484,5.3930386082232,5.369018265688419
1761340589686630000,4.4696298828125,16.612124964374303,5.674100113660097,5.690695274630189
1761340589696697000,4.479697021484375,15.114462978619336,5.7215124376982445,5.745765419945121
1761340589706765000,4.48976513671875,13.59680449901819,5.420955373674631,5.580502961552143
1761340589716832000,4.49983203125,12.827377292835711,4.906016138780116,5.176207290634513
1761340589726900000,4.50989990234375,12.984431310331821,4.2440374999254935,4.42136010620743
1761340589736967000,4.519966796875,13.615953436124324,3.4566678098171946,3.5571339709118006
1761340589747035100,4.53003515625,14.04267545838356,2.5878929251760243,2.694323547632992
1761340589757102000,4.54010205078125,14.12950969222784,1.772915973956883,1.9278928929179906
1761340589767170000,4.550170166015625,13.943666802620887,0.7839657268837094,0.9022244420394301
1761340589777237000,4.560237060546875,13.171625614547729,-0.05875723632983863,-0.8271010311897844
1761340589787305000,4.570304931640625,11.712436859571934,-0.9331825479481368,-2.8525623909994957
1761340589797372000,4.580371826171875,9.418179090201853,-2.0474173902258275,-4.621257824651897
1761340589807440100,4.590440185546875,6.874368467858433,-2.6940710341766474,-5.503648854452371
1761340589817507000,4.600507080078125,4.8745051482290025,-2.821030649921298,-5.376996404960751
1761340589827575000,4.610574951171875,3.700328097620606,-2.485974811707437,-4.306646516312658
1761340589837642000,4.62064208984375,3.615550796306133,-1.3767546557866035,-2.3896385900244117
1761340589847710000,4.6307099609375,4.589581122145057,-0.13476367709171025,-0.35184389140754935
1761340589857777000,4.64077685546875,5.741377414119243,0.7260518825754523,0.9990210477758198
1761340589867844900,4.650844970703125,6.713091279709339,1.2611065615206956,1.9586226699635385
1761340589877912000,4.660912109375,7.459626270604133,1.41092814354524,2.0435937402844426
1761340589887980000,4.67097998046875,7.714238160532712,1.1196061600524931,1.4202727488651872
1761340589898047000,4.681046875,7.588351434716582,0.8105582579940557,0.5828814655357971
1761340589908115000,4.691114990234375,6.9128779389947645,0.859659558032453,-0.06695266704808454
1761340589918182000,4.701181884765625,5.863664069616794,0.850801201859489,-0.5232365961838513
1761340589928249900,4.711249755859375,4.475525703898072,1.075137926642224,-0.4675537257980555
1761340589938316800,4.72131689453125,2.5489637673228978,1.4512071085721254,-0.6092188163086771
1761340589948384000,4.731384033203125,0.6267448283880949,1.4746531583502889,-0.865662890100479
1761340589958452000,4.741451904296875,-1.0649842699617147,1.1913584870338438,-0.376077072975412
1761340589968519000,4.751518798828125,-2.970401127177477,0.7083057980045676,0.9516095274552703
1761340589978587000,4.7615869140625,-6.069216452822089,-0.6494939819432795,2.272688619379699
1761340589988653800,4.77165380859375,-10.732404078447818,-1.6312027334555983,2.505416594280302
1761340589998721800,4.7817216796875,-15.722680216670035,-2.2426704977348444,2.056637053991854
1761340590008788700,4.791788818359375,-19.49490626028776,-2.719963892585039,1.8117308577805757
1761340590018857000,4.80185693359375,-23.035797244668007,-3.1147251346990465,-0.07176913198567926
1761340590028924000,4.811923828125,-27.80567122107744,-4.986954300323128,-6.263806127986312
1761340590038992000,4.821991943359375,-33.8798426659584,-8.032853443816304,-17.185670702016353
1761340590049058800,4.832058837890625,-38.20248491604328,-8.540467450389265,-24.281097749769685
1761340590059126800,4.842126708984375,-35.568250510931016,-5.447997694379091,-19.35978818026781
1761340590069193700,4.85219384765625,-28.197074092674253,-2.2765186990618704,-10.798727439182995
1761340590079262000,4.862261962890625,-18.208000656121968,-0.6375051457248628,-3.932779009145498
1761340590089329000,4.872328857421875,-10.116448939621447,1.3110036881119012,0.4970613041048869
1761340590099396900,4.88239697265625,-5.128236748191714,2.4516774053081867,3.8503164145141837
1761340590109463800,4.8924638671875,-2.490619130381942,3.2444711662918326,5.531134242749214
1761340590119531800,4.90253173828125,-1.418234228774905,4.025546724691987,6.155858378964663
1761340590129599000,4.912598876953125,-0.10338730923831463,4.037378909043968,5.743862801194191
1761340590139667000,4.9226669921875,1.9114257422417402,3.78616747520864,4.825215339881181
1761340590149734100,4.932734130859375,4.039144457411766,3.447152377974987,3.9921056428611275
1761340590159801900,4.9428017578125,5.992957973527908,2.85487622089982,2.9487206257671117
1761340590169869000,4.952869140625,7.384144036379456,1.8849724734716116,1.3251529172345995
1761340590179936800,4.962936767578125,8.70970933380723,0.8062921249821782,-0.23966098903417585
1761340590190004000,4.97300390625,9.110925743409991,0.6509986874178052,-1.008948275289312
1761340590200072000,4.983072021484375,8.957351969245076,1.031478233135864,-0.5902616023823618
1761340590210139100,4.99313916015625,9.259145881587266,1.3267436935573815,0.43598274868801234
1761340590220206800,5.003206787109375,10.436018747150897,1.571110960586369,1.5377758233480154
1761340590230274000,5.013274169921875,11.770823582088946,1.3054592057272791,2.3394570935338734
1761340590240342000,5.023342041015625,13.018539331638813,0.7680942040130495,2.7810622121483086
1761340590250409000,5.033408935546875,14.092256943154334,0.26576741712801155,2.5017867133453486
1761340590260477000,5.043476806640625,14.41880944917798,-0.16732048690132795,1.9402070155680178
1761340590270544100,5.053544189453125,13.792634529632329,-0.19919004509914665,1.6377888338476418
1761340590280612000,5.063612060546875,12.765976775455474,0.25781581880273297,1.9069807455316186
1761340590290679000,5.073678955078125,11.668172185909748,0.8056989083293825,2.322245261970162
1761340590300747000,5.0837470703125,10.638971761512757,1.2085205611716956,2.8089778085559605
1761340590310814000,5.09381396484375,9.657203534898162,1.536232393298298,3.179005299168825
1761340590320882000,5.1038818359375,9.219515297466517,1.5344832115434108,3.25962928019613
1761340590330948900,5.113948974609375,9.420694872415066,1.2937792893275617,2.9335329935073853
1761340590341017000,5.12401708984375,9.178953569975494,0.8793238973148166,2.0885481497764586
1761340590351084000,5.134083984375,8.486472825351356,0.14527089645024388,1.2042476330928504
1761340590361151000,5.14415087890625,8.047539556294678,-0.6495147324703633,0.2547492891052738
1761340590371219000,5.154218994140625,7.538875748407841,-1.3480686595283449,-0.5830181340601295
1761340590381286000,5.164285888671875,6.755194391423464,-1.9464196064725516,-0.9847565947756171
1761340590391353900,5.174353759765625,6.391669706833362,-2.405296177883446,-1.4673355288133025
1761340590401420800,5.1844208984375,6.08519669676423,-2.759567004176974,-2.1215539089299735
1761340590411489000,5.194489013671875,5.622991857713461,-3.0627494482681152,-2.472455697181821
1761340590421556000,5.204555908203125,5.357671526765823,-2.8806477910161017,-2.504934071460366
1761340590431624000,5.2146240234375,4.723347203034162,-2.3847984565168616,-1.8070459148347378
1761340590441691000,5.22469091796875,3.7929233792096375,-1.8407417020790278,-0.43493893872350453
1761340590451758800,5.2347587890625,3.4861318047106264,-0.3708992319460958,1.2139337453268468
1761340590461825800,5.24482568359375,3.7565631950616836,0.8390789806880057,2.4742957720905543
1761340590471894000,5.25489404296875,3.5626708545118566,1.5557193301871417,3.0548955198973418
1761340590481961000,5.2649609375,3.04587167096436,1.9448733999438583,2.983476297327876
1761340590492029000,5.27502880859375,2.674260126030445,2.1984455715611575,2.6586811563655735
1761340590502096000,5.285095947265625,0.26254151388406755,1.5900253582842647,2.767387322539091
1761340590512163800,5.295163818359375,-4.719888002490997,1.0882326052106917,2.2183713382586836
1761340590522231000,5.30523095703125,-11.725434288311003,0.8410704467661678,-0.3934610462356359
1761340590532299000,5.315299072265625,-21.109477300155163,0.6175894620299339,-5.725244025442004
1761340590542366000,5.325365966796875,-34.289648624730106,2.054532336797565,-10.88736433853507
1761340590552434200,5.33543408203125,-44.535307297110556,3.2900667962968346,-12.327938409411907
1761340590562501000,5.345501220703125,-47.43510636332035,6.187832895374298,-14.884268906110524
1761340590572569000,5.355569091796875,-43.03292237448692,4.3927603269279,-12.164250068467855
1761340590582636000,5.365635986328125,-29.279433275806902,2.2206123951837418,-8.691730025002359
1761340590592704000,5.3757041015625,-17.074622064369915,2.02577473660782,-5.980027180284261
1761340590602771000,5.38577099609375,-10.461139159882068,2.3339213789775966,-2.6212317156761884
1761340590612839200,5.395839111328125,-7.018622040492295,3.3236732978224754,-0.4258958005681634
1761340590622906000,5.405906005859375,-5.645751971054077,3.5856747134804725,0.6436196100171655
1761340590632974000,5.41597412109375,-4.6442952936291695,3.049129795977473,1.3386224935300648
1761340590643041000,5.426041015625,-2.8721412439554928,3.2323885143101214,3.025291239750385
1761340590653108200,5.436108154296875,-1.242925592663884,3.5563358062714334,4.975056357258558
1761340590663176000,5.446176025390625,0.3980722663581371,3.072983842034638,5.50510606752336
1761340590673243100,5.4562431640625,1.3727508269727229,2.402893646786362,5.057698400110006
1761340590683311000,5.46631103515625,2.312908109304309,1.8437809236444531,4.774295592243969
1761340590693378300,5.47637841796875,4.1032793681919575,1.4275729888759552,4.40049998126924
1761340590703446300,5.4864462890625,5.869147469463944,1.1264843021936715,4.071507680878043
1761340590713513200,5.49651318359375,7.72287739406228,1.2260393397927283,4.299968645983935
1761340590723581200,5.506581298828125,9.404903429043292,1.1331102962046862,4.1914539107292885
1761340590733648100,5.516648193359375,10.593670146018265,0.4609102691955864,3.2209111347451804
1761340590743716400,5.52671630859375,11.454490856784581,-0.4707942420892417,1.7867856554858386
1761340590753783300,5.536783203125,12.302065132486819,-1.794646013597399,0.08858071218542754
1761340590763851300,5.546851318359375,13.689160126632451,-2.721145795845985,-1.096515426518023
1761340590773918200,5.556918212890625,14.93951674607992,-2.906666029369831,-1.7952366729669271
1761340590783986200,5.566986083984375,15.324798504447935,-2.8452260567620393,-2.1165289203748108
1761340590794053000,5.57705322265625,15.184160199701784,-2.590782216876745,-1.4113709188766776
1761340590804121300,5.587121337890625,14.719343716847895,-2.125450477977097,-0.5299387241709977
1761340590814188300,5.597188232421875,13.828686670744418,-1.5971392819426953,0.39650815884657203
1761340590824256300,5.60725634765625,12.293308994579315,-1.0464474734045563,1.4746880835331975
1761340590834323200,5.6173232421875,10.299874246692656,-0.805355282523483,2.288705103679001
1761340590844391200,5.62739111328125,8.545946758583188,-0.7096097202099859,2.670460733747482
1761340590854458000,5.6374580078125,7.409280231201648,-0.9590214111469686,2.803269367781281
1761340590864526000,5.647526123046875,6.751966077026724,-1.2860659384712576,2.418266280224174
1761340590874593300,5.65759326171875,6.324966991391777,-1.9411957343444226,1.7462616296567022
1761340590884661200,5.6676611328125,6.247664556002617,-2.9200051111534235,0.830359740724787
1761340590894728200,5.677728271484375,6.131679630997777,-3.5921596915856,0.1567841145135462
1761340590904796200,5.687796142578125,5.61648496003747,-3.745672383213043,-0.008188347956910728
1761340590914863000,5.697863037109375,5.52638441787362,-3.7789299251705404,0.19697971210591494
1761340590924930000,5.707929931640625,6.138330905580521,-3.6944232574909925,0.33724311912506816
1761340590934998000,5.717998046875,6.279060395741462,-3.6993133676201104,0.13198643093071877
1761340590945065200,5.728065185546875,5.707705446141958,-3.8827924507051703,-0.15106434862725435
1761340590955133200,5.73813330078125,4.539617360058426,-3.416519047041237,-0.46671369477733965
1761340590965200100,5.7482001953125,3.3100007463008163,-2.3101478508107363,0.2748624316010624
1761340590975268000,5.75826806640625,2.569226218628883,-1.018201037607342,0.9940542922139167
1761340590985335000,5.7683349609375,1.8118501002460716,0.19143457213416695,1.3404564309589564
1761340590995403000,5.778403076171875,0.03757774324417114,1.5591891982547939,1.8209420459792016
1761340591005470000,5.788469970703125,-1.405159058624506,1.8567995413020253,3.4427217020511627
1761340591015538200,5.7985380859375,-2.2094085718631744,2.4752386058986184,4.103915912529826
1761340591025605000,5.808605224609375,-3.5205151358276603,2.629703191423416,4.448387813864648
1761340591035673000,5.818673095703125,-5.860870639505982,2.7789433202981946,4.459551597435772
1761340591045740000,5.828739990234375,-9.740778474685548,3.498383383518457,4.277285105010867
1761340591055808000,5.83880810546875,-14.22335701970458,4.145090218961238,2.9824118829667565
1761340591065875000,5.848875,-18.608569999992845,3.3915497332185507,0.034420594387501474
1761340591075943200,5.858943115234375,-23.319823445129394,0.6359761825919151,-5.594191295164824
1761340591086010000,5.869010009765625,-26.516395965170858,-4.620747537042201,-15.289410380202531
1761340591096078000,5.879078125,-31.6921596036911,-7.419761877727508,-23.457179074943063
1761340591106145000,5.88914501953125,-36.284834600198266,-4.299773123411834,-20.92133607047796
1761340591116213000,5.899212890625,-33.224023134255404,1.1158593016743659,-9.654769585749506
1761340591126280200,5.9092802734375,-23.13519869914055,5.440636225700378,0.8683549056634307
1761340591136348200,5.91934814453125,-12.627613429903983,6.5006064668923615,5.8514054765462875
1761340591146415400,5.929415283203125,-5.284604536989331,5.2663838206440206,6.62595543256998
1761340591156482300,5.939482421875,-1.9498732540577648,4.167731089836359,6.159273155844211
1761340591166550300,5.94955029296875,-1.7288339633852243,3.277452813917398,4.815031214997172
1761340591176617200,5.9596171875,-3.055553107023239,2.893185785549879,3.717504565609991
1761340591186685200,5.969685302734375,-3.336266237413883,2.809422045192122,3.0486554564639925
1761340591196752100,5.979752197265625,-2.049936387309432,2.8347032014429567,2.7844655908510085
1761340591206820400,5.9898203125,-0.32471418468058105,2.5539468164324757,2.802402229557931
1761340591216887300,5.99988720703125,0.684805972212553,1.8118300803713498,2.036823515497148
1761340591226955300,6.009955322265625,0.8500345283359289,1.2198599205054341,0.8973243219729512
1761340591237022200,6.020022216796875,1.2217553788632154,0.737335785394907,0.22510960885137318
1761340591247090200,6.030090087890625,2.781782927638292,0.5980535714328289,0.44862442279197273
1761340591257157000,6.0401572265625,5.844899163392186,0.6821773772746325,1.2015586132045835
1761340591267225000,6.05022509765625,9.295833982515335,0.6020039164938032,1.7069105931296944
1761340591277292300,6.060292236328125,11.912673016190528,0.5756383260071277,1.7707209481306374
1761340591287360300,6.0703603515625,13.345261349010467,0.40179698596969243,1.5442589017570019
1761340591297427200,6.08042724609375,13.656703964185715,0.5134618558183313,1.2561240969330072
1761340591307495200,6.0904951171875,13.26962889266014,0.5041439923748374,1.4515905549317598
1761340591317562000,6.10056201171875,12.95681148200035,0.11783055287152529,1.1811248969849197
1761340591327630000,6.110630126953125,12.750370041000842,-0.6656558660626412,0.4768931434862315
1761340591337697000,6.120697021484375,12.334455828481913,-1.4242558271519838,-0.2046422826230526
1761340591347765200,6.13076513671875,12.037854224085807,-2.134003932919353,-0.8759344010069966
1761340591357832200,6.140832275390625,11.895263616228103,-2.486448566699028,-1.2876000161707402
1761340591367900200,6.150900146484375,11.82956686295867,-2.5867922704577446,-1.0996698719609528
1761340591377967000,6.160967041015625,11.55831831100583,-2.4870418564170595,-0.7626340389110148
1761340591388034000,6.171033935546875,10.61354155218005,-2.333847436958551,-0.24340492480285464
1761340591398102000,6.18110205078125,9.585969605767726,-2.3383405105940995,0.2096071384888142
1761340591408169000,6.1911689453125,8.790784857994318,-2.4570740036547183,0.158872830421105
1761340591418237200,6.2012373046875,8.707309871450066,-2.5156948271885513,0.25633286850228904
1761340591428304100,6.21130419921875,9.174054692018032,-2.3895422900430856,0.5768501860149204
1761340591438372000,6.2213720703125,9.300065920996666,-2.3909373976632953,0.8369977904997765
1761340591448439000,6.23143896484375,8.698341552096604,-2.3779710947148502,0.7713153580166399
1761340591458507000,6.241507080078125,6.930592459383607,-2.3594778450384735,0.42094789583720266
1761340591468574000,6.251573974609375,4.684703291863203,-2.410489947134256,0.6920019481312483
1761340591478642200,6.26164208984375,3.5272774695694444,-2.1374688325509426,0.9326160001065581
1761340591488709000,6.271709228515625,3.405148050460219,-2.053676304490119,0.7166902530554682
1761340591498777000,6.281777099609375,3.6534827598154545,-2.4615227997571227,0.17924181084148585
1761340591508844000,6.291843994140625,3.8333594344943758,-2.348427312583476,-0.5266049766384064
1761340591518912000,6.301912109375,2.6171792254149913,-1.6383055511981248,-0.7798936551392078
1761340591528978400,6.311978515625,0.5294903228163719,-0.6220189689099789,0.05239581153914332
1761340591539046400,6.32204638671875,-0.6061702423930168,0.8483065354995429,1.5411638583511114
1761340591549113300,6.33211328125,-1.0380834035545587,2.2684905831679703,3.03624868709445
1761340591559181600,6.342181640625,-1.7836463345468043,3.198176155845821,3.912158245921135
1761340591569248500,6.35224853515625,-4.045601086205243,3.4972821442782878,3.238273480695486
1761340591579315500,6.3623154296875,-8.569526371613144,3.4172862320214508,1.9212318275935947
1761340591589383400,6.372383544921875,-13.64538995848894,3.855371944338083,0.9606810149222612
1761340591599450400,6.382450439453125,-17.284001312386987,4.759965161335468,0.04982449974641204
1761340591609518300,6.392518310546875,-19.764265637493132,4.710944233056902,-2.091903451553732
1761340591619585300,6.402585205078125,-21.232558905422685,1.4883882537141442,-7.4713932807654135
1761340591629653500,6.412653564453125,-22.56966909469366,-4.1933080141633745,-16.244605657190082
1761340591639720400,6.422720458984375,-23.4685632232666,-7.503177827560902,-22.271937024962902
1761340591649788400,6.432788330078125,-21.92782665041685,-5.325640896254778,-19.55044869928956
1761340591659855400,6.44285546875,-17.353606179010868,-1.1743111983820795,-10.34573115798235
1761340591669923300,6.45292333984375,-11.830968546450137,2.3848368888311087,-2.7526883505791426
1761340591679990300,6.462990234375,-7.660838578778505,4.062546083526313,0.9846566415324807
1761340591690058500,6.47305859375,-5.765140567022562,3.8492742119848726,2.098474354376644
1761340591700125400,6.48312548828125,-5.516835083761811,3.0630098527699707,1.599879520561546
1761340591710193400,6.493193359375,-6.165306590789556,1.7326206423170865,0.6075288173951208
1761340591720260400,6.50326025390625,-6.331680225294828,1.8091630531191825,0.7270791797965764
1761340591730328300,6.513328369140625,-5.699593451356887,1.4552981772780418,0.40210692870169873
1761340591740395300,6.523395263671875,-4.7953082773953675,1.6709281562529503,0.09826689748466014
1761340591750463500,6.53346337890625,-4.356752609479427,1.7489874013587832,0.30135932031720875
1761340591760530400,6.543530517578125,-3.6215111660152672,1.6795596448674797,0.4622162372276187
1761340591770598400,6.553598388671875,-3.2426620710432528,2.807760249459743,-0.33734102654159065
1761340591780665300,6.563665283203125,-2.8475182593524453,2.765690455493331,-0.11977321137189864
1761340591790732300,6.573732177734375,-1.666864121684432,2.3301680177934467,1.062946918915212
1761340591800800300,6.58380029296875,0.2296644956767559,1.5571619302108883,2.5389155437782405
1761340591810867200,6.5938671875,2.570446115812659,1.031722197959572,3.1580586649909614
1761340591820935400,6.603935302734375,5.385125935402512,0.6304780235670506,2.82204333409518
1761340591831002400,6.61400244140625,7.565539883449673,0.22459610637128352,2.9351114948704837
1761340591841070300,6.6240703125,8.973059825986624,0.2418674130372703,2.1570677053816616
1761340591851137300,6.63413720703125,9.793400057804584,0.47315512600168586,1.9590693908177315
1761340591861205200,6.644205322265625,9.938439812380075,0.5111869696889072,2.8233535399109124
1761340591871272400,6.6542724609375,9.555987139958143,0.39325237192101775,3.682020287513733
1761340591881340400,6.66434033203125,8.80226895956099,0.18875863092318176,3.7387382000356912
1761340591891407600,6.67440771484375,8.412517362302541,0.07512640652433038,3.441107837113738
1761340591901475300,6.684475341796875,8.511918816775083,-0.32031719183064994,3.2073803297817705
1761340591911542500,6.69454248046875,9.15011033732891,-0.7906296417523175,2.8484567092463373
1761340591921610200,6.7046103515625,9.990058940458297,-1.0959288588017224,2.4107656953357157
1761340591931677400,6.714677490234375,10.768651449871063,-1.493118204845488,2.1154957779347896
1761340591941745400,6.724745361328125,11.408379093950986,-1.9282377608329055,1.8369843953721223
1761340591951812600,6.7348125,11.803002681159972,-2.276663075968623,1.4458455815389752
1761340591961880300,6.74488037109375,11.431997285425663,-2.4560946372285484,1.1511418466534464
1761340591971947500,6.754947509765625,10.163736760497093,-2.3273285565838218,1.0465660582829266
1761340591982014500,6.765014404296875,8.699771877160668,-1.7632763312131166,1.3131282790504395
1761340591992082400,6.77508251953125,7.883964028075337,-1.237082711854577,1.4930390021294355
1761340592002149400,6.7851494140625,7.537800228130817,-1.1143996774505822,1.3924351861298083
1761340592012217300,6.79521728515625,7.570224826395511,-1.4961889905929564,0.8309875902995467
1761340592022284500,6.805284423828125,7.340230660372972,-2.2565818264484405,-0.0821305861979723
1761340592032352500,6.8153525390625,6.849604613479971,-2.956482199679315,-0.8437522331960499
1761340592042419500,6.82541943359375,6.765875359913706,-2.5625606232598424,-1.089358394370228
1761340592052487400,6.8354873046875,6.580171586516499,-2.579366504371166,-0.9429122801281511
1761340592062554400,6.845554443359375,6.451831037807464,-2.989202858281135,-1.4668950915694237
1761340592072622300,6.855622314453125,6.118877432569861,-2.8425127061501145,-1.9137446867085992
1761340592082689300,6.865689208984375,4.566507120549678,-1.3817293754592537,-1.3459779708594084
1761340592092757500,6.875757568359375,2.187008524006605,1.2900639220662413,0.2353008941285312
1761340592102824400,6.885824462890625,-0.12626841861009597,3.1081948561474677,2.7151412947341798
1761340592112892400,6.895892333984375,-1.1959195113390684,3.6800612624004483,4.187091331605613
1761340592122959400,6.90595947265625,-1.4414642977148293,1.8216516555532811,4.275523063774407
1761340592133027300,6.91602734375,-3.2263463115364313,-0.24987912578564137,2.8644807923302054
1761340592143094300,6.92609423828125,-8.38891144578755,-1.4370667934082448,0.520400130648911
1761340592153162500,6.93616259765625,-15.178229640609025,-0.9591730945773422,-0.6647403586529195
1761340592163229400,6.9462294921875,-21.78324866813421,1.6534553356654942,-0.5246447824813425
1761340592173297400,6.95629736328125,-26.37539993302822,4.447748931439221,0.43049569557905193
1761340592183364400,6.9663642578125,-26.465149762058257,3.176879393056035,-4.277282766923308
1761340592193432300,6.976432373046875,-25.01053196825981,-2.8838024556547404,-17.957336627036334
1761340592203499300,6.986499267578125,-24.745736537969112,-10.106321513360738,-29.587731163215636
1761340592213566200,6.996566162109375,-22.59639811166525,-11.037008956557512,-31.41710932136774
1761340592223634400,7.006634521484375,-17.943872749829293,-6.467576303949952,-21.944716994941235
1761340592233701400,7.016701416015625,-11.795859823668003,0.5673341696508228,-7.12357645291686
1761340592243769300,7.026769287109375,-5.724677623730898,6.210495393559336,3.8531443314164875
1761340592253836300,7.036836181640625,-2.72999545725584,5.371269259485602,5.8932274332314725
1761340592263904300,7.046904296875,-2.8797867902725933,3.737376848554611,5.96772124094069
1761340592273971200,7.05697119140625,-4.281465605565906,3.8412300217390056,7.157615500640869
1761340592284039400,7.067039306640625,-4.443778566503524,4.517696912412345,8.113365488901733
1761340592294106400,7.0771064453125,-2.9043916546970605,4.565914415353537,8.4986840721488
1761340592304174300,7.08717431640625,-0.3321533947706222,4.016433151648938,7.8246987691581245
1761340592314241500,7.097241455078125,2.6332301965057847,3.008982202245295,6.206361070233583
1761340592324309200,7.107309326171875,5.586933286860585,1.095638278357312,2.8785733228296038
1761340592334376400,7.11737646484375,5.085723302111029,-0.14015344383865594,-1.4917019083067773
1761340592344444200,7.127444091796875,2.2805372870534657,-1.2745555334195493,-2.8094419189363715
1761340592354511600,7.13751171875,0.37575697417557236,-1.0239569707855583,-1.5750154206790028
1761340592364579300,7.147579345703125,0.8938222321361303,-0.4529653015404939,0.5019182791493833
1761340592374646500,7.157646484375,3.313647578370571,-0.3478771797336638,2.0370022330649196
1761340592384713500,7.16771337890625,6.320684784027934,0.09726524616144597,3.013260610216856
1761340592394781400,7.177781494140625,8.267341414126752,0.8409948242466896,4.239417731170356
1761340592404848400,7.187848388671875,9.38441126063466,1.3157368541136383,4.724620876231789
1761340592414916400,7.197916259765625,9.660476272958517,1.2102118752595037,4.218315029647946
1761340592424983600,7.207983642578125,9.443353278946876,0.6527143322292714,3.3186510857462883
1761340592435051500,7.218051513671875,9.352603917485474,0.28283969409056003,2.487028412413597
1761340592445118500,7.228118408203125,9.762622642225027,-0.06932831470482051,1.9615571159802376
1761340592455186400,7.2381865234375,10.512374841600655,-0.5031134802833199,1.7446162005372345
1761340592465253400,7.24825341796875,11.627033535313606,-0.7700587090190499,1.721141363056004
1761340592475321300,7.2583212890625,12.47000762374401,-0.9594243659246713,1.7594206786982713
1761340592485388300,7.26838818359375,12.28317338501215,-1.0469148717205972,1.5946252532951533
1761340592495456500,7.27845654296875,11.434136635541915,-1.21215621426031,1.5878022754073142
1761340592505523500,7.2885234375,10.646841764235496,-1.1774335681863128,1.5459522616714239
1761340592515591400,7.29859130859375,9.930451736235618,-1.1493986562479286,1.405522631239891
1761340592525659400,7.308659423828125,9.231818898722528,-1.0929598529282956,1.3348974816575645
1761340592535727400,7.318727294921875,8.587704417860508,-1.1061621565897017,1.2662965313792227
1761340592545794300,7.328794189453125,8.045712925389408,-1.093673919481784,1.1707570130318403
1761340592555861200,7.338861328125,7.585735114738345,-1.3444298646345734,0.9815814718708396
1761340592565929200,7.34892919921875,7.370301388987898,-1.8890685106135903,0.23592896289899945
1761340592575996200,7.35899609375,7.232578094905614,-2.495132223892212,-0.3069925038985908
1761340592586064400,7.369064453125,6.985448085165023,-2.620521813841164,-0.5972532148353755
1761340592596131300,7.37913134765625,6.702125649058819,-2.223257795125991,-1.5916846697986125
1761340592606199300,7.38919921875,6.151608320304751,-1.7718167805433271,-1.6304438779123127
1761340592616266200,7.399266357421875,4.842034957256913,-1.2197620861541478,-1.560423416224867
1761340592626334200,7.409334228515625,2.8712726444274184,-0.7687094133019446,-1.397683900438249
1761340592636401200,7.419401123046875,0.8894418250948191,-1.1207720620267092,-0.7620005633130669
1761340592646469400,7.429469482421875,-1.039783777731657,-0.49279075064621863,-0.7892199941501021
1761340592656536300,7.439536376953125,-3.3368975210547447,1.396767516245693,-0.9463345096617937
1761340592666604300,7.449604248046875,-4.549708545961976,3.5804353515222664,-0.6963659154944122
1761340592676671200,7.459671142578125,-5.657472803986072,4.926937346255779,0.14269450662359595
1761340592686739200,7.4697392578125,-9.25199776339829,3.1985555105522274,1.6719672900423406
1761340592696806100,7.47980615234375,-11.354038431954383,1.7899631164781749,2.5257974112689494
1761340592706874400,7.489874267578125,-13.768941519355772,1.1314314032070338,0.38008813524767754
1761340592716941300,7.49994140625,-15.350159740197657,1.068477445839718,-3.5183965362384915
1761340592727008300,7.51000830078125,-16.73351028711796,0.4135625348262489,-5.269029951238632
1761340592737076200,7.520076171875,-17.983470600724218,-0.9743125768464058,-5.5284980490267275
1761340592747143200,7.53014306640625,-18.143031048083305,-1.8671107996970413,-6.351981255045533
1761340592757211100,7.540211181640625,-17.272378679132462,-3.278309138485789,-8.603401753208042
1761340592767278000,7.550278076171875,-16.49246982642412,-4.84573439629674,-10.606084221911429
1761340592777346300,7.56034619140625,-14.750094244420527,-13.572728042382002,-15.552691898798942
1761340592787413200,7.570413330078125,-11.781079603165388,-16.66350911465287,-20.67060189876556
1761340592797481200,7.580481201171875,-9.598711013919115,-8.661531870615482,-17.45584373369217
1761340592807548200,7.590548095703125,-8.845663280129433,-0.5680902852477505,-8.441747548440098
1761340592817616100,7.6006162109375,-8.393947686389089,2.518737555885315,-0.9796658475078642
1761340592827683300,7.610683349609375,-6.782613144224881,2.5559111022427676,4.054584310866892
1761340592837751000,7.6207509765625,-5.257645218393206,2.010247497130185,5.021313666042685
1761340592847818500,7.630818603515625,-4.309188309749961,2.1354829194307325,4.175741962334514
1761340592857886200,7.64088623046875,-4.0093998920112845,2.4890923592060803,3.023543519300222
1761340592867953400,7.650953369140625,-4.372505474406481,1.7478028677493334,2.218397203352302
1761340592878021000,7.661021240234375,-4.245186669960618,0.8101346988197415,2.443164574637264
1761340592888088300,7.67108837890625,-3.373905939978361,0.9069623572815209,3.434304002317786
1761340592898155300,7.6811552734375,-1.061197737160325,2.0578534440442917,4.177311988130212
1761340592908223200,7.69122314453125,1.123667929598689,2.9024031112283466,4.554513900417089
1761340592918290400,7.70129052734375,3.1802170130461453,3.468178214868903,4.567783131834864
1761340592928358400,7.7113583984375,5.293616695484519,3.1464535673931238,3.771401867753267
1761340592938425300,7.72142529296875,7.34513947520256,1.633142761607468,1.7356234773948787
1761340592948493300,7.731493408203125,8.228799209764599,-0.04690331507008522,0.6668218411020934
1761340592958560300,7.741560302734375,7.970940300738811,-1.313156189970672,2.198708752541989
1761340592968628200,7.751628173828125,8.306992456513642,-0.9260564223952591,2.6133845093071457
1761340592978695200,7.761695068359375,8.537690386891365,0.2097169555388391,2.322267619932443
1761340592988763400,7.771763427734375,7.962453627422452,0.6481621488176286,1.9131766775622963
1761340592998830300,7.781830322265625,7.8319941868633025,0.4346080993339419,1.736577709379792
1761340593008898300,7.791898193359375,8.135389689183235,0.548233601731062,1.79576785723418
1761340593018965200,7.80196533203125,8.527437288424371,0.9465347084090113,1.9745017916187644
1761340593029033200,7.812033203125,8.920597232821583,1.2949823815070092,2.175897055144608
1761340593039100200,7.82210009765625,9.397685168227552,1.0309870155528187,2.3246324493676425
1761340593049168400,7.83216845703125,10.467820245081185,0.5197442970886826,2.7036504711657763
1761340593059235300,7.8422353515625,11.747912662100791,0.26671777665540575,2.8993559986174104
1761340593069302300,7.85230224609375,12.642448595464229,0.32445487615726887,2.6291487724110483
1761340593079370200,7.862370361328125,12.99668522722721,0.5608748739762232,2.0126881682805715
1761340593089437200,7.872437255859375,12.718431764948367,0.6845197756823151,1.37987600267753
1761340593099505200,7.882505126953125,12.130475224637985,-0.20573378592049701,1.3340851423613727
1761340593109572000,7.892572021484375,11.148293741047382,-0.625457711187005,0.6019163843408226
1761340593119640300,7.902640380859375,10.191676906824112,-0.6023107174206525,-0.660133887770772
1761340593129707300,7.912707275390625,9.394099126434325,-0.514334108608216,-1.5866645035490392
1761340593139775200,7.922775146484375,8.63919261303544,-0.49756311614718285,-2.0992180123507977
1761340593149842200,7.93284228515625,7.631702500665187,-0.8309673512291162,-2.1159799081899227
1761340593159910100,7.94291015625,6.132951550629735,-1.4526155140653252,-1.8605118398234246
1761340593169977000,7.95297705078125,5.467952687171101,-1.7836138935819268,-1.9165094752468168
1761340593180045300,7.96304541015625,5.1644753517866135,-2.3140398898132144,-2.1007102967351674
1761340593190112300,7.9731123046875,4.72204605730772,-2.651687644216418,-2.3326474135190245
1761340593200180200,7.98318017578125,4.214363661673665,-2.6891882305711508,-2.4881071475610135
1761340593210247200,7.9932470703125,3.4752848320037124,-2.663592017021775,-1.559413508529961
1761340593220314400,8.003314453125,3.4392975728213786,-2.6567256383836266,-1.2904752793461083
1761340593230381300,8.01338134765625,1.957325323629379,-2.277030740237236,0.6753234197266399
1761340593240449300,8.02344921875,-0.21854805837869642,-1.4278792783461511,1.826645664448291
1761340593250516200,8.03351611328125,-4.068690869891643,-0.6868936652068048,1.4138026760682463
1761340593260583200,8.043583251953125,-9.592160277101398,0.3980777462508529,-1.2401704487368463
1761340593270651400,8.0536513671875,-14.523365217673778,2.018732563011348,-5.294183097195625
1761340593280718300,8.06371826171875,-18.00232026262283,2.449749505985528,-9.143685857239365
1761340593290786300,8.073786376953125,-19.681340686047076,1.3835790949791669,-9.283602861973643
1761340593300853200,8.083853271484376,-19.08542763377428,1.182931946406886,-7.14323392406702
1761340593310921200,8.093921142578125,-15.782524736779926,2.285299971410632,-5.583682760632038
1761340593320988200,8.10398828125,-12.442505868834257,2.6313199789702892,-4.539539326386153
1761340593331056400,8.114056396484376,-9.330883084064721,2.3793214864104986,-3.5329485009431836
1761340593341123300,8.124123291015625,-6.912761619138717,2.1573849546372887,-2.687434372641146
1761340593351191300,8.13419140625,-5.058275907737016,1.820822218991816,-2.0743597576871515
1761340593361258200,8.14425830078125,-3.6865222751080986,1.7871175177887082,-1.7051070508390664
1761340593371326200,8.154326171875,-3.691227091798186,1.8124964353255926,-2.560404906530678
1761340593381393200,8.16439306640625,-3.5475124483466147,1.8620201985597609,-3.586657879298925
1761340593391461400,8.17446142578125,-3.539447215312719,1.314441553606093,-4.071939642554521
1761340593401528300,8.1845283203125,-4.859826050013304,0.032583661283925175,-3.8764848749935625
1761340593411596300,8.19459619140625,-6.13812632291913,-0.8264951742511242,-3.281142023824155
1761340593421663200,8.204663330078125,-6.395003819692135,-0.3053825114186853,-2.8334859346076846
1761340593431730200,8.214730224609376,-5.093094123139977,0.6797726542204618,-2.3332889262929557
1761340593441798100,8.224798095703125,-3.1822493956565854,0.8158902666717768,-1.3577268608421087
1761340593451865000,8.234864990234374,-1.3641747218072413,-0.3620088731996715,-0.8382388766020535
1761340593461933300,8.244933349609376,0.9953817414253949,-4.491386120852828,-2.2620742863848804
1761340593472000300,8.255000244140625,2.1450451130241155,-9.113577719223498,-4.000103655877709
1761340593482068200,8.265068115234374,1.1621774007350205,-6.632731210315227,-5.014276022490859
1761340593492135200,8.27513525390625,-1.5068290425509214,-0.6605671646215021,-3.851773043063283
1761340593502203100,8.285203125,-4.497083455711603,0.06986337142959237,-0.873046570611
1761340593512270300,8.295270263671876,-6.3155690484493965,-1.3193944998383522,1.3045165180496872
1761340593522338000,8.305338134765625,-6.6292404455900185,-0.9632070262685417,1.0306458008997141
1761340593532404500,8.315404541015624,-5.141014396700263,0.15982640481889246,-0.05271525275185704
1761340593542472400,8.325472412109375,-3.4880256556332108,0.3001328472621739,0.04628843457475304
1761340593552539400,8.335539306640625,-1.6810218263745307,0.3294016118444502,0.3062397858351469
1761340593562607400,8.345607421875,0.3165168496996164,0.46426893197372554,0.31147754035815595
1761340593572674300,8.35567431640625,2.525906132340431,0.5668985547125339,0.4902874625883996
1761340593582742300,8.3657421875,4.646723982080817,0.7357049693226814,0.931198461458832
1761340593592809200,8.375809326171876,6.155564948976039,0.7988891552492976,2.077128784009069
1761340593602876400,8.38587646484375,6.77325377972722,0.5588852710615844,3.718269997024536
1761340593612944400,8.3959443359375,6.608572336092591,0.31355997265540064,4.847823477530479
1761340593623011300,8.40601123046875,6.609985125499963,0.20892240762766448,5.025471370244026
1761340593633079300,8.416079345703125,6.562951571646332,0.03021428353777155,4.423903068688512
1761340593643146200,8.426146240234376,7.336689042243361,0.36987116753999144,3.495261452105641
1761340593653214200,8.436214111328125,7.285718733462691,0.8821595591321587,2.878643465456366
1761340593663281200,8.44628125,5.796038394111394,0.8002668733432888,2.019277921934426
1761340593673349400,8.456349365234376,5.941007421538234,1.0028821071181446,1.3066966385677456
1761340593683416300,8.466416259765625,6.845678379946946,1.6940750769540667,1.2770391669288277
1761340593693484300,8.476484375,7.458375393760204,2.250205569414794,1.7625244899325072
1761340593703551200,8.48655126953125,7.831292176073789,2.4383109971262513,2.2986840613797304
1761340593713619200,8.496619140625,7.6854446122467515,2.5639345419615505,2.413964637507498
1761340593723686100,8.50668603515625,6.202961490923166,2.668764158962667,2.052645938529074
1761340593733754400,8.51675439453125,3.7361581204146144,2.4982827968776227,1.424000829477608
1761340593743821300,8.5268212890625,2.07405492952168,2.399966507293284,0.9818827929049729
1761340593753889300,8.53688916015625,1.0071879145532845,2.3531772835895417,0.5066201732300222
1761340593763956200,8.546956298828125,0.19937574039697645,2.278184878708422,0.21089126001521943
1761340593774023200,8.557023193359376,-0.5061187995791435,2.1895570394456385,0.46273938431888817
1761340593784091100,8.567091064453125,-0.8178776410967111,1.7959584113702176,0.9619215165026486
1761340593794158300,8.577158447265624,-1.2396867568731307,1.0843537179507314,0.9234725433818995
1761340593804226300,8.587226318359376,-1.6388959183067082,0.4883605861790478,0.08869082149639725
1761340593814293500,8.59729345703125,-2.042268629160523,0.06908449601158499,-0.8763675317272543
1761340593824361200,8.607361328125,-2.819109910991788,-0.43476825833171606,-1.819608897679299
1761340593834428400,8.617428466796875,-3.6338323029279707,-0.7560702964812517,-2.655885680428147
1761340593844496100,8.62749609375,-4.604637236979603,-0.9638878481395542,-3.0917145537286994
1761340593854563300,8.637563232421876,-5.058974411395192,-0.7867563805155455,-3.1793489980399605
1761340593864631300,8.64763134765625,-4.751653260064125,-0.4258303341165185,-2.853630897013843
1761340593874698500,8.657698486328124,-4.263412647002935,-0.07463482361510396,-2.1471841708794237
1761340593884766500,8.667766357421876,-4.561991688951849,0.2323709781564772,-1.4438859719038009
1761340593894833400,8.67783349609375,-5.283405682593584,0.5281776327826082,-0.9228498814389109
1761340593904901400,8.6879013671875,-5.314135167378187,0.7762012303620577,-0.4020817942604422
1761340593914968300,8.69796826171875,-4.686171610850096,0.25845117583051325,-0.2172314228221774
1761340593925036300,8.708036376953125,-3.9655741942882536,-0.6562587999030948,-0.5518640671879053
1761340593935103500,8.718103515625,-2.549862761989236,-1.0398615191429852,-0.9640987144112586
1761340593945170400,8.72817041015625,-0.6967272961527109,-1.199997866693884,-0.9673138770654797
1761340593955238400,8.73823828125,1.180961011660099,-1.4215909918569027,-0.6362120371744037
1761340593965305300,8.748305419921875,2.674763983899355,-1.6939117030858992,-0.20392697396054862
1761340593975373300,8.758373291015625,3.6656232794642447,-1.8362274395249782,0.22955007551684975
1761340593985440300,8.768440185546876,4.480190188577771,-1.7422748981080949,0.5677747530251741
1761340593995508200,8.77850830078125,5.164186013451218,-1.9553211442001164,0.9143561938598751
1761340594005575400,8.788575439453124,5.5640673750579355,-1.73214294180274,1.2390128031343222
1761340594015643400,8.798643310546876,5.864517471575737,-1.2777511145904659,0.9217797679893672
1761340594025710300,8.80871044921875,5.776000399211049,-1.1916261980593204,0.4038403283655643
1761340594035778300,8.8187783203125,4.986630475196242,-1.4099284649834036,0.06792027453780174
1761340594045845200,8.82884521484375,3.673064243119955,-1.6054568823024629,-0.06889204217940569
1761340594055913200,8.838913330078125,2.3280770368635655,-1.335513859990239,-0.3071688833788037
1761340594065980200,8.848980224609376,1.512405965900421,-0.6567603196844458,-0.6308987331971526
1761340594076048400,8.85904833984375,1.3450129252195357,0.10570486546568572,-0.5249056253746152
1761340594086115300,8.869115234375,1.2378384986579418,0.3819686882972717,-0.11404124359115958
1761340594096183300,8.879183349609375,1.0370324331969023,0.3517821512829512,0.2997293810278177
1761340594106250200,8.889250244140625,0.7097960365623235,0.47863954876214265,0.4819290918268263
1761340594116317200,8.899317138671876,0.23539690184891224,0.7375959707010536,0.4643538337782025
1761340594126385200,8.90938525390625,-0.40776071667969227,0.7355674605481326,0.23954160043820738
1761340594136452000,8.9194521484375,-1.0175134937345982,0.3271171541690826,-0.10629778985753655
1761340594146520300,8.929520263671876,-1.2846855900287628,-0.13653839514665306,-0.46205534757748246
1761340594156587300,8.939587158203125,-1.363854403811693,-0.5230112629953771,-0.9337151204548776
1761340594166655200,8.9496552734375,-1.5102210230767725,-0.6414720035292207,-1.143912552987039
1761340594176722200,8.95972216796875,-1.9016425993740558,-0.5429430210422724,-1.0373308316215872
1761340594186790100,8.9697900390625,-2.4925480526179076,-0.4538191418908536,-0.9342252619341015
1761340594196857000,8.979857177734376,-2.749375280508399,-0.39567755324132736,-0.9025985360488294
1761340594206925300,8.98992529296875,-2.7418355326533317,-0.5147087871395051,-0.9690579442538321
1761340594216992300,8.9999921875,-2.4139754511624574,-0.5187064054083079,-1.0139381194658577
1761340594227060200,9.010060302734376,-2.172130688348412,-0.4012301458671689,-0.8736337228491902
1761340594237127400,9.02012744140625,-1.9316402627527713,-0.1825878333337605,-0.6910567762356251
1761340594247195100,9.030195068359374,-1.6967185772001743,-0.31609782056994734,-0.44049365024119613
1761340594257262300,9.040262451171875,-1.058584924313426,-0.5464941376525908,-0.03714914256855845
1761340594267330300,9.050330322265625,-0.4047340623348951,-0.09938223831541836,0.44542796483822167
1761340594277397500,9.0603974609375,-0.13136778757572173,0.3647312108356505,1.0850849548347294
1761340594287465200,9.07046533203125,0.277775907894969,0.4583538627110421,1.4894734186023473
1761340594297532400,9.080532470703124,0.7547200509160756,0.42251295319683846,1.4709697936624289
1761340594307599400,9.090599365234375,1.0128881720215082,0.48022857151925563,1.159597028852999
