time,seconds_elapsed,z,y,x
1761340585307262700,0.0902626953125,0.012194099836051464,-0.07606831938028336,-0.06098232418298721
1761340585317330700,0.10033056640625,0.014700478874146938,-0.07426558434963226,-0.11061829328536987
1761340585327397600,0.110397705078125,0.03304379805922508,-0.07773062586784363,-0.15604914724826813
1761340585337465600,0.120465576171875,0.07801435887813568,-0.062072668224573135,-0.18374472856521606
1761340585347532800,0.13053271484375,0.09993084520101547,-0.09525645524263382,-0.17767778038978577
1761340585357600800,0.140600830078125,0.09784875065088272,-0.16110876202583313,-0.13487784564495087
1761340585367667700,0.150667724609375,0.09342284500598907,-0.1973045915365219,-0.030790066346526146
1761340585377735700,0.160735595703125,0.10741236060857773,-0.15193913877010345,0.1322523057460785
1761340585387802600,0.170802734375,0.1340319961309433,-0.008887704461812973,0.32663190364837646
1761340585397870600,0.18087060546875,0.14373373985290527,0.13248887658119202,0.5012781023979187
1761340585407937500,0.1909375,0.14222346246242523,0.267098069190979,0.6108556985855103
1761340585418005800,0.201005859375,0.14998655021190643,0.4032750427722931,0.663399875164032
1761340585428072700,0.21107275390625,0.1810251623392105,0.5234110355377197,0.705686092376709
1761340585438140700,0.221140625,0.1998043805360794,0.5646834969520569,0.7505605816841125
1761340585448207600,0.23120751953125,0.21613700687885284,0.545772910118103,0.7830972075462341
1761340585458275600,0.241275634765625,0.24868983030319214,0.47137758135795593,0.761390745639801
1761340585468342500,0.251342529296875,0.2888694703578949,0.33612868189811707,0.6959643363952637
1761340585478410800,0.26141064453125,0.32873934507369995,0.18433524668216705,0.6350076198577881
1761340585488477700,0.271477783203125,0.36768966913223267,0.0627659484744072,0.680824875831604
1761340585498545700,0.281545654296875,0.3731439411640167,0.10812913626432419,0.8327283263206482
1761340585508612600,0.291612548828125,0.3307035565376282,0.28300079703330994,0.9967494606971741
1761340585518681300,0.301681396484375,0.25508588552474976,0.44448110461235046,1.1093685626983643
1761340585528748300,0.311748291015625,0.1722748875617981,0.5273978114128113,1.1524758338928223
1761340585538816500,0.32181640625,0.11268620938062668,0.537837028503418,1.145277738571167
1761340585548883500,0.331883544921875,0.0779641792178154,0.4496738910675049,1.1327627897262573
1761340585558951400,0.341951416015625,0.06476487964391708,0.31929510831832886,1.0988954305648804
1761340585569019400,0.352019287109375,0.07876352220773697,0.23552244901657104,1.033996820449829
1761340585579086300,0.36208642578125,0.12398424744606018,0.24963009357452393,0.9280456304550171
1761340585589154600,0.372154541015625,0.17909890413284302,0.3747920095920563,0.774206817150116
1761340585599221500,0.382221435546875,0.2459682673215866,0.5056439638137817,0.60236656665802
1761340585609289500,0.39228955078125,0.32640954852104187,0.6102886199951172,0.4152640700340271
1761340585619356400,0.4023564453125,0.4531136751174927,0.637171745300293,0.27320629358291626
1761340585629424400,0.41242431640625,0.5998258590698242,0.513656497001648,0.20070889592170715
1761340585639491300,0.4224912109375,0.6972699761390686,0.4159241318702698,0.13724805414676666
1761340585649559600,0.4325595703125,0.7418390512466431,0.4838957190513611,0.053382448852062225
1761340585659626500,0.44262646484375,0.7378423810005188,0.6068873405456543,-0.06327371299266815
1761340585669694500,0.452694580078125,0.7193390130996704,0.6225789189338684,-0.1673702895641327
1761340585679761400,0.462761474609375,0.7044549584388733,0.5426705479621887,-0.18809324502944946
1761340585689829400,0.472829345703125,0.6658279299736023,0.48001381754875183,-0.1935649812221527
1761340585699896300,0.482896240234375,0.5783008337020874,0.43597427010536194,-0.24650102853775024
1761340585709964300,0.49296435546875,0.48933395743370056,0.3594757616519928,-0.3365888297557831
1761340585720031500,0.503031494140625,0.3809313178062439,0.10271934419870377,-0.3729307949542999
1761340585730099500,0.513099365234375,0.3068693280220032,-0.04772661626338959,-0.4203997850418091
1761340585740166400,0.52316650390625,0.3633766770362854,0.017965130507946014,-0.2570574879646301
1761340585750234400,0.533234375,0.523292601108551,-0.008118667639791965,0.0009282566606998444
1761340585760301300,0.54330126953125,0.6588943600654602,-0.3063347637653351,0.21661736071109772
1761340585770369300,0.553369384765625,0.759554922580719,-0.9629397988319397,0.3377925157546997
1761340585780436200,0.563436279296875,0.7316427230834961,-1.6557388305664062,0.16321337223052979
1761340585790504400,0.57350439453125,0.6754611730575562,-1.508117914199829,-0.19002431631088257
1761340585800571400,0.5835712890625,0.5900442600250244,-0.9770671129226685,-0.4322008192539215
1761340585810639400,0.593639404296875,0.5465119481086731,-0.9598692059516907,-0.5156182050704956
1761340585820707300,0.603707275390625,0.551729142665863,-1.1704617738723755,-0.5821651816368103
1761340585830774300,0.613774169921875,0.5213808417320251,-1.5040439367294312,-0.6870779991149902
1761340585840842500,0.623842529296875,0.46908438205718994,-1.7992844581604004,-0.8429945707321167
1761340585850909400,0.633909423828125,0.3831484317779541,-1.8854131698608398,-1.0006308555603027
1761340585860977400,0.643977294921875,0.2860981225967407,-1.8108330965042114,-1.117978572845459
1761340585871044400,0.65404443359375,0.24297304451465607,-1.6904572248458862,-1.15061616897583
1761340585881112300,0.6641123046875,0.3438546359539032,-1.4605214595794678,-1.0334604978561401
1761340585891179300,0.67417919921875,0.5951625108718872,-1.168519139289856,-0.7318229675292969
1761340585901247500,0.68424755859375,0.8710849285125732,-0.7106359004974365,-0.3824795186519623
1761340585911314400,0.694314453125,1.2391620874404907,-0.2000378668308258,-0.005027825478464365
1761340585921382400,0.70438232421875,1.6320594549179077,0.14736677706241608,0.4418604373931885
1761340585931449300,0.714449462890625,2.0514729022979736,0.3450489640235901,0.9395111799240112
1761340585941517300,0.724517333984375,2.473348617553711,0.5166391730308533,1.4493452310562134
1761340585951584300,0.734584228515625,2.557661294937134,0.33674156665802,1.7218738794326782
1761340585961652200,0.74465234375,0.9200875163078308,-1.068108320236206,0.8342400789260864
1761340585971719400,0.754719482421875,-0.6650922298431396,-1.1594973802566528,0.39423444867134094
1761340585981787400,0.764787353515625,-1.0939010381698608,-0.7543246150016785,0.41329559683799744
1761340585991854300,0.774854248046875,-0.765009880065918,-0.7572146654129028,0.3177533745765686
1761340586001922300,0.78492236328125,-0.41093510389328003,-0.8759809732437134,0.13315515220165253
1761340586011989200,0.7949892578125,-0.31860384345054626,-0.7867205739021301,0.05993819981813431
1761340586022057200,0.80505712890625,-0.28695863485336304,-0.3443918526172638,0.15619568526744843
1761340586032124200,0.815124267578125,-0.22673633694648743,-0.19285692274570465,0.13355401158332825
1761340586042192400,0.8251923828125,-0.13053975999355316,-0.13801045715808868,0.09232589602470398
1761340586052259300,0.83525927734375,-0.010522006079554558,0.0459684357047081,0.11237763613462448
1761340586062327300,0.845327392578125,0.13098318874835968,0.33089661598205566,0.04625093936920166
1761340586072395300,0.855395263671875,0.332536518573761,0.6458641886711121,-0.1694597750902176
1761340586082462200,0.865462158203125,0.43696457147598267,0.7348054647445679,-0.3681843876838684
1761340586092530400,0.875530517578125,0.4240487813949585,0.6852885484695435,-0.4295497536659241
1761340586102597400,0.885597412109375,0.3087756037712097,0.4553833603858948,-0.34846052527427673
1761340586112665300,0.895665283203125,0.2071395218372345,0.1184077337384224,-0.2640138268470764
1761340586122732300,0.905732177734375,0.1262139081954956,0.016109053045511246,-0.285633385181427
1761340586132800300,0.91580029296875,0.07333923876285553,0.04458676651120186,-0.4189078211784363
1761340586142867200,0.9258671875,0.0346955843269825,0.12028229981660843,-0.5555237531661987
1761340586152935400,0.935935302734375,0.012406526133418083,0.27370673418045044,-0.6223214268684387
1761340586163002400,0.94600244140625,0.06342002004384995,0.351144939661026,-0.6402462720870972
1761340586173070300,0.9560703125,0.08936213701963425,0.38783425092697144,-0.5240086317062378
1761340586183137500,0.966137451171875,0.06766343861818314,0.27587270736694336,-0.29097825288772583
1761340586193205200,0.976205322265625,-0.01475447416305542,0.06664463877677917,-0.050442636013031006
1761340586203272400,0.9862724609375,-0.05060463398694992,-0.1461639553308487,0.1137814149260521
1761340586213340200,0.996340087890625,-0.026077985763549805,-0.30995848774909973,0.1341916173696518
1761340586223407600,1.00640771484375,-0.011720700189471245,-0.38302212953567505,0.01974310539662838
1761340586233475300,1.016475341796875,0.00960669293999672,-0.3574901223182678,-0.18146483600139618
1761340586243542500,1.02654248046875,0.07484477758407593,-0.21523921191692352,-0.3784172534942627
1761340586253610500,1.036610595703125,0.1938031166791916,0.11289551109075546,-0.5236409902572632
1761340586263677400,1.046677490234375,0.31511688232421875,0.4090840816497803,-0.6256932020187378
1761340586273745400,1.056745361328125,0.40796053409576416,0.6612029075622559,-0.7138963341712952
1761340586283812400,1.066812255859375,0.504799485206604,0.7062907218933105,-0.7472460269927979
1761340586293880600,1.076880615234375,0.6417914032936096,0.41434624791145325,-0.7248104810714722
1761340586303947500,1.086947509765625,0.6940317749977112,0.42305758595466614,-0.547437846660614
1761340586314015500,1.097015380859375,0.754725992679596,0.4853305518627167,-0.23880863189697266
1761340586324083500,1.10708349609375,0.7135369181632996,0.4046463072299957,0.10899031162261963
1761340586334150400,1.117150390625,0.762675940990448,0.32841333746910095,0.5493823289871216
1761340586344218400,1.12721826171875,0.872384786605835,0.3477461338043213,0.8576151728630066
1761340586354285600,1.13728564453125,0.8109155893325806,0.5766429305076599,0.8275683522224426
1761340586364353500,1.147353515625,0.6831761002540588,0.8857902884483337,0.5525118708610535
1761340586374420500,1.15742041015625,0.6386581659317017,1.0338131189346313,0.20266970992088318
1761340586384488400,1.167488525390625,0.551678478717804,1.0373554229736328,-0.09982836991548538
1761340586394555400,1.177555419921875,0.4230286478996277,0.7540079355239868,-0.2452942281961441
1761340586404623600,1.18762353515625,0.3514235317707062,-0.10279430449008942,-0.07032318413257599
1761340586414690600,1.197690673828125,0.32683536410331726,-1.0019749402999878,0.2062210589647293
1761340586424758500,1.207758544921875,0.3124534785747528,-1.7165954113006592,0.4042034447193146
1761340586434825500,1.217825439453125,0.31011122465133667,-2.1476211547851562,0.3927907347679138
1761340586444893400,1.2278935546875,0.36475658416748047,-2.3317136764526367,0.03269148990511894
1761340586454960400,1.23796044921875,0.13922305405139923,-2.2631170749664307,-0.49736571311950684
1761340586465028400,1.2480283203125,-0.39333951473236084,-1.8329054117202759,-1.0262638330459595
1761340586475095600,1.258095458984375,-1.0745534896850586,-1.1405264139175415,-1.5880763530731201
1761340586485163500,1.26816357421875,-1.947670817375183,-0.09214648604393005,-1.9652470350265503
1761340586495230500,1.27823046875,-2.528409481048584,0.9029460549354553,-2.1091253757476807
1761340586505298400,1.28829833984375,-2.77689266204834,1.3442894220352173,-2.1822402477264404
1761340586515364400,1.2983642578125,-2.8914742469787598,0.9325984120368958,-2.1283721923828125
1761340586525432300,1.308432373046875,-2.8020482063293457,-0.33525511622428894,-2.0559325218200684
1761340586535499300,1.318499267578125,-2.7101550102233887,-1.6283338069915771,-2.082334280014038
1761340586545567200,1.328567138671875,-2.218292236328125,-2.3713698387145996,-1.609026551246643
1761340586555634400,1.338634521484375,-1.4765818119049072,-2.408310651779175,-0.6058720946311951
1761340586565702400,1.348702392578125,-1.190191388130188,-1.798732042312622,0.719303548336029
1761340586575769300,1.358769287109375,-1.2227171659469604,-0.9729869961738586,1.3358495235443115
1761340586585837300,1.36883740234375,-1.2486523389816284,-0.0868738517165184,1.2031899690628052
1761340586595904300,1.378904296875,-1.1950633525848389,0.7987555265426636,0.6423207521438599
1761340586605972200,1.38897216796875,-1.1641929149627686,1.1985175609588623,-0.15885794162750244
1761340586616039200,1.3990390625,-1.0082461833953857,1.332811713218689,-0.7910298109054565
1761340586626107400,1.409107421875,-0.6251561045646667,1.147884488105774,-1.0172107219696045
1761340586636174300,1.41917431640625,-0.16452407836914062,0.6795588135719299,-0.8761993646621704
1761340586646242300,1.4292421875,0.16140161454677582,0.1109294444322586,-0.4731588363647461
1761340586656310300,1.439310302734375,0.3159602880477905,-0.323940247297287,0.0795469656586647
1761340586666377200,1.449377197265625,0.48521995544433594,-0.5954195261001587,0.6688169240951538
1761340586676445400,1.459445556640625,0.7044199705123901,-0.7053156495094299,1.2634320259094238
1761340586686512400,1.469512451171875,0.7138270139694214,-0.6939082145690918,1.7537986040115356
1761340586696580400,1.479580322265625,0.537604808807373,-0.5670080780982971,2.136946201324463
1761340586706647300,1.489647216796875,0.1346345990896225,-0.47808390855789185,2.3185601234436035
1761340586716715300,1.49971533203125,-0.40705686807632446,-0.5211994051933289,2.371724843978882
1761340586726782200,1.5097822265625,-0.7399749159812927,-0.6415188908576965,2.26884126663208
1761340586736850400,1.519850341796875,-0.830727219581604,-0.7933153510093689,2.127986192703247
1761340586746917400,1.52991748046875,-0.7264351844787598,-0.35521015524864197,1.9550508260726929
1761340586756985300,1.5399853515625,-0.46205785870552063,0.23159928619861603,1.5335980653762817
1761340586767052300,1.55005224609375,-0.1469065397977829,0.6730194091796875,0.860146701335907
1761340586777120300,1.560120361328125,0.07310411334037781,0.9021596312522888,0.1529802680015564
1761340586787187500,1.5701875,0.20567256212234497,1.1316611766815186,-0.3444490134716034
1761340586797255200,1.580255126953125,0.3818531930446625,1.1049115657806396,-0.6455337405204773
1761340586807322600,1.590322509765625,0.46955597400665283,0.9398964047431946,-0.7228951454162598
1761340586817390300,1.600390380859375,0.49882596731185913,0.7788664698600769,-0.6498981714248657
1761340586827457500,1.61045751953125,0.535393238067627,0.5210971832275391,-0.5478611588478088
1761340586837525200,1.620525146484375,0.6046338081359863,0.6227703094482422,-0.24107271432876587
1761340586847592400,1.630592529296875,0.5768328905105591,0.6760965585708618,0.027529355138540268
1761340586857660400,1.640660400390625,0.4257107377052307,0.6704732775688171,0.2537965774536133
1761340586867727400,1.650727294921875,0.3306303322315216,0.6111213564872742,0.37525495886802673
1761340586877795600,1.660795654296875,0.2023085653781891,0.5237888693809509,0.22727160155773163
1761340586887862500,1.670862548828125,-0.00705487048253417,0.5214322805404663,-0.13630107045173645
1761340586897930500,1.680930419921875,-0.4001361131668091,0.28092676401138306,-0.8605607748031616
1761340586907997400,1.69099755859375,-1.1856414079666138,-0.37992268800735474,-2.036245107650757
1761340586918065400,1.7010654296875,-1.660681962966919,-1.3379729986190796,-3.038775682449341
1761340586928132400,1.71113232421875,-1.2592129707336426,-1.544526219367981,-3.232456922531128
1761340586938200600,1.72120068359375,-0.604553759098053,-0.8591899871826172,-2.829800844192505
1761340586948267500,1.731267578125,-0.03595936298370361,0.22938266396522522,-1.8921619653701782
1761340586958335500,1.74133544921875,0.42540931701660156,0.7470665574073792,-0.5115794539451599
1761340586968403500,1.751403564453125,0.31275486946105957,0.42875534296035767,0.5443970561027527
1761340586978470400,1.761470458984375,-0.4488157331943512,-0.13151516020298004,1.2399588823318481
1761340586988538600,1.77153857421875,-1.4125697612762451,-0.8395394086837769,1.3733675479888916
1761340586998605600,1.78160546875,-2.019690990447998,-0.872990071773529,1.0864036083221436
1761340587008673500,1.791673583984375,-2.339820623397827,-0.38353708386421204,0.4277633726596832
1761340587018740500,1.801740478515625,-2.6578257083892822,0.42208752036094666,-0.22689887881278992
1761340587028808400,1.811808349609375,-2.6486103534698486,0.8250418305397034,-0.9852333068847656
1761340587038875400,1.82187548828125,-2.4883875846862793,1.1163877248764038,-1.3625329732894897
1761340587048943400,1.831943359375,-2.0800132751464844,1.1866282224655151,-1.2245465517044067
1761340587059010600,1.842010498046875,-1.481672763824463,0.8431316018104553,-0.8190509676933289
1761340587069078500,1.85207861328125,-0.9328180551528931,0.33343756198883057,-0.28085726499557495
1761340587079145500,1.8621455078125,-0.44978857040405273,-0.15804988145828247,0.23265931010246277
1761340587089213400,1.87221337890625,-0.06118899583816528,-0.4527599811553955,0.5584632754325867
1761340587099280400,1.8822802734375,0.15227694809436798,-0.4308983385562897,0.6161782741546631
1761340587109348400,1.892348388671875,0.2279345840215683,-0.25114312767982483,0.4238387644290924
1761340587119415300,1.902415283203125,0.19245222210884094,0.05911674350500107,0.08777634799480438
1761340587129483500,1.9124833984375,0.12154421210289001,0.4151860177516937,-0.29966187477111816
1761340587139550500,1.922550537109375,0.12030131369829178,0.6892340779304504,-0.6248050928115845
1761340587149618400,1.932618408203125,0.2022254467010498,0.8955290913581848,-0.762564480304718
1761340587159685400,1.942685302734375,0.3286861777305603,0.8788233399391174,-0.6689897775650024
1761340587169753300,1.95275341796875,0.4809614419937134,0.6028313636779785,-0.3868401050567627
1761340587179820300,1.9628203125,0.663592517375946,0.17329037189483643,-0.03734255209565163
1761340587189888500,1.972888427734375,0.8477694988250732,-0.28677377104759216,0.25250452756881714
1761340587199955500,1.98295556640625,1.0235973596572876,-0.6405084133148193,0.4130350649356842
1761340587210023400,1.9930234375,1.1408007144927979,-0.8320521712303162,0.4390934109687805
1761340587220090400,2.00309033203125,1.0897012948989868,-0.8931503891944885,0.3880366384983063
1761340587230158300,2.013158447265625,0.8445553779602051,-0.8482276201248169,0.3138720989227295
1761340587240225300,2.023225341796875,0.517751157283783,-0.7168520092964172,0.3253417909145355
1761340587250293500,2.03329345703125,0.23552696406841278,-0.5025258660316467,0.46325039863586426
1761340587260360400,2.0433603515625,0.05120239034295082,-0.2849339246749878,0.5895763635635376
1761340587270428400,2.053428466796875,-0.04399267956614494,-0.07190007716417313,0.5729301571846008
1761340587280495400,2.063495361328125,-0.09159775078296661,0.2663562595844269,0.3698204457759857
1761340587290563300,2.073563232421875,-0.06860113888978958,0.6081969738006592,0.10887525975704193
1761340587300631300,2.08363134765625,-0.014031900092959404,0.7381848096847534,-0.08581939339637756
1761340587310698500,2.093698486328125,-0.015809791162610054,0.675356388092041,-0.1104319617152214
1761340587320766500,2.103766357421875,-0.044338908046483994,0.4473847448825836,-0.002879137173295021
1761340587330833400,2.11383349609375,-0.0980738028883934,0.23345080018043518,0.17611166834831238
1761340587340901400,2.1239013671875,-0.14470522105693817,0.09314695745706558,0.4018923342227936
1761340587350968300,2.13396826171875,-0.19135166704654694,0.1930822879076004,0.5903054475784302
1761340587361036300,2.144036376953125,-0.30473655462265015,0.5160208940505981,0.6213006377220154
1761340587371103200,2.154103271484375,-0.5329341888427734,1.1373634338378906,0.5868959426879883
1761340587381171500,2.16417138671875,-0.9174643158912659,1.7478220462799072,0.47714653611183167
1761340587391238400,2.17423828125,-1.3668146133422852,2.0318708419799805,0.315207302570343
1761340587401306400,2.184306396484375,-1.7146687507629395,1.756348967552185,0.02961311861872673
1761340587411373300,2.194373291015625,-2.1017675399780273,0.9105241298675537,-0.533503532409668
1761340587421441300,2.204441162109375,-2.550522565841675,-0.007869642227888107,-1.1119465827941895
1761340587431508200,2.21450830078125,-2.813793420791626,-0.26516246795654297,-1.369597315788269
1761340587441576400,2.224576416015625,-2.726482391357422,0.20474031567573547,-1.2015310525894165
1761340587451643400,2.234643310546875,-2.2395334243774414,0.8641320466995239,-0.8044958710670471
1761340587461711400,2.24471142578125,-1.4738630056381226,1.1873983144760132,-0.322555273771286
1761340587471778300,2.2547783203125,-0.7609338164329529,0.9485424160957336,0.0703340545296669
1761340587481846300,2.26484619140625,-0.30185967683792114,0.22856345772743225,0.21307949721813202
1761340587491913200,2.274913330078125,0.040508415549993515,-0.6964178681373596,0.11954347044229507
1761340587501981400,2.2849814453125,0.2091272622346878,-1.494295597076416,-0.08674418926239014
1761340587512048400,2.29504833984375,0.23603755235671997,-1.9262398481369019,-0.30574920773506165
1761340587522116600,2.30511669921875,0.10525370389223099,-2.1036863327026367,-0.624062180519104
1761340587532183600,2.31518359375,-0.17226570844650269,-2.001021385192871,-0.840046763420105
1761340587542251500,2.32525146484375,-0.3829585015773773,-1.3062477111816406,-0.7320560812950134
1761340587552318500,2.335318359375,-0.4663035273551941,-0.32422053813934326,-0.5341182947158813
1761340587562386400,2.345386474609375,-0.4805189371109009,0.5985133647918701,-0.37417927384376526
1761340587572453400,2.355453369140625,-0.4992218315601349,1.1110272407531738,-0.2697327733039856
1761340587582521600,2.365521484375,-0.5836842656135559,1.1607881784439087,-0.16826660931110382
1761340587592588500,2.375588623046875,-0.6461045145988464,0.9183155298233032,-0.08543004095554352
1761340587602656500,2.385656494140625,-0.6218756437301636,0.5339564085006714,-0.09876421838998795
1761340587612723700,2.3957236328125,-0.5679895281791687,0.17968109250068665,-0.21924269199371338
1761340587622791400,2.40579150390625,-0.48171159625053406,-0.02756156399846077,-0.3812779486179352
1761340587632858600,2.415858642578125,-0.3552928864955902,-0.07051306962966919,-0.510193407535553
1761340587642926300,2.42592626953125,-0.2746174931526184,0.1259656399488449,-0.4957377314567566
1761340587652994600,2.43599462890625,-0.1745367795228958,0.3728005588054657,-0.3337569236755371
1761340587663061500,2.4460615234375,0.010903120040893555,0.5343236327171326,-0.14013603329658508
1761340587673128700,2.456128662109375,0.18652018904685974,0.5920242071151733,0.03368822857737541
1761340587683196700,2.46619677734375,0.3554287850856781,0.5488551259040833,0.19348907470703125
1761340587693264400,2.476264404296875,0.5389534831047058,0.4531690180301666,0.2548939883708954
1761340587703331600,2.48633154296875,0.696657121181488,0.21501211822032928,0.21986277401447296
1761340587713399600,2.496399658203125,0.8273265361785889,-0.17084869742393494,0.14761292934417725
1761340587723466800,2.506466796875,0.9079268574714661,-0.5834953784942627,0.10574351251125336
1761340587733534500,2.516534423828125,0.9945060610771179,-0.9274691343307495,0.19882257282733917
1761340587743601700,2.5266015625,1.0540833473205566,-1.2068506479263306,0.3778807520866394
1761340587753669400,2.53666943359375,1.0441937446594238,-1.3799409866333008,0.512202262878418
1761340587763736600,2.546736572265625,1.0165621042251587,-1.3133970499038696,0.5553385615348816
1761340587773804500,2.556804443359375,1.061012625694275,-1.057888388633728,0.5358089208602905
1761340587783871700,2.566871826171875,1.180479645729065,-0.7671238780021667,0.4880504608154297
1761340587793939700,2.576939697265625,1.3027024269104004,-0.5750114321708679,0.44100135564804077
1761340587804006700,2.587006591796875,1.3562679290771484,-0.40939000248908997,0.4246005415916443
1761340587814074600,2.59707470703125,1.315897822380066,-0.2599579095840454,0.43714603781700134
1761340587824141600,2.6071416015625,1.2028427124023438,-0.2338714301586151,0.4334237277507782
1761340587834209500,2.61720947265625,1.0621846914291382,-0.30485302209854126,0.39881232380867004
1761340587844276700,2.62727685546875,0.9582026600837708,-0.30776944756507874,0.3711599111557007
1761340587854344700,2.6373447265625,0.9294235706329346,-0.30953449010849,0.38770145177841187
1761340587864411600,2.64741162109375,1.0001366138458252,-0.1850375533103943,0.5299350023269653
1761340587874479600,2.657479736328125,1.1252119541168213,0.08018533140420914,0.7303389310836792
1761340587884546600,2.667546630859375,1.2250213623046875,0.5653171539306641,0.7797669172286987
1761340587894614500,2.677614501953125,1.2387243509292603,1.2993687391281128,0.44999459385871887
1761340587904681500,2.687681396484375,1.2115230560302734,1.9176298379898071,-0.21252982318401337
1761340587914749700,2.697749755859375,1.2289553880691528,1.9719873666763306,-0.9997279644012451
1761340587924816600,2.707816650390625,1.3241956233978271,1.4658255577087402,-1.6390138864517212
1761340587934884600,2.717884521484375,1.1486310958862305,0.8836470246315002,-2.1075944900512695
1761340587944951600,2.72795166015625,0.6621671915054321,0.501334547996521,-2.2855381965637207
1761340587955019500,2.73801953125,0.04592639580368996,-0.03964454308152199,-1.9302144050598145
1761340587965086500,2.74808642578125,-0.5876582264900208,-0.6007110476493835,-0.856360912322998
1761340587975154700,2.75815478515625,-0.7274560928344727,-0.9232251644134521,0.46608027815818787
1761340587985221600,2.7682216796875,-0.4976916015148163,-1.0639947652816772,1.1502710580825806
1761340587995289600,2.77828955078125,-0.4328223764896393,-0.8758681416511536,1.1694087982177734
1761340588005356500,2.7883564453125,-0.47848600149154663,-0.5326266288757324,0.8438745737075806
1761340588015424500,2.798424560546875,-0.6939837336540222,-0.18082161247730255,0.4802001416683197
1761340588025491500,2.808491455078125,-0.9373911023139954,0.20886223018169403,0.2129324972629547
1761340588035559700,2.8185595703125,-1.0688443183898926,0.702053964138031,-0.06159191578626633
1761340588045626600,2.828626708984375,-1.0567810535430908,1.1348408460617065,-0.30510205030441284
1761340588055694600,2.838694580078125,-0.9989607334136963,1.2590787410736084,-0.41857433319091797
1761340588065761500,2.848761474609375,-0.9167343378067017,1.0783566236495972,-0.40701034665107727
1761340588075829500,2.85882958984375,-0.77387934923172,0.6948578953742981,-0.30229857563972473
1761340588085896400,2.868896484375,-0.5701925158500671,0.252988338470459,-0.15003499388694763
1761340588095964700,2.878964599609375,-0.37459421157836914,-0.09682144969701767,-0.026116546243429184
1761340588106031600,2.889031494140625,-0.2805662453174591,0.034619394689798355,-0.13296577334403992
1761340588116099600,2.899099609375,-0.30456429719924927,0.44175052642822266,-0.3312617838382721
1761340588126166500,2.90916650390625,-0.4611866772174835,0.6605632901191711,-0.29218441247940063
1761340588136234500,2.919234375,-0.6660701632499695,0.6164689064025879,-0.020772498100996017
1761340588146301400,2.929301513671875,-0.7544423937797546,0.4391772747039795,0.3528367877006531
1761340588156369400,2.939369384765625,-0.6205669045448303,0.27822282910346985,0.7017809748649597
1761340588166436600,2.9494365234375,-0.34280768036842346,0.1945183277130127,0.9062169790267944
1761340588176504600,2.959504638671875,0.0010019103065133095,0.14509162306785583,0.9199726581573486
1761340588186571500,2.969571533203125,0.3813308775424957,0.07009860873222351,0.8074849843978882
1761340588196639500,2.979639404296875,0.7056389451026917,-0.0800342708826065,0.6628589630126953
1761340588206706400,2.98970654296875,0.9170739650726318,-0.28656187653541565,0.5036810040473938
1761340588216774400,2.9997744140625,0.987632155418396,-0.4871453642845154,0.37630072236061096
1761340588226841300,3.00984130859375,1.0085182189941406,-0.548372745513916,0.28529492020606995
1761340588236909600,3.01990966796875,1.0701813697814941,-0.47121310234069824,0.23666581511497498
1761340588246976500,3.0299765625,1.1456685066223145,-0.3048180043697357,0.20186735689640045
1761340588257044500,3.04004443359375,1.2400106191635132,-0.10078443586826324,0.15793386101722717
1761340588267111400,3.050111328125,1.2961130142211914,-0.0054722982458770275,0.13093392550945282
1761340588277179400,3.060179443359375,1.3335676193237305,-0.04576301574707031,0.11485805362462997
1761340588287247600,3.07024755859375,1.3387442827224731,-0.1497778296470642,0.09207870066165924
1761340588297314600,3.080314453125,1.3165874481201172,-0.2829911410808563,0.014804414473474026
1761340588307381500,3.090381591796875,1.3180644512176514,-0.37236228585243225,-0.09662090986967087
1761340588317449500,3.100449462890625,1.321794033050537,-0.3600846529006958,-0.14054721593856812
1761340588327517400,3.110517333984375,1.2933852672576904,-0.3713120222091675,-0.0672474354505539
1761340588337584400,3.12058447265625,1.2000054121017456,-0.5070229768753052,0.14455287158489227
1761340588347652600,3.130652587890625,0.9809654355049133,-0.6953555941581726,0.41206127405166626
1761340588357719600,3.140719482421875,0.7352795004844666,-0.759238064289093,0.6039003133773804
1761340588367787500,3.15078759765625,0.5998460650444031,-0.7118305563926697,0.604676365852356
1761340588377854500,3.1608544921875,0.6184587478637695,-0.41160932183265686,0.3383442163467407
1761340588387922400,3.17092236328125,0.7720850706100464,0.20071211457252502,-0.1550559252500534
1761340588397989600,3.18098974609375,0.9776352047920227,1.0845727920532227,-0.7670544385910034
1761340588408057300,3.191057373046875,1.1740347146987915,1.6176031827926636,-1.1411484479904175
1761340588418124800,3.201124755859375,1.1301462650299072,1.1912916898727417,-1.2289515733718872
1761340588428192500,3.211192626953125,0.9334502220153809,-0.10683026909828186,-1.0625535249710083
1761340588438259700,3.221259765625,0.8334550857543945,-1.7211666107177734,-0.8167128562927246
1761340588448327400,3.231327392578125,0.8008233904838562,-2.7990458011627197,-0.6137669086456299
1761340588458394600,3.24139453125,0.7308281660079956,-3.1712398529052734,-0.48800063133239746
1761340588468462600,3.251462646484375,0.6661936044692993,-3.0489234924316406,-0.4101543128490448
1761340588478529500,3.261529541015625,0.9857556223869324,-2.0828726291656494,-0.44196397066116333
1761340588488597500,3.271597412109375,0.6719045042991638,-0.8142139315605164,-0.3669866621494293
1761340588498664700,3.281664794921875,-0.8405820727348328,-0.11961112171411514,-0.23413364589214325
1761340588508732700,3.291732666015625,-2.2965075969696045,0.39195069670677185,-0.12820881605148315
1761340588518799600,3.301799560546875,-2.8012630939483643,0.6213260293006897,-0.049796391278505325
1761340588528867600,3.31186767578125,-2.8804478645324707,0.840607225894928,-0.4050716757774353
1761340588538934500,3.3219345703125,-2.583385467529297,1.473219394683838,-1.0850416421890259
1761340588549002500,3.33200244140625,-2.1207072734832764,1.5229369401931763,-1.0870251655578613
1761340588559069400,3.3420693359375,-1.7627620697021484,1.0458239316940308,-0.4098213016986847
1761340588569137400,3.352137451171875,-1.45980966091156,0.5477839112281799,0.40498295426368713
1761340588579204400,3.362204345703125,-1.1876126527786255,0.1923164576292038,0.9986134767532349
1761340588589272600,3.3722724609375,-1.0507022142410278,0.12689751386642456,1.249036431312561
1761340588599339500,3.382339599609375,-1.0339665412902832,0.3600583076477051,1.1570184230804443
1761340588609407500,3.392407470703125,-1.0977321863174438,0.7652931213378906,0.8207250833511353
1761340588619474400,3.402474365234375,-1.1980078220367432,1.2056405544281006,0.4004453420639038
1761340588629542400,3.41254248046875,-1.3013001680374146,1.543171763420105,0.03952227905392647
1761340588639609300,3.422609375,-1.2997735738754272,1.7964410781860352,-0.16212451457977295
1761340588649677600,3.432677490234375,-1.1307299137115479,1.9651418924331665,-0.2279442697763443
1761340588659744500,3.44274462890625,-0.7930063009262085,2.0458028316497803,-0.20922337472438812
1761340588669812500,3.4528125,-0.3613851070404053,2.0771639347076416,-0.11722128838300705
1761340588679879400,3.46287939453125,0.09837647527456284,1.8965182304382324,0.014914956875145435
1761340588689947400,3.472947509765625,0.545699417591095,1.4287891387939453,0.16133634746074677
1761340588700014300,3.483014404296875,0.9858875870704651,0.8346245288848877,0.26544979214668274
1761340588710082600,3.49308251953125,1.3800050020217896,0.18715333938598633,0.321655809879303
1761340588720149500,3.5031494140625,1.5965336561203003,-0.4343135356903076,0.3480541706085205
1761340588730217500,3.513217529296875,1.6728179454803467,-0.9770665764808655,0.29226040840148926
1761340588740284400,3.523284423828125,1.6796015501022339,-1.3171467781066895,0.13859236240386963
1761340588750352400,3.533352294921875,1.6925820112228394,-1.3599534034729004,-0.07701023668050766
1761340588760419300,3.54341943359375,1.6588493585586548,-1.1241097450256348,-0.37757444381713867
1761340588770487600,3.553487548828125,1.3994070291519165,-0.7373147010803223,-0.6847705841064453
1761340588780554500,3.563554443359375,0.9805998802185059,-0.40227922797203064,-0.8673694729804993
1761340588790622500,3.57362255859375,0.558657169342041,-0.3439895510673523,-0.8248957991600037
1761340588800689400,3.583689453125,0.20685096085071564,-0.4005716145038605,-0.43138161301612854
1761340588810757400,3.59375732421875,0.0002408069558441639,-0.33390045166015625,0.08740510791540146
1761340588820824300,3.60382421875,-0.13225887715816498,-0.47989803552627563,0.36776214838027954
1761340588830892300,3.613892333984375,-0.13724404573440552,-0.5971556901931763,0.545405924320221
1761340588840959500,3.62395947265625,-0.004186189267784357,-0.6039826273918152,0.6827071905136108
1761340588851027500,3.63402734375,0.14504671096801758,-0.5950937867164612,0.6915622353553772
1761340588861094400,3.644094482421875,0.20360416173934937,-0.5754186511039734,0.6608690023422241
1761340588871162400,3.654162353515625,0.18531011044979095,-0.3897068500518799,0.6851357221603394
1761340588881229300,3.664229248046875,0.15922826528549194,0.032018523663282394,0.7105000019073486
1761340588891297300,3.67429736328125,0.15665031969547272,0.6792505383491516,0.7477414011955261
1761340588901364200,3.6843642578125,0.12809084355831146,1.3007525205612183,0.7909538149833679
1761340588911432400,3.694432373046875,0.10988734662532806,1.8406099081039429,0.8535988330841064
1761340588921499400,3.70449951171875,0.12056726217269897,2.069013833999634,0.7726058959960938
1761340588931567400,3.7145673828125,0.12879030406475067,1.8942193984985352,0.503527820110321
1761340588941634300,3.72463427734375,0.2014700323343277,1.1309841871261597,0.014023050665855408
1761340588951702300,3.734702392578125,0.3478008806705475,-0.03309755027294159,-0.43364766240119934
1761340588961769200,3.744769287109375,0.4530940651893616,-1.1671442985534668,-0.5574372410774231
1761340588971837400,3.75483740234375,0.5969893932342529,-2.0528640747070312,-0.4352940022945404
1761340588981904400,3.764904296875,0.826724112033844,-2.724367141723633,-0.21899813413619995
1761340588991972400,3.774972412109375,1.1779218912124634,-3.008286714553833,-0.017969686537981033
1761340589002039600,3.78503955078125,1.6085821390151978,-2.4482665061950684,-0.17119017243385315
1761340589012107300,3.795107177734375,0.9417260885238647,-0.2847929298877716,-1.690317153930664
1761340589022174500,3.805174560546875,-2.316897392272949,1.4140433073043823,-2.220289468765259
1761340589032242400,3.815242431640625,-4.299198627471924,1.7128572463989258,-1.1998146772384644
1761340589042309600,3.8253095703125,-3.5924479961395264,2.0645205974578857,0.24761487543582916
1761340589052377300,3.83537744140625,-2.677656650543213,1.984858751296997,0.8722555637359619
1761340589062444500,3.845444580078125,-2.241575241088867,1.581010103225708,0.9793206453323364
1761340589072512500,3.855512451171875,-1.7637418508529663,1.3425672054290771,0.8884578347206116
1761340589082579500,3.865579345703125,-1.4480581283569336,1.315882921218872,0.815740168094635
1761340589092647700,3.875647705078125,-1.3017946481704712,1.2119669914245605,0.7657755017280579
1761340589102714600,3.885714599609375,-1.1632529497146606,0.9478418231010437,0.7581549286842346
1761340589112782600,3.895782470703125,-0.9969837665557861,0.5829882025718689,0.7392467856407166
1761340589122849500,3.905849609375,-0.85406494140625,0.235409677028656,0.657120406627655
1761340589132917500,3.91591748046875,-0.6790878176689148,-0.07447201758623123,0.48407456278800964
1761340589142984400,3.925984375,-0.4999946653842926,-0.3534519374370575,0.22475995123386383
1761340589153052400,3.936052490234375,-0.3772956132888794,-0.3744887709617615,0.04273715242743492
1761340589163119400,3.946119384765625,-0.1585303395986557,-0.1869005709886551,-0.005112270824611187
1761340589173187600,3.9561875,0.19040873646736145,0.05355570837855339,0.03655394911766052
1761340589183254500,3.966254638671875,0.5799869894981384,0.2785049080848694,0.1437923014163971
1761340589193321500,3.976321533203125,0.9434447884559631,0.34203383326530457,0.2948553264141083
1761340589203389400,3.986389404296875,1.305306315422058,0.08051291853189468,0.5145861506462097
1761340589213456400,3.996456298828125,1.4725061655044556,-0.35838693380355835,0.7159075140953064
1761340589223523300,4.0065234375,1.1576573848724365,-0.6296074986457825,0.7175601720809937
1761340589233591300,4.01659130859375,0.5800561308860779,-0.6918671131134033,0.4604293406009674
1761340589243658500,4.026658447265625,-0.00038401689380407333,-0.5749916434288025,-0.0025988537818193436
1761340589253726500,4.0367265625,-0.30894824862480164,-0.3497861921787262,-0.47602689266204834
1761340589263793400,4.04679345703125,-0.3565886318683624,-0.32728269696235657,-0.7410956621170044
1761340589273861400,4.056861328125,-0.0989920049905777,-0.11406281590461731,-0.4960513114929199
1761340589283928300,4.06692822265625,0.2090083509683609,0.1611926555633545,-0.24401013553142548
1761340589293996300,4.076996337890625,0.3781140446662903,0.10596775263547897,0.030542585998773575
1761340589304063200,4.087063232421875,0.47710302472114563,-0.10958116501569748,0.32672736048698425
1761340589314131500,4.09713134765625,0.5377993583679199,-0.35033118724823,0.48976579308509827
1761340589324198400,4.107198486328125,0.5968258380889893,-0.5351026654243469,0.4416516423225403
1761340589334266400,4.117266357421875,0.6601811051368713,-0.627815306186676,0.25288304686546326
1761340589344333300,4.127333251953125,0.7224300503730774,-0.5857684016227722,0.05899042263627052
1761340589354401300,4.1374013671875,0.753763735294342,-0.48158103227615356,-0.09293252229690552
1761340589364468200,4.14746826171875,0.7284212112426758,-0.4250240921974182,-0.1832902431488037
1761340589374535400,4.157535400390625,0.6769551038742065,-0.377743124961853,-0.19007465243339539
1761340589384603400,4.167603271484375,0.7157201766967773,-0.31947433948516846,-0.08053845912218094
1761340589394670600,4.177670654296875,0.8217158913612366,-0.24723848700523376,0.11626141518354416
1761340589404738300,4.18773828125,0.9059116840362549,-0.14485998451709747,0.4189019799232483
1761340589414805500,4.197805419921875,0.9694065451622009,-0.08230526000261307,0.8121203780174255
1761340589424873500,4.20787353515625,0.9766526818275452,-0.16646133363246918,1.0276947021484375
1761340589434940400,4.2179404296875,0.9285656213760376,-0.22928689420223236,0.9648763537406921
1761340589445008600,4.228008544921875,0.8694324493408203,-0.1619383692741394,0.636287271976471
1761340589455075600,4.23807568359375,0.8170302510261536,-0.1820865124464035,0.024740057066082954
1761340589465143600,4.2481435546875,0.7415478825569153,-0.45177894830703735,-0.6006711721420288
1761340589475210500,4.25821044921875,0.6189857721328735,-0.9708764553070068,-1.0084642171859741
1761340589485278500,4.268278564453125,0.5872514843940735,-1.43414306640625,-1.1133592128753662
1761340589495345400,4.278345458984375,0.6398391127586365,-1.5806916952133179,-1.0034334659576416
1761340589505413600,4.28841357421875,0.7398595809936523,-1.3565713167190552,-0.650702714920044
1761340589515480600,4.29848046875,0.8750288486480713,-0.766910970211029,-0.23852795362472534
1761340589525549000,4.308549072265625,0.9811838865280151,-0.08427134156227112,-0.03278903290629387
1761340589535616000,4.318615966796875,1.0124720335006714,0.4149475395679474,-0.0006207097321748734
1761340589545684000,4.32868408203125,1.0404895544052124,0.5824912190437317,-0.15066491067409515
1761340589555751000,4.3387509765625,-0.4793919622898102,0.769266664981842,-0.7683843374252319
1761340589565819100,4.348819091796875,-2.9852168560028076,1.3754719495773315,-1.1015403270721436
1761340589575886000,4.358885986328125,-3.9867470264434814,1.3634791374206543,-0.6198785901069641
1761340589585954000,4.3689541015625,-3.634622812271118,0.9156663417816162,-0.2305583506822586
1761340589596021000,4.37902099609375,-2.5254950523376465,1.2945245504379272,-0.08371618390083313
1761340589606089000,4.3890888671875,-1.52329683303833,2.1692068576812744,0.22984465956687927
1761340589616157000,4.399156982421875,-0.9385496973991394,2.1832027435302734,0.8697260618209839
1761340589626225000,4.409224853515625,-0.7695686221122742,1.5144627094268799,1.575645089149475
1761340589636292000,4.4192919921875,-0.7702165842056274,0.7161319851875305,2.04909086227417
1761340589646359800,4.42935986328125,-0.8399584293365479,0.17883481085300446,2.086587905883789
1761340589656427000,4.439427001953125,-0.8585798144340515,0.044989120215177536,1.7205085754394531
1761340589666494700,4.44949462890625,-0.7761843800544739,0.2535344660282135,1.0572755336761475
1761340589676562000,4.45956201171875,-0.5731087327003479,0.6838467121124268,0.31416118144989014
1761340589686630000,4.4696298828125,-0.29663780331611633,1.0419726371765137,-0.24840334057807922
1761340589696697000,4.479697021484375,0.024043012410402298,1.1806063652038574,-0.4706135392189026
1761340589706765000,4.48976513671875,0.37322938442230225,1.0076684951782227,-0.39569199085235596
1761340589716832000,4.49983203125,0.7131803035736084,0.632633626461029,-0.1973048597574234
1761340589726900000,4.50989990234375,1.01737642288208,0.1847590059041977,-0.04903223365545273
1761340589736967000,4.519966796875,1.2439559698104858,-0.22697819769382477,-0.032874565571546555
1761340589747035100,4.53003515625,1.3722797632217407,-0.562958300113678,-0.12259402126073837
1761340589757102000,4.54010205078125,1.438225269317627,-0.7477452158927917,-0.3377193808555603
1761340589767170000,4.550170166015625,1.4474252462387085,-0.6527962684631348,-0.727810800075531
1761340589777237000,4.560237060546875,1.3400508165359497,-0.27109071612358093,-1.2022836208343506
1761340589787305000,4.570304931640625,1.112317442893982,0.2571812570095062,-1.6287767887115479
1761340589797372000,4.580371826171875,0.778110921382904,0.6153301000595093,-1.7474627494812012
1761340589807440100,4.590440185546875,0.38392919301986694,0.624701976776123,-1.5203150510787964
1761340589817507000,4.600507080078125,0.015313087031245232,0.35512834787368774,-0.9957072734832764
1761340589827575000,4.610574951171875,-0.23915891349315643,-0.09476104378700256,-0.30954092741012573
1761340589837642000,4.62064208984375,-0.24984563887119293,-0.4068441092967987,0.24587838351726532
1761340589847710000,4.6307099609375,-0.09891708940267563,-0.5605151057243347,0.5664898753166199
1761340589857777000,4.64077685546875,0.13676388561725616,-0.5335503220558167,0.712246835231781
1761340589867844900,4.650844970703125,0.4200460612773895,-0.4184552729129791,0.7005321979522705
1761340589877912000,4.660912109375,0.6362351179122925,-0.37881413102149963,0.6669728755950928
1761340589887980000,4.67097998046875,0.734646201133728,-0.46798214316368103,0.6697536110877991
1761340589898047000,4.681046875,0.7265885472297668,-0.6338328719139099,0.6879485845565796
1761340589908115000,4.691114990234375,0.6361562013626099,-0.73412024974823,0.7353847622871399
1761340589918182000,4.701181884765625,0.5427955985069275,-0.7561752200126648,0.7470936179161072
1761340589928249900,4.711249755859375,0.5146483778953552,-0.792402982711792,0.7408896088600159
1761340589938316800,4.72131689453125,0.4831967353820801,-0.7431504726409912,0.6846319437026978
1761340589948384000,4.731384033203125,0.4131741225719452,-0.47491270303726196,0.4869912564754486
1761340589958452000,4.741451904296875,0.36640819907188416,-0.034462619572877884,0.08210183680057526
1761340589968519000,4.751518798828125,0.4441210925579071,0.24645622074604034,-0.4366203546524048
1761340589978587000,4.7615869140625,0.553552508354187,-0.027431519702076912,-0.8706991076469421
1761340589988653800,4.77165380859375,0.5629388689994812,-0.7514547109603882,-0.9859741926193237
1761340589998721800,4.7817216796875,0.5751848816871643,-1.6117467880249023,-0.9835792183876038
1761340590008788700,4.791788818359375,0.7783288359642029,-2.2962450981140137,-1.1461881399154663
1761340590018857000,4.80185693359375,1.0911179780960083,-2.1482431888580322,-1.6468943357467651
1761340590028924000,4.811923828125,1.0730658769607544,-0.7096982002258301,-2.268887519836426
1761340590038992000,4.821991943359375,0.08640230447053909,0.9124683737754822,-1.9834908246994019
1761340590049058800,4.832058837890625,-1.1421629190444946,1.6739329099655151,-0.8185104727745056
1761340590059126800,4.842126708984375,-1.9699785709381104,1.386969804763794,0.4407487213611603
1761340590069193700,4.85219384765625,-2.1803388595581055,0.8212513327598572,1.2013808488845825
1761340590079262000,4.862261962890625,-2.106133460998535,0.1091950386762619,1.2993674278259277
1761340590089329000,4.872328857421875,-1.6961442232131958,-0.44304975867271423,0.9630139470100403
1761340590099396900,4.88239697265625,-1.2214888334274292,-0.7933494448661804,0.5160135626792908
1761340590109463800,4.8924638671875,-0.7111321687698364,-0.9918578863143921,0.1846722960472107
1761340590119531800,4.90253173828125,-0.28721654415130615,-1.080522894859314,0.1410933881998062
1761340590129599000,4.912598876953125,-0.06093287840485573,-1.2273026704788208,0.21336175501346588
1761340590139667000,4.9226669921875,-0.013785071671009064,-1.3354182243347168,0.28704288601875305
1761340590149734100,4.932734130859375,-0.11733394116163254,-1.2837899923324585,0.2582422196865082
1761340590159801900,4.9428017578125,-0.37607842683792114,-0.8893615007400513,0.0756862610578537
1761340590169869000,4.952869140625,-0.8187809586524963,0.03116084262728691,-0.30172911286354065
1761340590179936800,4.962936767578125,-1.3333444595336914,1.0845071077346802,-0.6829827427864075
1761340590190004000,4.97300390625,-1.7220871448516846,1.6930580139160156,-0.7771412134170532
1761340590200072000,4.983072021484375,-1.9077558517456055,1.9059910774230957,-0.596193253993988
1761340590210139100,4.99313916015625,-1.823158621788025,1.775246262550354,-0.30958646535873413
1761340590220206800,5.003206787109375,-1.524505376815796,1.3665834665298462,-0.06433381140232086
1761340590230274000,5.013274169921875,-1.1016042232513428,0.8651746511459351,0.09390033781528473
1761340590240342000,5.023342041015625,-0.6911025047302246,0.3407402038574219,0.10219235718250275
1761340590250409000,5.033408935546875,-0.38031837344169617,-0.09479834884405136,-0.06893596053123474
1761340590260477000,5.043476806640625,-0.18472035229206085,-0.3399748206138611,-0.3358196020126343
1761340590270544100,5.053544189453125,-0.06383946537971497,-0.3718957006931305,-0.59787917137146
1761340590280612000,5.063612060546875,0.02460651285946369,-0.2500819265842438,-0.8200445771217346
1761340590290679000,5.073678955078125,0.09207864850759506,-0.0517924427986145,-0.9712908267974854
1761340590300747000,5.0837470703125,0.17971156537532806,0.14565911889076233,-1.0308178663253784
1761340590310814000,5.09381396484375,0.26573437452316284,0.2288661152124405,-0.9471411108970642
1761340590320882000,5.1038818359375,0.3358266353607178,0.2513306736946106,-0.9161978363990784
1761340590330948900,5.113948974609375,0.40275517106056213,0.2872526943683624,-0.9735221862792969
1761340590341017000,5.12401708984375,0.4339620769023895,0.378029465675354,-1.029849648475647
1761340590351084000,5.134083984375,0.4412964880466461,0.4824367165565491,-1.0284686088562012
1761340590361151000,5.14415087890625,0.41325899958610535,0.4064711332321167,-0.9859917163848877
1761340590371219000,5.154218994140625,0.404725044965744,0.22389602661132812,-0.8659411668777466
1761340590381286000,5.164285888671875,0.4129196107387543,0.021345317363739014,-0.6772082448005676
1761340590391353900,5.174353759765625,0.4018261134624481,-0.24963991343975067,-0.4890826940536499
1761340590401420800,5.1844208984375,0.32594946026802063,-0.506357729434967,-0.2735706567764282
1761340590411489000,5.194489013671875,0.21573229134082794,-0.6433561444282532,-0.04043378308415413
1761340590421556000,5.204555908203125,0.11707735061645508,-0.7593051195144653,0.13928857445716858
1761340590431624000,5.2146240234375,0.04642936959862709,-0.7782890200614929,0.3625069558620453
1761340590441691000,5.22469091796875,0.07231688499450684,-0.7500240802764893,0.6100575923919678
1761340590451758800,5.2347587890625,0.1442982405424118,-0.5862147808074951,0.7276613712310791
1761340590461825800,5.24482568359375,0.1921832114458084,-0.33162856101989746,0.6389653086662292
1761340590471894000,5.25489404296875,0.30154743790626526,-0.03564995527267456,0.42293471097946167
1761340590481961000,5.2649609375,0.341274619102478,0.1549444943666458,-0.0038368403911590576
1761340590492029000,5.27502880859375,0.3082854151725769,-0.12437809258699417,-0.7229217290878296
1761340590502096000,5.285095947265625,0.2811070680618286,-0.9232392907142639,-1.491432785987854
1761340590512163800,5.295163818359375,0.33356592059135437,-1.9464664459228516,-2.256058931350708
1761340590522231000,5.30523095703125,0.4166887700557709,-2.15997576713562,-3.323782205581665
1761340590532299000,5.315299072265625,0.49852755665779114,-0.7446461915969849,-4.459909915924072
1761340590542366000,5.325365966796875,0.5781049132347107,1.0769176483154297,-4.060213088989258
1761340590552434200,5.33543408203125,0.24834533035755157,1.414989948272705,-2.385946035385132
1761340590562501000,5.345501220703125,-0.5162844061851501,1.0080839395523071,0.11589173227548599
1761340590572569000,5.355569091796875,-1.0190675258636475,0.6401900053024292,1.9493485689163208
1761340590582636000,5.365635986328125,-1.4556375741958618,0.12033642828464508,2.1114494800567627
1761340590592704000,5.3757041015625,-1.655102252960205,-0.3009767234325409,1.6175791025161743
1761340590602771000,5.38577099609375,-1.6709259748458862,-0.7367399334907532,1.0515100955963135
1761340590612839200,5.395839111328125,-1.569410800933838,-0.9553390741348267,0.603806734085083
1761340590622906000,5.405906005859375,-1.603933334350586,-0.6630827188491821,0.24938525259494781
1761340590632974000,5.41597412109375,-1.5927828550338745,-0.13528195023536682,-0.021663464605808258
1761340590643041000,5.426041015625,-1.386871576309204,0.367694616317749,-0.22639290988445282
1761340590653108200,5.436108154296875,-1.0544843673706055,0.6524531245231628,-0.26667648553848267
1761340590663176000,5.446176025390625,-0.7551631331443787,0.5664740800857544,-0.1992766559123993
1761340590673243100,5.4562431640625,-0.5134820938110352,0.3530272841453552,0.043428122997283936
1761340590683311000,5.46631103515625,-0.2945433259010315,0.07961972057819366,0.2949436902999878
1761340590693378300,5.47637841796875,-0.16007381677627563,-0.20340554416179657,0.5039973855018616
1761340590703446300,5.4864462890625,-0.021735122427344322,-0.2938302457332611,0.6478360295295715
1761340590713513200,5.49651318359375,0.21020157635211945,-0.17923995852470398,0.645068883895874
1761340590723581200,5.506581298828125,0.47832781076431274,0.04061729088425636,0.5324781537055969
1761340590733648100,5.516648193359375,0.6878921985626221,0.26535481214523315,0.4295214116573334
1761340590743716400,5.52671630859375,0.8015039563179016,0.3686857223510742,0.38497018814086914
1761340590753783300,5.536783203125,0.7855005860328674,0.3383547067642212,0.34769877791404724
1761340590763851300,5.546851318359375,0.716788113117218,0.23417715728282928,0.18315404653549194
1761340590773918200,5.556918212890625,0.5633528828620911,0.10730162262916565,-0.07640068233013153
1761340590783986200,5.566986083984375,0.38841649889945984,0.0766315907239914,-0.34824660420417786
1761340590794053000,5.57705322265625,0.2567625939846039,0.08589994162321091,-0.6339946389198303
1761340590804121300,5.587121337890625,0.1496363878250122,0.06491716206073761,-0.8871437907218933
1761340590814188300,5.597188232421875,0.08555412292480469,-0.02834203839302063,-1.066964030265808
1761340590824256300,5.60725634765625,0.11610271036624908,-0.10801023989915848,-1.0950462818145752
1761340590834323200,5.6173232421875,0.21338403224945068,-0.21414406597614288,-0.9637365341186523
1761340590844391200,5.62739111328125,0.3340499997138977,-0.2763086259365082,-0.7692104578018188
1761340590854458000,5.6374580078125,0.4602451026439667,-0.19750414788722992,-0.6154705882072449
1761340590864526000,5.647526123046875,0.5733321905136108,-0.013430452905595303,-0.5202873349189758
1761340590874593300,5.65759326171875,0.619985044002533,0.153145894408226,-0.4324885308742523
1761340590884661200,5.6676611328125,0.563800573348999,0.22005115449428558,-0.3620782792568207
1761340590894728200,5.677728271484375,0.4602556824684143,0.2124764770269394,-0.26417768001556396
1761340590904796200,5.687796142578125,0.38825446367263794,0.20216605067253113,-0.08939575403928757
1761340590914863000,5.697863037109375,0.3759242594242096,0.1693318635225296,0.04502132534980774
1761340590924930000,5.707929931640625,0.36273548007011414,0.08957977592945099,0.10622236877679825
1761340590934998000,5.717998046875,0.3379802405834198,0.017229784280061722,0.17206119000911713
1761340590945065200,5.728065185546875,0.252231240272522,-0.10488440841436386,0.30150651931762695
1761340590955133200,5.73813330078125,0.15959003567695618,-0.1076357290148735,0.4874134361743927
1761340590965200100,5.7482001953125,0.15509089827537537,0.11926106363534927,0.6265420317649841
1761340590975268000,5.75826806640625,0.1562090367078781,0.48116037249565125,0.6668297648429871
1761340590985335000,5.7683349609375,0.0907682478427887,0.6290590167045593,0.6070841550827026
1761340590995403000,5.778403076171875,0.12423352897167206,0.7759773135185242,0.5458873510360718
1761340591005470000,5.788469970703125,0.30825451016426086,0.7874600887298584,0.27605560421943665
1761340591015538200,5.7985380859375,0.5498076677322388,0.6740699410438538,-0.18010342121124268
1761340591025605000,5.808605224609375,0.7550588250160217,0.22361139953136444,-0.6849604845046997
1761340591035673000,5.818673095703125,1.0046201944351196,-0.44916200637817383,-1.0331695079803467
1761340591045740000,5.828739990234375,1.2710145711898804,-1.116026759147644,-1.0600916147232056
1761340591055808000,5.83880810546875,1.4463378190994263,-1.7932994365692139,-0.8834701180458069
1761340591065875000,5.848875,1.502397894859314,-1.8211134672164917,-0.8869295716285706
1761340591075943200,5.858943115234375,1.279300332069397,-0.35925060510635376,-1.48091459274292
1761340591086010000,5.869010009765625,0.40159645676612854,1.8019939661026,-2.3465733528137207
1761340591096078000,5.879078125,-0.9954585433006287,2.321118116378784,-1.7232866287231445
1761340591106145000,5.88914501953125,-2.0589239597320557,1.3215914964675903,0.09791954606771469
1761340591116213000,5.899212890625,-2.2314600944519043,0.03304293006658554,1.8038454055786133
1761340591126280200,5.9092802734375,-1.8348643779754639,-0.7460741996765137,2.3475868701934814
1761340591136348200,5.91934814453125,-1.4219459295272827,-0.7073171138763428,1.7742393016815186
1761340591146415400,5.929415283203125,-1.0236842632293701,-0.3514162600040436,0.7618037462234497
1761340591156482300,5.939482421875,-0.7990900278091431,-0.07479029148817062,-0.1080348938703537
1761340591166550300,5.94955029296875,-0.8101102113723755,0.03305281698703766,-0.5327672958374023
1761340591176617200,5.9596171875,-0.9016313552856445,0.0613458976149559,-0.5073654651641846
1761340591186685200,5.969685302734375,-0.9454662203788757,0.15050746500492096,-0.31222715973854065
1761340591196752100,5.979752197265625,-0.8578937649726868,0.37416237592697144,-0.244639053940773
1761340591206820400,5.9898203125,-0.6558002829551697,0.6619688868522644,-0.3218419849872589
1761340591216887300,5.99988720703125,-0.46528565883636475,0.8423983454704285,-0.28359097242355347
1761340591226955300,6.009955322265625,-0.36893782019615173,0.7298827171325684,0.019224822521209717
1761340591237022200,6.020022216796875,-0.2988012135028839,0.4508230984210968,0.5278424620628357
1761340591247090200,6.030090087890625,-0.18986725807189941,0.14759211242198944,0.9824802875518799
1761340591257157000,6.0401572265625,-0.039811305701732635,-0.12239360809326172,1.1845942735671997
1761340591267225000,6.05022509765625,0.0887831524014473,-0.29691267013549805,1.1120405197143555
1761340591277292300,6.060292236328125,0.17360912263393402,-0.312137633562088,0.8261271119117737
1761340591287360300,6.0703603515625,0.21030348539352417,-0.21042084693908691,0.4634615480899811
1761340591297427200,6.08042724609375,0.2672015428543091,-0.03101900964975357,0.16023139655590057
1761340591307495200,6.0904951171875,0.382945716381073,0.15530745685100555,-0.038583703339099884
1761340591317562000,6.10056201171875,0.4758799970149994,0.15672707557678223,-0.1529390811920166
1761340591327630000,6.110630126953125,0.5249066352844238,-0.011784980073571205,-0.19528786838054657
1761340591337697000,6.120697021484375,0.5203564763069153,-0.21106721460819244,-0.18512918055057526
1761340591347765200,6.13076513671875,0.4523606598377228,-0.3730926215648651,-0.1771218627691269
1761340591357832200,6.140832275390625,0.3661057651042938,-0.3970530331134796,-0.21571661531925201
1761340591367900200,6.150900146484375,0.30313000082969666,-0.3336136043071747,-0.33530133962631226
1761340591377967000,6.160967041015625,0.2662903070449829,-0.25126913189888,-0.46464771032333374
1761340591388034000,6.171033935546875,0.26427748799324036,-0.15059125423431396,-0.4972760081291199
1761340591398102000,6.18110205078125,0.2741152346134186,-0.09851329773664474,-0.4632553458213806
1761340591408169000,6.1911689453125,0.23990638554096222,-0.04267160966992378,-0.3493442237377167
1761340591418237200,6.2012373046875,0.21756291389465332,-0.07457350939512253,-0.27830278873443604
1761340591428304100,6.21130419921875,0.2361091673374176,-0.13369035720825195,-0.3153334856033325
1761340591438372000,6.2213720703125,0.26683104038238525,-0.22456209361553192,-0.428201824426651
1761340591448439000,6.23143896484375,0.25471261143684387,-0.3664720952510834,-0.4856067895889282
1761340591458507000,6.241507080078125,0.19596518576145172,-0.4507753551006317,-0.3433082699775696
1761340591468574000,6.251573974609375,0.202669158577919,-0.42996060848236084,0.0015191510319709778
1761340591478642200,6.26164208984375,0.25796836614608765,-0.3782941401004791,0.35715803503990173
1761340591488709000,6.271709228515625,0.35937434434890747,-0.29940199851989746,0.6239463686943054
1761340591498777000,6.281777099609375,0.37971794605255127,-0.265982061624527,0.7334664463996887
1761340591508844000,6.291843994140625,0.2789894640445709,-0.3749684691429138,0.7270349264144897
1761340591518912000,6.301912109375,0.15345396101474762,-0.37657785415649414,0.7819562554359436
1761340591528978400,6.311978515625,0.11040609329938889,-0.28618723154067993,0.8570842742919922
1761340591539046400,6.32204638671875,0.16625238955020905,-0.3441343307495117,0.7378729581832886
1761340591549113300,6.33211328125,0.2921333312988281,-0.49066147208213806,0.40112313628196716
1761340591559181600,6.342181640625,0.4720889925956726,-0.9273715019226074,-0.014058832079172134
1761340591569248500,6.35224853515625,0.5619198083877563,-1.5917837619781494,-0.2761429250240326
1761340591579315500,6.3623154296875,0.5092290639877319,-2.0030179023742676,-0.21952177584171295
1761340591589383400,6.372383544921875,0.5275848507881165,-1.9024546146392822,-0.06684461236000061
1761340591599450400,6.382450439453125,0.7400996088981628,-1.0928833484649658,-0.18845506012439728
1761340591609518300,6.392518310546875,1.2331982851028442,0.20103390514850616,-0.5752302408218384
1761340591619585300,6.402585205078125,1.2764724493026733,1.162950873374939,-0.7696123123168945
1761340591629653500,6.412653564453125,0.3217969536781311,0.9822356104850769,-0.33334124088287354
1761340591639720400,6.422720458984375,-0.9824125170707703,0.09897477924823761,0.6418331265449524
1761340591649788400,6.432788330078125,-1.8743128776550293,-0.7379497289657593,1.614445447921753
1761340591659855400,6.44285546875,-1.9419703483581543,-1.144350528717041,1.9047869443893433
1761340591669923300,6.45292333984375,-1.6707406044006348,-1.040399432182312,1.5419429540634155
1761340591679990300,6.462990234375,-1.3444502353668213,-0.8522070646286011,0.9235379695892334
1761340591690058500,6.47305859375,-1.1156319379806519,-0.7555217742919922,0.30691656470298767
1761340591700125400,6.48312548828125,-1.0921120643615723,-1.215545892715454,0.09932433068752289
1761340591710193400,6.493193359375,-1.2102216482162476,-1.7448347806930542,0.0313924215734005
1761340591720260400,6.50326025390625,-1.3732690811157227,-2.095947027206421,-0.14278770983219147
1761340591730328300,6.513328369140625,-1.524021029472351,-2.0505893230438232,-0.5693438053131104
1761340591740395300,6.523395263671875,-1.610840916633606,-1.5507543087005615,-1.095353126525879
1761340591750463500,6.53346337890625,-1.5000158548355103,-0.9786021709442139,-1.4592722654342651
1761340591760530400,6.543530517578125,-1.397940754890442,-0.482022225856781,-1.5673071146011353
1761340591770598400,6.553598388671875,-1.3445318937301636,0.13737870752811432,-1.3764252662658691
1761340591780665300,6.563665283203125,-1.1594350337982178,0.6691473126411438,-0.9721214175224304
1761340591790732300,6.573732177734375,-0.7938944101333618,1.2519683837890625,-0.43686819076538086
1761340591800800300,6.58380029296875,-0.27389517426490784,1.7805464267730713,0.13867634534835815
1761340591810867200,6.5938671875,0.19784359633922577,2.109123468399048,0.5788534879684448
1761340591820935400,6.603935302734375,0.48243504762649536,2.1736416816711426,0.7976259589195251
1761340591831002400,6.61400244140625,0.5196242332458496,1.9927852153778076,0.8381709456443787
1761340591841070300,6.6240703125,0.3652164936065674,1.5304598808288574,0.7191645503044128
1761340591851137300,6.63413720703125,0.27596917748451233,1.0832054615020752,0.482487291097641
1761340591861205200,6.644205322265625,0.2935378849506378,0.8470402359962463,0.20275098085403442
1761340591871272400,6.6542724609375,0.324571430683136,0.8764753937721252,-0.004280770197510719
1761340591881340400,6.66434033203125,0.32277196645736694,1.0713472366333008,-0.09173332899808884
1761340591891407600,6.67440771484375,0.3420700132846832,1.2655916213989258,-0.056585997343063354
1761340591901475300,6.684475341796875,0.4013655185699463,1.3765429258346558,0.06106284260749817
1761340591911542500,6.69454248046875,0.45323482155799866,1.37493896484375,0.1869664490222931
1761340591921610200,6.7046103515625,0.5402326583862305,1.2307558059692383,0.29089391231536865
1761340591931677400,6.714677490234375,0.6427180171012878,0.9551759958267212,0.34857746958732605
1761340591941745400,6.724745361328125,0.688712477684021,0.508870542049408,0.3468667268753052
1761340591951812600,6.7348125,0.6846569776535034,-0.04569734260439873,0.29882651567459106
1761340591961880300,6.74488037109375,0.6759765148162842,-0.6378360986709595,0.27151522040367126
1761340591971947500,6.754947509765625,0.7409869432449341,-0.9032509922981262,0.3427068293094635
1761340591982014500,6.765014404296875,0.8593941330909729,-0.7574388980865479,0.4346100986003876
1761340591992082400,6.77508251953125,0.9756563305854797,-0.43250560760498047,0.3804536461830139
1761340592002149400,6.7851494140625,1.005336880683899,0.004754966124892235,0.16303996741771698
1761340592012217300,6.79521728515625,0.8891990780830383,0.24370601773262024,0.012484540231525898
1761340592022284500,6.805284423828125,0.6634836792945862,0.3269103765487671,0.077974334359169
1761340592032352500,6.8153525390625,0.39172667264938354,0.4689844250679016,0.2776173949241638
1761340592042419500,6.82541943359375,0.23730690777301788,0.6655395030975342,0.44857484102249146
1761340592052487400,6.8354873046875,0.0987362340092659,0.6457769870758057,0.5864264965057373
1761340592062554400,6.845554443359375,-0.21773211658000946,0.31450989842414856,0.6830823421478271
1761340592072622300,6.855622314453125,-0.5537705421447754,-0.1398991495370865,0.740547239780426
1761340592082689300,6.865689208984375,-0.6187894940376282,-0.38017141819000244,0.8184556365013123
1761340592092757500,6.875757568359375,-0.24045154452323914,-0.2391173541545868,0.8663898706436157
1761340592102824400,6.885824462890625,0.22385327517986298,0.30831459164619446,0.7468512058258057
1761340592112892400,6.895892333984375,0.6339870095252991,0.7688784599304199,0.2573230564594269
1761340592122959400,6.90595947265625,0.9083847999572754,0.6460355520248413,-0.5061686635017395
1761340592133027300,6.91602734375,0.817112147808075,-0.3073308765888214,-1.031773328781128
1761340592143094300,6.92609423828125,0.4520268738269806,-1.521449089050293,-1.1202616691589355
1761340592153162500,6.93616259765625,0.10464891791343689,-2.455770492553711,-0.8184845447540283
1761340592163229400,6.9462294921875,0.106260284781456,-2.553304433822632,-0.30537283420562744
1761340592173297400,6.95629736328125,0.6641470193862915,-1.8147153854370117,-0.011718831025063992
1761340592183364400,6.9663642578125,1.0494341850280762,-0.22486305236816406,-0.4101247787475586
1761340592193432300,6.976432373046875,0.1454801708459854,0.7054744362831116,-0.4015882909297943
1761340592203499300,6.986499267578125,-1.3548240661621094,0.5084715485572815,0.16111351549625397
1761340592213566200,6.996566162109375,-2.7295687198638916,0.030276190489530563,0.838553249835968
1761340592223634400,7.006634521484375,-3.366377115249634,-0.4108157753944397,1.1464608907699585
1761340592233701400,7.016701416015625,-2.7544541358947754,-0.45967841148376465,0.7434401512145996
1761340592243769300,7.026769287109375,-1.8097058534622192,0.08824044466018677,-0.21946421265602112
1761340592253836300,7.036836181640625,-1.4301021099090576,0.38187044858932495,-1.0154646635055542
1761340592263904300,7.046904296875,-1.2097995281219482,-0.06750983744859695,-1.170163869857788
1761340592273971200,7.05697119140625,-0.9330834746360779,-0.6783705949783325,-0.8649904131889343
1761340592284039400,7.067039306640625,-0.621574342250824,-1.0947836637496948,-0.44485393166542053
1761340592294106400,7.0771064453125,-0.36825236678123474,-1.2843586206436157,-0.16796374320983887
1761340592304174300,7.08717431640625,-0.25080370903015137,-1.1868021488189697,-0.10125072300434113
1761340592314241500,7.097241455078125,-0.17129984498023987,-0.5017858147621155,-0.6339226365089417
1761340592324309200,7.107309326171875,-0.23381894826889038,1.025753378868103,-1.6745820045471191
1761340592334376400,7.11737646484375,-0.588158369064331,2.2425594329833984,-2.189113140106201
1761340592344444200,7.127444091796875,-0.9068524241447449,2.4633023738861084,-1.822496771812439
1761340592354511600,7.13751171875,-1.0440359115600586,1.8353699445724487,-0.8649223446846008
1761340592364579300,7.147579345703125,-0.9691869020462036,0.7596420049667358,0.20640186965465546
1761340592374646500,7.157646484375,-0.8228145241737366,-0.3739874064922333,0.9892990589141846
1761340592384713500,7.16771337890625,-0.5403055548667908,-1.0324068069458008,1.3069162368774414
1761340592394781400,7.177781494140625,-0.11119203269481659,-0.9902921319007874,1.1958951950073242
1761340592404848400,7.187848388671875,0.27108052372932434,-0.6043179035186768,0.8777896761894226
1761340592414916400,7.197916259765625,0.5066949129104614,-0.06738361716270447,0.5783640742301941
1761340592424983600,7.207983642578125,0.6149749755859375,0.39479124546051025,0.402284175157547
1761340592435051500,7.218051513671875,0.6293440461158752,0.71019047498703,0.35061031579971313
1761340592445118500,7.228118408203125,0.5991677641868591,0.8363054394721985,0.36887499690055847
1761340592455186400,7.2381865234375,0.5385822057723999,0.8586387038230896,0.3613712787628174
1761340592465253400,7.24825341796875,0.47459670901298523,0.7384160161018372,0.24543406069278717
1761340592475321300,7.2583212890625,0.4077844023704529,0.4527951776981354,0.049338310956954956
1761340592485388300,7.26838818359375,0.3267005980014801,0.1349838823080063,-0.09437708556652069
1761340592495456500,7.27845654296875,0.24041524529457092,-0.09843366593122482,-0.12655553221702576
1761340592505523500,7.2885234375,0.13935066759586334,-0.2927527129650116,-0.11818286776542664
1761340592515591400,7.29859130859375,0.03185082972049713,-0.4138317406177521,-0.07800482213497162
1761340592525659400,7.308659423828125,-0.056282684206962585,-0.46291452646255493,0.019500166177749634
1761340592535727400,7.318727294921875,-0.12283481657505035,-0.5329899787902832,0.13356894254684448
1761340592545794300,7.328794189453125,-0.1450335830450058,-0.5816107988357544,0.242620587348938
1761340592555861200,7.338861328125,-0.2772427797317505,-0.6128025054931641,0.2819509506225586
1761340592565929200,7.34892919921875,-0.4737706482410431,-0.49219706654548645,0.3191961348056793
1761340592575996200,7.35899609375,-0.7162919044494629,-0.22099538147449493,0.3819204866886139
1761340592586064400,7.369064453125,-1.0963184833526611,0.07439769804477692,0.4343049228191376
1761340592596131300,7.37913134765625,-1.4415719509124756,0.05787384510040283,0.40856626629829407
1761340592606199300,7.38919921875,-1.721804141998291,-0.17796455323696136,0.38246583938598633
1761340592616266200,7.399266357421875,-2.102036952972412,-0.21459126472473145,0.4929462969303131
1761340592626334200,7.409334228515625,-2.3665084838867188,-0.24350431561470032,0.6582909822463989
1761340592636401200,7.419401123046875,-2.455461263656616,-0.3037652373313904,0.9387559294700623
1761340592646469400,7.429469482421875,-2.4168694019317627,-0.31651920080184937,1.2686054706573486
1761340592656536300,7.439536376953125,-2.232009172439575,-0.27939072251319885,1.606011986732483
1761340592666604300,7.449604248046875,-1.6866708993911743,0.9652383327484131,1.4211740493774414
1761340592676671200,7.459671142578125,-1.0257585048675537,0.2914799153804779,1.351882815361023
1761340592686739200,7.4697392578125,-0.14095234870910645,-1.3767887353897095,0.9368249773979187
1761340592696806100,7.47980615234375,0.667074978351593,-2.441920280456543,0.7600366473197937
1761340592706874400,7.489874267578125,1.0190880298614502,-2.4213614463806152,0.6371889114379883
1761340592716941300,7.49994140625,1.0716450214385986,-2.0561656951904297,0.45511123538017273
1761340592727008300,7.51000830078125,1.1642038822174072,-1.7189403772354126,0.21495437622070312
1761340592737076200,7.520076171875,1.2535324096679688,-1.5607608556747437,0.02879941835999489
1761340592747143200,7.53014306640625,1.0695445537567139,-1.3890562057495117,-0.14541028439998627
1761340592757211100,7.540211181640625,0.86934894323349,-0.9605509042739868,-0.5511654615402222
1761340592767278000,7.550278076171875,0.4872397184371948,-0.02304322086274624,-0.7792041897773743
1761340592777346300,7.56034619140625,-0.8708006739616394,0.6936872005462646,-1.0383938550949097
1761340592787413200,7.570413330078125,-2.511495351791382,1.0603413581848145,-1.3093650341033936
1761340592797481200,7.580481201171875,-3.245065450668335,1.7173559665679932,-1.5336825847625732
1761340592807548200,7.590548095703125,-2.910520076751709,2.3982605934143066,-1.609410047531128
1761340592817616100,7.6006162109375,-1.8674750328063965,2.4549684524536133,-1.6835849285125732
1761340592827683300,7.610683349609375,-0.7652064561843872,2.1887402534484863,-1.8258670568466187
1761340592837751000,7.6207509765625,0.050696056336164474,1.9729177951812744,-2.003877639770508
1761340592847818500,7.630818603515625,0.45913830399513245,1.7600353956222534,-2.121640920639038
1761340592857886200,7.64088623046875,0.29422420263290405,1.2405099868774414,-2.05692982673645
1761340592867953400,7.650953369140625,-0.2340286672115326,0.6040868163108826,-1.7024619579315186
1761340592878021000,7.661021240234375,-0.8924872875213623,0.6073955297470093,-0.9509828090667725
1761340592888088300,7.67108837890625,-1.3898791074752808,1.0005123615264893,-0.059824395924806595
1761340592898155300,7.6811552734375,-1.218137264251709,0.6421766877174377,0.39783796668052673
1761340592908223200,7.69122314453125,-0.5261059999465942,0.32735583186149597,0.6149253845214844
1761340592918290400,7.70129052734375,0.17629797756671906,0.2105700969696045,0.6900409460067749
1761340592928358400,7.7113583984375,0.4444310665130615,0.12595832347869873,0.6501508951187134
1761340592938425300,7.72142529296875,0.16705244779586792,-0.023927316069602966,0.5050429701805115
1761340592948493300,7.731493408203125,-0.15429998934268951,-0.15391859412193298,0.3915788233280182
1761340592958560300,7.741560302734375,-0.1666456013917923,-0.13240930438041687,0.289086252450943
1761340592968628200,7.751628173828125,-0.08378555625677109,0.03754674643278122,0.10282053053379059
1761340592978695200,7.761695068359375,-0.0790746882557869,0.348847895860672,-0.054006900638341904
1761340592988763400,7.771763427734375,-0.07541339099407196,0.6879929900169373,-0.07596534490585327
1761340592998830300,7.781830322265625,-0.04563791677355766,0.8495709300041199,0.015334741212427616
1761340593008898300,7.791898193359375,0.012569066137075424,0.9260454773902893,0.1742805391550064
1761340593018965200,7.80196533203125,0.1633170247077942,1.050641655921936,0.35631370544433594
1761340593029033200,7.812033203125,0.3617127239704132,1.230015516281128,0.5474763512611389
1761340593039100200,7.82210009765625,0.5653289556503296,1.2367557287216187,0.7436575889587402
1761340593049168400,7.83216845703125,0.7810661196708679,1.081650733947754,0.8649885654449463
1761340593059235300,7.8422353515625,1.024405598640442,0.7246900200843811,0.8529332876205444
1761340593069302300,7.85230224609375,1.2419899702072144,0.31088244915008545,0.7402518391609192
1761340593079370200,7.862370361328125,1.3921291828155518,-0.08102036267518997,0.5910791158676147
1761340593089437200,7.872437255859375,1.5109083652496338,-0.36044660210609436,0.4214959144592285
1761340593099505200,7.882505126953125,1.6264668703079224,-0.5832533240318298,0.27480581402778625
1761340593109572000,7.892572021484375,1.647339105606079,-0.7210813760757446,0.18862882256507874
1761340593119640300,7.902640380859375,1.521140217781067,-0.5961822867393494,0.1295681744813919
1761340593129707300,7.912707275390625,1.282897710800171,-0.3873502314090729,0.061549849808216095
1761340593139775200,7.922775146484375,0.962591290473938,-0.22242599725723267,-0.010541386902332306
1761340593149842200,7.93284228515625,0.6419005393981934,-0.12830384075641632,-0.0059383828192949295
1761340593159910100,7.94291015625,0.377606064081192,0.017070669680833817,0.15005627274513245
1761340593169977000,7.95297705078125,0.1533023566007614,-0.09215342998504639,0.3336051404476166
1761340593180045300,7.96304541015625,-0.009203741326928139,-0.4143626093864441,0.4512433409690857
1761340593190112300,7.9731123046875,-0.26481080055236816,-0.8496252298355103,0.5059521794319153
1761340593200180200,7.98318017578125,-0.5756565928459167,-1.4878653287887573,0.4185391962528229
1761340593210247200,7.9932470703125,-0.7789250016212463,-2.3290810585021973,0.16974028944969177
1761340593220314400,8.003314453125,-0.9130833745002747,-3.193317413330078,-0.284895658493042
1761340593230381300,8.01338134765625,-0.8991562128067017,-3.794792652130127,-0.9171494245529175
1761340593240449300,8.02344921875,-0.8297781944274902,-3.9173214435577393,-1.4084980487823486
1761340593250516200,8.03351611328125,-0.8786962032318115,-3.6483428478240967,-1.441704511642456
1761340593260583200,8.043583251953125,-1.201349139213562,-3.0681087970733643,-1.0645231008529663
1761340593270651400,8.0536513671875,-1.2960422039031982,-2.072920560836792,-0.7385966777801514
1761340593280718300,8.06371826171875,-1.2500795125961304,-1.350720763206482,-0.20391513407230377
1761340593290786300,8.073786376953125,-0.9054950475692749,-0.944176435470581,0.13523763418197632
1761340593300853200,8.083853271484376,-0.5403815507888794,-0.7958067059516907,0.18377800285816193
1761340593310921200,8.093921142578125,-0.34494033455848694,-0.5031521320343018,0.0363675020635128
1761340593320988200,8.10398828125,-0.23911350965499878,-0.15071791410446167,-0.2160213440656662
1761340593331056400,8.114056396484376,-0.17139920592308044,0.02300083264708519,-0.5658758282661438
1761340593341123300,8.124123291015625,-0.08648352324962616,0.005945415236055851,-0.9658166170120239
1761340593351191300,8.13419140625,-0.00030762655660510063,-0.059204887598752975,-1.2910592555999756
1761340593361258200,8.14425830078125,0.02079020068049431,-0.2129363864660263,-1.3957734107971191
1761340593371326200,8.154326171875,-0.02317654900252819,-0.35151174664497375,-1.330201268196106
1761340593381393200,8.16439306640625,-0.125381737947464,-0.3691868782043457,-1.0091623067855835
1761340593391461400,8.17446142578125,-0.19042812287807465,-0.16689851880073547,-0.3878883421421051
1761340593401528300,8.1845283203125,-0.26474177837371826,0.1940639317035675,0.3858185410499573
1761340593411596300,8.19459619140625,-0.3831197917461395,0.48311296105384827,1.0657575130462646
1761340593421663200,8.204663330078125,-0.5189226269721985,0.6849683523178101,1.4995828866958618
1761340593431730200,8.214730224609376,-0.6355890035629272,0.6292228102684021,1.6386429071426392
1761340593441798100,8.224798095703125,-0.920575737953186,0.9904622435569763,0.7642164826393127
1761340593451865000,8.234864990234374,-1.1393235921859741,1.374394178390503,-0.9788652062416077
1761340593461933300,8.244933349609376,-1.1176201105117798,2.2425079345703125,-3.3693573474884033
1761340593472000300,8.255000244140625,-1.3488481044769287,2.7065494060516357,-5.004351615905762
1761340593482068200,8.265068115234374,-1.4413164854049683,2.6498608589172363,-5.255185127258301
1761340593492135200,8.27513525390625,-1.1796672344207764,2.6146416664123535,-4.576699733734131
1761340593502203100,8.285203125,-0.7925163507461548,2.408801317214966,-3.458393096923828
1761340593512270300,8.295270263671876,-0.5687970519065857,2.085371494293213,-2.2473974227905273
1761340593522338000,8.305338134765625,-0.48803991079330444,1.6764028072357178,-1.07985258102417
1761340593532404500,8.315404541015624,-0.506514847278595,1.4314841032028198,0.026215702295303345
1761340593542472400,8.325472412109375,-0.5865156650543213,1.2943605184555054,1.0077450275421143
1761340593552539400,8.335539306640625,-0.7167206406593323,1.1833298206329346,1.8196663856506348
1761340593562607400,8.345607421875,-0.876109778881073,1.0196552276611328,2.4012999534606934
1761340593572674300,8.35567431640625,-1.03070068359375,0.8054358959197998,2.7574875354766846
1761340593582742300,8.3657421875,-1.1049890518188477,0.3821437656879425,2.888608932495117
1761340593592809200,8.375809326171876,-1.0300443172454834,-0.2636158764362335,2.817592144012451
1761340593602876400,8.38587646484375,-0.8509829640388489,-0.7137897610664368,2.6215765476226807
1761340593612944400,8.3959443359375,-0.6743109822273254,-0.6643775701522827,2.3637571334838867
1761340593623011300,8.40601123046875,-0.4941132366657257,0.45518335700035095,1.7756375074386597
1761340593633079300,8.416079345703125,-0.2583200931549072,0.3734792470932007,1.5378577709197998
1761340593643146200,8.426146240234376,0.010577419772744179,0.4975929260253906,1.561811923980713
1761340593653214200,8.436214111328125,0.21049048006534576,0.9423819780349731,1.7510777711868286
1761340593663281200,8.44628125,0.38415417075157166,1.2986329793930054,1.9232149124145508
1761340593673349400,8.456349365234376,0.5034615397453308,1.254773497581482,2.0218048095703125
1761340593683416300,8.466416259765625,0.5832934975624084,0.8012069463729858,1.9886691570281982
1761340593693484300,8.476484375,0.6565296053886414,0.13231542706489563,1.873721957206726
1761340593703551200,8.48655126953125,0.7385770678520203,-0.4416937828063965,1.7581837177276611
1761340593713619200,8.496619140625,0.7965798377990723,-0.6247632503509521,1.7089874744415283
1761340593723686100,8.50668603515625,0.8052558898925781,-0.5499556064605713,1.6772255897521973
1761340593733754400,8.51675439453125,0.8210050463676453,-0.5704384446144104,1.641221046447754
1761340593743821300,8.5268212890625,0.8488659858703613,-0.7459570169448853,1.5803134441375732
1761340593753889300,8.53688916015625,0.8850047588348389,-0.9401546716690063,1.4754161834716797
1761340593763956200,8.546956298828125,0.9530165791511536,-1.0061323642730713,1.3217536211013794
1761340593774023200,8.557023193359376,1.1328296661376953,-0.9344632029533386,1.0992182493209839
1761340593784091100,8.567091064453125,1.3832371234893799,-0.9283589720726013,0.883645236492157
1761340593794158300,8.577158447265624,1.5680660009384155,-1.0411018133163452,0.683710515499115
1761340593804226300,8.587226318359376,1.6344479322433472,-1.0577069520950317,0.5221897959709167
1761340593814293500,8.59729345703125,1.5871379375457764,-1.0907636880874634,0.3542085886001587
1761340593824361200,8.607361328125,1.4289296865463257,-1.1897052526474,0.15116199851036072
1761340593834428400,8.617428466796875,1.1716238260269165,-1.1683545112609863,-0.0652264729142189
1761340593844496100,8.62749609375,0.8950177431106567,-1.00923490524292,-0.36220091581344604
1761340593854563300,8.637563232421876,0.7224352359771729,-0.7069909572601318,-0.7917750477790833
1761340593864631300,8.64763134765625,0.6559656858444214,-0.2802545726299286,-1.2394460439682007
1761340593874698500,8.657698486328124,0.6867599487304688,0.1390668749809265,-1.5328506231307983
1761340593884766500,8.667766357421876,0.7921351194381714,0.5477150678634644,-1.508526086807251
1761340593894833400,8.67783349609375,0.9212051033973694,0.7314233183860779,-1.2145695686340332
1761340593904901400,8.6879013671875,0.9022300839424133,0.5289508700370789,-0.7943013906478882
1761340593914968300,8.69796826171875,0.7299105525016785,0.36379438638687134,-0.32180866599082947
1761340593925036300,8.708036376953125,0.5405091643333435,0.35612422227859497,0.09714225679636002
1761340593935103500,8.718103515625,0.4092912971973419,0.43851250410079956,0.38859987258911133
1761340593945170400,8.72817041015625,0.3197646141052246,0.5149683952331543,0.5535648465156555
1761340593955238400,8.73823828125,0.2784762680530548,0.5644410848617554,0.6108047366142273
1761340593965305300,8.748305419921875,0.2853940725326538,0.6569419503211975,0.5622843503952026
1761340593975373300,8.758373291015625,0.3177187442779541,0.7495082020759583,0.360308974981308
1761340593985440300,8.768440185546876,0.3921956419944763,0.8394865393638611,0.12661631405353546
1761340593995508200,8.77850830078125,0.4383864104747772,0.8707173466682434,-0.06932010501623154
1761340594005575400,8.788575439453124,0.3880481421947479,0.8062893748283386,-0.26117342710494995
1761340594015643400,8.798643310546876,0.2583683729171753,0.7104017734527588,-0.3990993797779083
1761340594025710300,8.80871044921875,0.15090103447437286,0.5766162872314453,-0.4469233453273773
1761340594035778300,8.8187783203125,0.07989419996738434,0.47317424416542053,-0.39464882016181946
1761340594045845200,8.82884521484375,0.017958128824830055,0.45385032892227173,-0.2570669949054718
1761340594055913200,8.838913330078125,-0.04067591205239296,0.47340264916419983,-0.13459910452365875
1761340594065980200,8.848980224609376,-0.06300785392522812,0.46661531925201416,-0.12581999599933624
1761340594076048400,8.85904833984375,-0.04267921298742294,0.44909483194351196,-0.20232301950454712
1761340594086115300,8.869115234375,0.041681740432977676,0.4286534786224365,-0.32443320751190186
1761340594096183300,8.879183349609375,0.13368837535381317,0.42824751138687134,-0.4320373833179474
1761340594106250200,8.889250244140625,0.21655716001987457,0.4438728094100952,-0.4507996141910553
1761340594116317200,8.899317138671876,0.26854100823402405,0.3216603696346283,-0.3650190532207489
1761340594126385200,8.90938525390625,0.2703985571861267,0.0946945995092392,-0.2324298769235611
1761340594136452000,8.9194521484375,0.1917087435722351,-0.14904029667377472,-0.10223062336444855
1761340594146520300,8.929520263671876,0.02963196113705635,-0.3504064381122589,-0.0608978308737278
1761340594156587300,8.939587158203125,-0.13722866773605347,-0.4307750463485718,-0.10010994225740433
1761340594166655200,8.9496552734375,-0.24586620926856995,-0.3067079484462738,-0.176688089966774
1761340594176722200,8.95972216796875,-0.2514488101005554,0.032332368195056915,-0.2517373263835907
1761340594186790100,8.9697900390625,-0.1970023661851883,0.4346465468406677,-0.3414728045463562
1761340594196857000,8.979857177734376,-0.15257929265499115,0.8900213241577148,-0.42268916964530945
1761340594206925300,8.98992529296875,-0.13740727305412292,1.3231581449508667,-0.45571237802505493
1761340594216992300,8.9999921875,-0.13194546103477478,1.6752885580062866,-0.4767581820487976
1761340594227060200,9.010060302734376,-0.20041294395923615,1.954187273979187,-0.2697184681892395
1761340594237127400,9.02012744140625,-0.4465758800506592,1.584999918937683,-0.0673198401927948
1761340594247195100,9.030195068359374,-0.608364999294281,0.939234733581543,0.09415853023529053
1761340594257262300,9.040262451171875,-0.584796130657196,0.37326037883758545,0.20112445950508118
1761340594267330300,9.050330322265625,-0.46339884400367737,0.10680338740348816,0.2967798709869385
1761340594277397500,9.0603974609375,-0.25728845596313477,-0.019883040338754654,0.2571772038936615
1761340594287465200,9.07046533203125,-0.06124091520905495,0.004791945219039917,0.11084582656621933
1761340594297532400,9.080532470703124,-0.011451715603470802,0.12219827622175217,-0.013927539810538292
1761340594307599400,9.090599365234375,-0.007676685694605112,0.21156597137451172,-0.045231930911540985
