time,seconds_elapsed,z,y,x
1761338278691106800,0.07410693359375,-0.5304547839343547,-1.0913520524054765,0.9785443691972643
1761338278701172700,0.0841728515625,-0.48420858106613157,-1.000030663209781,0.9592297201354056
1761338278711239000,0.094239013671875,-0.22224282124340533,-0.8856224860023707,0.9227100345768033
1761338278721304000,0.104303955078125,0.18276655090153215,-0.8287883997548371,0.9096578069105744
1761338278731369700,0.11436962890625,0.4803437223315239,-0.8224315050087869,0.8542415515717119
1761338278741435000,0.124434814453125,0.6902969708442688,-0.862997031892091,0.7591502884484828
1761338278751500800,0.134500732421875,0.9053443276256322,-0.9854723418295382,0.6485020482964813
1761338278761567000,0.14456689453125,1.0518079775243998,-1.1563754364579915,0.49092904842756685
1761338278771631600,0.154631591796875,1.189079436185956,-1.3018303477056323,0.27772125509828327
1761338278781697800,0.16469775390625,1.3904875591933727,-1.416706142424792,0.0944530382849276
1761338278791763700,0.174763671875,1.5329951649427414,-1.5163473970025776,0.017446517102420327
1761338278801828900,0.184828857421875,1.4513333653002976,-1.6310095489710568,-0.04708046173527836
1761338278811894800,0.194894775390625,1.218126666972041,-1.7438593908205626,-0.10161825373917817
1761338278821959700,0.204959716796875,1.0564216087996958,-1.7327340395636857,-0.1404948046222329
1761338278832025900,0.21502587890625,0.8284183243334293,-1.7597288678646086,-0.07908245067372918
1761338278842091800,0.225091796875,0.6103256085067987,-1.767629411856085,-0.06390811628699303
1761338278852157000,0.235156982421875,0.4710656063765287,-1.8415435199812054,-0.06699219990745187
1761338278862222800,0.245222900390625,0.33271862743794917,-2.0564011994093656,-0.08445537588372826
1761338278872288500,0.25528857421875,0.04087912287712097,-2.2075766802608965,-0.20428367844372985
1761338278882354400,0.2653544921875,-0.3625356735527515,-2.3329547259025274,-0.2918498798243701
1761338278892420400,0.27542041015625,-0.6520850213497876,-2.484087682786584,-0.36756343858689067
1761338278902485200,0.2854853515625,-0.7684785271555185,-2.672793852870166,-0.4993605574905872
1761338278912551400,0.295551513671875,-0.7787374708414078,-2.8930706347376107,-0.6373667601674795
1761338278922617300,0.305617431640625,-0.7504232305049896,-3.0241096287503835,-0.732123019182682
1761338278932682500,0.3156826171875,-0.7720937950432301,-3.092961923441291,-0.7497801102958619
1761338278942748400,0.32574853515625,-1.054957381466031,-3.1705580810800194,-0.698948187072575
1761338278952813300,0.335813232421875,-1.5723983700484037,-3.14322496073544,-0.6289680573955178
1761338278962879500,0.34587939453125,-2.169789093658328,-2.934969163790345,-0.594792377679795
1761338278972945400,0.3559453125,-2.757571446445584,-2.7529715514346957,-0.6397248676009476
1761338278983010300,0.36601025390625,-3.2175784831911325,-2.5923072344869373,-0.7718078177087009
1761338278993076200,0.376076171875,-3.4818431676059958,-2.0086314402356744,-0.9483630928799509
1761338279003142400,0.386142333984375,-3.4264977124810216,-1.0224602294217795,-0.7733462793223559
1761338279013207600,0.39620751953125,-2.679685658210516,-0.22219752079695462,-0.155076141551882
1761338279023273500,0.4062734375,-1.2963538159906864,0.48750079101193694,0.5603618464201688
1761338279033338400,0.41633837890625,-0.07610124290585517,0.8690555282134562,0.865606045346707
1761338279043404300,0.426404296875,0.6230787070959806,0.9393957964397966,0.8242743563964963
1761338279053470500,0.436470458984375,0.8439011401474475,0.7607863652177155,0.5629058318145573
1761338279063535400,0.446535400390625,0.7281354108512401,0.6526510577347129,0.12027305065281689
1761338279073601500,0.4566015625,0.6089905605107545,0.7443764976866543,-0.3538594690136611
1761338279083666400,0.46666650390625,0.41309038726985453,0.5584830469362437,-0.6596683891508728
1761338279093732400,0.476732421875,-0.04314999041855335,0.1357623327402398,-0.8255980792809278
1761338279103798300,0.48679833984375,-0.43262277073562144,-0.058702510467916726,-1.002520799525082
1761338279113863400,0.496863525390625,-0.914457023885846,-0.00329524215310812,-0.9144608963433652
1761338279123929600,0.5069296875,-1.4321452652275561,0.22844313718825576,-0.5457434654157608
1761338279133995300,0.516995361328125,-1.8140531632483003,0.6198045077309012,-0.10168678893074393
1761338279144060400,0.527060302734375,-1.9032664011836051,1.1533062581457196,0.4066377039991319
1761338279154126300,0.537126220703125,-1.8196254104226826,1.6878133862107991,0.9861297828249632
1761338279164191500,0.54719140625,-1.563305547532439,1.85525201959908,1.4759128030225634
1761338279174257400,0.55725732421875,-1.1263117221057415,1.7130911814607679,1.6854536713421344
1761338279184323300,0.5673232421875,-0.428667895630002,1.503900734014064,1.4257199083551764
1761338279194388500,0.577388427734375,0.4420955324798822,1.156615017367527,0.9484235908955335
1761338279204454400,0.587454345703125,1.3291332190424203,0.7592445426031946,0.559896420865506
1761338279214520600,0.5975205078125,2.212261038684845,0.4522069574538618,0.34429756768122316
1761338279224585200,0.607585205078125,2.944718988910317,0.27409900948051363,0.23791655651964247
1761338279234651400,0.6176513671875,3.3388854800015686,0.1721890975846909,0.12726451697535812
1761338279244716300,0.62771630859375,3.416252797320485,0.1731760627954267,0.05751205857433379
1761338279254782500,0.637782470703125,3.285788096064329,0.1757277383059263,-0.01656710391938686
1761338279264848400,0.647848388671875,2.9972265902608632,0.06018489451278001,-0.10464724617153405
1761338279274913300,0.657913330078125,2.485017657113075,-0.09002988808043301,-0.1853754182256758
1761338279284979500,0.6679794921875,1.8341630543410776,-0.17516846045535056,-0.2714583953112364
1761338279295045400,0.67804541015625,1.0770528934180736,-0.2001924818736501,-0.32899346943497654
1761338279305110500,0.688110595703125,0.30205636267066,-0.16430583352157846,-0.274545182345435
1761338279315176400,0.698176513671875,-0.35491818428635596,-0.1239342035088688,-0.11143515274599194
1761338279325241300,0.708241455078125,-0.8171563410848378,-0.06721844641137868,0.1250339814443141
1761338279335307300,0.718307373046875,-1.0582798038870096,0.11395142814954742,0.3296189078569412
1761338279345373400,0.72837353515625,-1.0268266810029745,0.3698415395867079,0.6138002988800406
1761338279355438600,0.7384384765625,-0.8535399061083793,0.5329189090255647,0.9185262460861354
1761338279365504500,0.74850439453125,-0.713691290435195,0.6152867380455136,1.1079996742151677
1761338279375570200,0.758570068359375,-0.39638358261883255,0.6532706509377807,1.1216706913668661
1761338279385635300,0.76863525390625,-0.05034954653382301,0.5785398926675319,0.9722108553268015
1761338279395701500,0.778701416015625,0.2955360209912061,0.3954737012322992,0.7888271223749965
1761338279405766400,0.788766357421875,0.6166963125824928,0.14870308112232014,0.6976946798801422
1761338279415832600,0.79883251953125,0.843818138039112,-0.04873990111378953,0.6642386196758597
1761338279425898200,0.808898193359375,1.0259762016534806,-0.1923119394905865,0.6319190161556005
1761338279435963400,0.81896337890625,1.0960703130990266,-0.30942572239488364,0.6200815711066127
1761338279446029300,0.829029296875,1.0866542499780654,-0.30628702251035717,0.6000262597452849
1761338279456094500,0.839094482421875,1.006484150198102,-0.22512122622393071,0.5614366360448301
1761338279466160400,0.849160400390625,0.8844517617225647,-0.1852091948132962,0.5220902026277036
1761338279476226300,0.859226318359375,0.820641845113039,-0.23866258911397306,0.48328306371904906
1761338279486291500,0.86929150390625,0.7527730085015296,-0.3509570255704224,0.5162370926853269
1761338279496357400,0.879357421875,0.6001005670905113,-0.5203513596037402,0.5478869071852416
1761338279506423600,0.889423583984375,0.43683892712593075,-0.666490709451586,0.5751682973425835
1761338279516488200,0.89948828125,0.19218612115383146,-0.7582481519769877,0.5302873914781957
1761338279526554400,0.909554443359375,-0.06138824242055416,-0.8636904940489679,0.4389452517554164
1761338279536619500,0.91961962890625,-0.3186053464114666,-1.0132418808300048,0.3807503254834562
1761338279546685400,0.929685546875,-0.6069207684993744,-1.1922229218434541,0.3226303641438484
1761338279556751600,0.939751708984375,-0.8745540525645017,-1.6316913937553763,0.19211254446096718
1761338279566816300,0.949816162109375,-1.1154501363515854,-1.9778055093392728,-0.2310699785605073
1761338279576882400,0.95988232421875,-1.5764777483165264,-2.038597247171402,-0.7526522316660732
1761338279586948400,0.9699482421875,-2.126205387997627,-2.266650215998292,-1.0667593168102205
1761338279597013500,0.980013427734375,-2.4591262600094077,-2.619460906611383,-1.314719493764639
1761338279607079400,0.990079345703125,-2.4384587350338696,-2.9882831130877134,-1.7600071002840996
1761338279617144300,1.000144287109375,-2.1502765839368103,-3.3358979886233806,-2.3724641678616405
1761338279627210500,1.01021044921875,-1.8122294549524782,-3.3160657454282045,-2.8632798921078444
1761338279637276400,1.0202763671875,-1.542216582274437,-3.0257308002114294,-2.8894620888516305
1761338279647341600,1.030341552734375,-1.4365180734843015,-2.5884090580046175,-2.5140599194630977
1761338279657407500,1.040407470703125,-1.3200526714861391,-1.55113492500633,-1.6554101229950784
1761338279667472400,1.050472412109375,-0.9899480259388684,-0.7690402526915073,-0.7179998012840747
1761338279677538300,1.060538330078125,-0.6021031390845776,-0.95646836566329,-0.3276977305360138
1761338279687604500,1.0706044921875,-0.46691959261298177,-1.1130845762640238,-0.4566687591683119
1761338279697669600,1.080669677734375,-0.7452379368215799,-0.9257520326212048,-0.7324453099396079
1761338279707735300,1.0907353515625,-1.4688894802570343,-0.5373909033404662,-0.6322073315776884
1761338279717801200,1.10080126953125,-2.3758839131772516,-0.10202340047396719,-0.04053483948409557
1761338279727866400,1.110866455078125,-3.0782869168788194,0.3044481531780213,0.7876091979525983
1761338279737932500,1.1209326171875,-3.4520156000971793,0.9707279232926667,1.5800262345783411
1761338279747997400,1.13099755859375,-3.711400695776939,1.7426926851287483,2.222471028662473
1761338279758063400,1.1410634765625,-3.7064597322434185,2.3500213037766513,2.867917196519673
1761338279768129300,1.15112939453125,-3.1830887690901752,2.778677655099332,3.3062349640265105
1761338279778194400,1.1611943359375,-2.269083580625057,2.913253591066599,3.49106750754714
1761338279788260400,1.17126025390625,-1.2830600346535443,2.784205770871043,3.3592689273387193
1761338279798326500,1.181326416015625,-0.3159773359954357,2.4294419003635643,2.911414685201645
1761338279808391400,1.191391357421875,0.49465749436616896,2.077976486879587,2.297218665002286
1761338279818457300,1.201457275390625,1.1710785000711679,1.7665356252700088,1.720620846313238
1761338279828522500,1.2115224609375,1.7146394338160753,1.5110419840708373,1.2781097187697887
1761338279838588400,1.22158837890625,2.187789445251226,1.3617074549108743,0.9334151145949959
1761338279848654600,1.231654541015625,2.5751380730211735,1.2942511446230114,0.5967617049913853
1761338279858719200,1.24171923828125,2.8875661921024323,1.211437106205523,0.2161054144669324
1761338279868785400,1.251785400390625,3.112799427333474,1.065840448399633,-0.2460488634403795
1761338279878851000,1.26185107421875,3.3546476972788573,0.9409824811093509,-0.655291270045191
1761338279888916200,1.271916259765625,3.5807869414389133,0.7413668675418943,-0.9542766277726739
1761338279898982400,1.281982421875,3.692273385980725,0.398093016885221,-1.1813022263132036
1761338279909047300,1.29204736328125,3.6276597517728804,0.1569452233593911,-1.328109282822162
1761338279919113500,1.302113525390625,3.297515358737111,0.06329382031355053,-1.3895077543757854
1761338279929179100,1.31217919921875,2.6313924596846103,0.09873020414747297,-1.2714916158042848
1761338279939244300,1.322244384765625,1.4777677832394838,0.2410796236604452,-1.0758959784679114
1761338279949310200,1.332310302734375,0.16967033796310424,0.3674899714918807,-0.7638680376853794
1761338279959375400,1.342375244140625,-0.9757418059319257,0.6328800432074815,-0.4990992762058973
1761338279969441300,1.352441162109375,-1.8663538438498972,0.7102373505890369,-0.1936635002300143
1761338279979507200,1.362507080078125,-2.305008880487084,0.7869890202276408,0.1550165933843702
1761338279989572400,1.372572265625,-2.153347077423334,0.9252557735368608,0.47308439885303377
1761338279999638300,1.38263818359375,-1.6044231553405521,0.887923821747303,0.7648517880257218
1761338280009704400,1.392704345703125,-0.9191577489227056,0.6366729326844215,0.8977939122460782
1761338280019769000,1.40276904296875,-0.24733400788009166,0.2921617222525179,0.7239223232008516
1761338280029835300,1.412835205078125,0.6163040983945131,-0.030826013094792142,0.3086624829374254
1761338280039900400,1.422900390625,1.6122446427464485,-0.3277029181677848,-0.11925276769436895
1761338280049966300,1.43296630859375,2.441120647719502,-0.6988966030158102,-0.4196727613348514
1761338280060032300,1.4430322265625,2.9386458064764738,-1.0038215799253434,-0.5104051716614514
1761338280070097200,1.45309716796875,2.9536259334653616,-1.1508761083893477,-0.5547841193530708
1761338280080163300,1.463163330078125,2.5555700337201355,-1.181752965755388,-0.6040386371918022
1761338280090229200,1.473229248046875,1.8428864590227603,-1.1459908205658196,-0.5320616346091032
1761338280100294400,1.48329443359375,1.0547983915120362,-1.0405541045170277,-0.48561077601425345
1761338280110360300,1.4933603515625,0.35680911259949205,-0.8249711795542388,-0.555272852718085
1761338280120425200,1.50342529296875,-0.08896247804462909,-0.8264423480853438,-0.68166913549155
1761338280130491100,1.5134912109375,-0.39272798272073267,-1.118493595700711,-0.7792003391128033
1761338280140557300,1.523557373046875,-0.6412754580438137,-1.2761089003413915,-0.9202369224615394
1761338280150622500,1.53362255859375,-0.7989706960529088,-1.343496383176744,-1.021823758149147
1761338280160688400,1.5436884765625,-0.9453162725299596,-1.4044899271912872,-0.9641462798800319
1761338280170753300,1.553753173828125,-1.0316653532058,-1.5126527802683412,-0.8554111798729747
1761338280180819200,1.563819091796875,-1.1057254456728696,-1.7244249147713184,-0.8780038276921958
1761338280190885400,1.573885498046875,-1.1574971339643,-1.8561460458293557,-0.9698452952392399
1761338280200950300,1.5839501953125,-1.1658645648151635,-1.841307373137772,-1.0042686661057174
1761338280211016200,1.59401611328125,-1.1921411618441342,-1.788361964891851,-0.9232569278698414
1761338280221082000,1.60408203125,-1.2375994292050598,-1.72619367800951,-0.757806034232676
1761338280231147300,1.614147216796875,-1.3118518293738364,-1.6607631744608282,-0.6460369002919644
1761338280241213400,1.62421337890625,-1.3657967700511215,-1.5485326335534453,-0.49553639609254896
1761338280251278300,1.6342783203125,-1.3518226052343845,-1.4056354439646004,-0.4363483671300113
1761338280261344300,1.64434423828125,-1.3261895668059587,-1.241057168443501,-0.5251091120574624
1761338280271410200,1.65441015625,-1.4004133254021405,-1.1903490177303553,-0.723579354982078
1761338280281475300,1.664475341796875,-1.4475608610242605,-1.2222356366608291,-0.9933335767239332
1761338280291541200,1.674541259765625,-1.2465578116863965,-1.083211927504465,-1.1669446882020682
1761338280301607400,1.684607421875,-0.8565291510522365,-0.4247806789331138,-0.9228964239943772
1761338280311672300,1.69467236328125,-0.5154197118878364,-0.045220330419205125,-0.3425421753812581
1761338280321738200,1.70473828125,-0.2689940510243177,0.2251041472249664,0.2527229343768209
1761338280331803400,1.714803466796875,-0.012961188381910323,0.8173585125934332,0.4609160413492471
1761338280341869300,1.724869384765625,-0.04556640391051769,1.103503677970171,0.10780925386641174
1761338280351935500,1.734935546875,-0.4440215321063995,1.0048286380760372,-0.44568172040358184
1761338280362000100,1.745000244140625,-1.1624240689724683,0.7446564836718141,-0.8394481062613427
1761338280372066300,1.75506640625,-2.19158766849041,0.3831566559728235,-1.028233917452395
1761338280382132200,1.76513232421875,-3.0410441046774386,0.10642309673763811,-1.2463865467727184
1761338280392197400,1.775197265625,-3.6153988206148147,0.09776720433421432,-1.4139689725458622
1761338280402263300,1.78526318359375,-3.564986730238795,0.2752556687023491,-1.3104983689382672
1761338280412328200,1.795328125,-3.2461031514078376,0.5215343223106116,-0.8428653673589229
1761338280422394400,1.805394287109375,-2.6603835763692856,0.6633727235615253,-0.3543081626292318
1761338280432460300,1.815460205078125,-1.5664362467736004,1.2686845955595374,0.06402242684904486
1761338280442525400,1.825525390625,-0.38949557667076584,2.0013586727537214,0.6901198607116937
1761338280452591000,1.835591064453125,0.570587472358346,2.2676832123078405,1.4744253409437835
1761338280462656300,1.84565625,1.2732809834390877,2.1828058116197586,2.114615926360339
1761338280472722200,1.85572216796875,1.712364474621415,1.9735762012064455,2.301030478375405
1761338280482788400,1.865788330078125,2.013178728276491,1.8350414446108043,2.1248966434866188
1761338280492853500,1.875853515625,2.3379741614997385,1.742124529851973,1.6686419450119137
1761338280502919200,1.885919189453125,2.7168524825662375,1.4897997279472648,1.201094429758936
1761338280512985300,1.8959853515625,3.2106863855898378,1.1431100774977356,0.8827468575008213
1761338280523050200,1.90605029296875,3.6441567130655046,0.8491323187991976,0.5643801421508192
1761338280533116400,1.916116455078125,3.8664942268550395,0.537493048540689,0.18111914902068674
1761338280543181000,1.92618115234375,3.7117519934326406,0.19214549688249824,-0.25044746372550725
1761338280553247200,1.936247314453125,3.25892989975512,0.01377060506865382,-0.6524114037599414
1761338280563313200,1.946313232421875,2.6883921117573975,-0.12645579440835863,-0.95829134330675
1761338280573378300,1.95637841796875,1.9802286448329687,-0.3191833654951304,-1.2052916622530667
1761338280583444500,1.966444580078125,1.0416437263846396,-0.44765371459629383,-1.3560983828574418
1761338280593509000,1.976509033203125,-0.1785340278983116,-0.37517902815714477,-1.3063950252726673
1761338280603575300,1.9865751953125,-1.3785440234214066,-0.07464342704666778,-1.05321309508197
1761338280613641200,1.99664111328125,-2.2102198882460593,0.17530180451143532,-0.5333711828377098
1761338280623706400,2.006706298828125,-2.6067864262163636,0.6883192410305142,0.1225232407324016
1761338280633772300,2.016772216796875,-2.4033336456388232,0.9162276868201792,0.7077506483398377
1761338280643838200,2.026838134765625,-1.6070231087058782,0.8247968459006398,1.0988323251582681
1761338280653903400,2.0369033203125,-0.6612398031860589,0.6761708303362131,1.1503738579556346
1761338280663969300,2.04696923828125,0.12620938189923764,0.48761210589930415,0.9592692484281956
1761338280674034400,2.057034423828125,0.6247223826497793,0.331270949380286,0.622558628744632
1761338280684100400,2.067100341796875,1.0168401245176792,0.2580078707761131,0.38180367046128955
1761338280694166300,2.077166259765625,1.3277087391972542,0.19653207793626934,0.336494127388671
1761338280704231200,2.087231201171875,1.580109382817149,0.2343962003737688,0.5740679348852485
1761338280714297300,2.09729736328125,1.7668109350800514,0.31609782056994734,0.8892625230051576
1761338280724363300,2.10736328125,1.7332424274772404,0.2229207753038965,1.0184035744421183
1761338280734428200,2.11742822265625,1.3597878850251435,0.10531824076827614,0.8874601497583091
1761338280744494000,2.127494140625,0.8325678452283144,0.05140899245887994,0.5801479123860597
1761338280754559200,2.137559326171875,0.4013876745164394,-0.10173782499823719,0.1963519173300825
1761338280764625400,2.14762548828125,0.030756957313418386,-0.5345568124257027,-0.15050158191164956
1761338280774691300,2.15769140625,-0.2551648476362228,-0.9897219620980322,-0.4465914921922609
1761338280784756200,2.167756103515625,-0.5277285738408565,-1.320910749620199,-0.6246181185577064
1761338280794822100,2.177822265625,-0.6958101813077926,-1.3290949328586459,-0.6219384510196745
1761338280804887300,2.18788720703125,-0.7001175231128931,-1.0828403907783328,-0.36894795174784956
1761338280814953200,2.197953125,-0.5662883138597011,-0.9173802909214049,-0.035241336185857654
1761338280825019400,2.208019287109375,-0.34224867232739925,-0.8326398875512182,0.2825212027259171
1761338280835084300,2.218084228515625,-0.25509821214079853,-0.6945512672878802,0.5121473756862804
1761338280845150200,2.228150146484375,-0.3697650402843952,-0.713846261801198,0.6447802512943744
1761338280855216400,2.23821630859375,-0.5124567704290152,-1.021134826036915,0.5702691271241754
1761338280865281300,2.24828125,-0.7299567810595036,-1.396178756572306,0.3881959287816658
1761338280875347000,2.258346923828125,-0.9678314711987972,-1.6764134557962416,0.12583490429734812
1761338280885411800,2.268411865234375,-0.8980775514930486,-1.837096185183525,-0.06175188810117543
1761338280895477800,2.278477783203125,-0.8526829970180988,-1.899016342523694,-0.18839518617196008
1761338280905543700,2.288543701171875,-0.9585346505433321,-1.8191044552884994,-0.34974816123731434
1761338280915608800,2.29860888671875,-1.0683160447329283,-1.5435019459098576,-0.3960650912541896
1761338280925674800,2.3086748046875,-1.141903843513131,-1.3952658795110882,-0.46132977324929086
1761338280935740700,2.31874072265625,-1.11825759498775,-1.5051548257283867,-0.47852973171211777
1761338280945805800,2.328805908203125,-1.0455652837425469,-1.5190006879903375,-0.6767248840223997
1761338280955871700,2.338871826171875,-1.024886068329215,-1.0153700519651174,-1.0085831683039665
1761338280965937000,2.34893701171875,-0.986198318016529,-0.44567919965293257,-1.2311606283292174
1761338280976002800,2.3590029296875,-0.8761410294950008,-0.10570760541204363,-1.1932717002440243
1761338280986068700,2.36906884765625,-0.8532324475944042,-0.1489185687702149,-0.9073359398342669
1761338280996134000,2.3791337890625,-1.0543670143574475,-0.24205383898746222,-0.3052116848964244
1761338281006199800,2.38919970703125,-1.6041303098738193,0.0029382454089820383,0.1444754900225438
1761338281016266000,2.399265869140625,-2.1474235325932503,0.3776271154290065,0.44358683048356323
1761338281026330600,2.40933056640625,-2.4475340218931434,0.6533417434126139,0.820317435464263
1761338281036396800,2.419396728515625,-2.516152215567231,0.9197916629120707,1.2579932518057524
1761338281046461700,2.429461669921875,-2.488708912846446,1.2124949446953832,1.639631246843934
1761338281056528000,2.43952783203125,-2.4475755229473113,1.5963886097058653,1.8603765230059623
1761338281066593800,2.44959375,-2.2057231613487005,1.9879031249836085,1.922642863435298
1761338281076658700,2.45965869140625,-1.665299356585741,2.3666075507879256,1.9289114223107695
1761338281086724900,2.469724853515625,-0.9381517877280712,2.6087933821246025,1.8313830682337282
1761338281096789800,2.479789794921875,-0.21787994985878467,2.4572937838852402,1.48157462817654
1761338281106856000,2.48985595703125,0.5780962405532598,2.2483909212082622,0.816592496656999
1761338281116921900,2.499921875,1.2722130619466303,2.0744915673732756,0.07852663428871892
1761338281126986800,2.50998681640625,1.5794459504723548,1.6777618016652762,-0.5701711466424166
1761338281137052700,2.520052734375,1.7094330973446368,1.3794672757461666,-0.9686313894048333
1761338281147118800,2.530118896484375,1.965778094676137,1.3654511714838444,-1.2628348466180264
1761338281157184000,2.54018408203125,2.2826357206374404,1.40623764764145,-1.4332776302583514
1761338281167249700,2.550249755859375,2.5506962902039287,1.3311666245661675,-1.3490556247390806
1761338281177314800,2.560314697265625,2.6278368130296466,1.182561505659297,-0.9849947143804282
1761338281187380700,2.570380615234375,2.480778704369068,0.9743236827623099,-0.5627149123523384
1761338281197447000,2.580447021484375,2.0934984656602142,0.8139771265268325,-0.13980405501225032
1761338281207511800,2.59051171875,1.5694038644075392,0.6292115107625722,0.23585366917308417
1761338281217577700,2.60057763671875,0.9476929385334253,0.44667274073492735,0.4516514424629509
1761338281227643000,2.610642822265625,0.2808925786107778,0.4414371051037684,0.6685537063959985
1761338281237708800,2.620708740234375,-0.34889877786636353,0.24996329693775624,0.9971290965493768
1761338281247774700,2.630774658203125,-0.9532412203103303,-0.03761697927601635,1.141326774277538
1761338281257839600,2.640839599609375,-1.3503244756311177,-0.2063795182118192,0.9441070428706705
1761338281267905800,2.65090576171875,-1.6680360880732534,-0.22456600349396466,0.4694400510013103
1761338281277971700,2.6609716796875,-1.818352906268835,-0.33784517667144537,-0.02906250370374182
1761338281288036900,2.671036865234375,-1.5472060611248015,-0.30434454667307437,-0.3200703774627298
1761338281298102800,2.681102783203125,-0.9638497080862521,-0.06187010765336454,-0.4037004084382206
1761338281308167700,2.691167724609375,-0.2870435024559498,0.12089728349838405,-0.5563256497066468
1761338281318233900,2.70123388671875,0.5353624297201633,-0.18956519806571304,-1.1432347267907113
1761338281328299800,2.7112998046875,1.4794272408843039,-0.16430397035805508,-2.2240997989080844
1761338281338365000,2.721364990234375,2.1920786668777463,-0.10783508242741227,-3.0244284854412076
1761338281348430800,2.731430908203125,2.347792960202694,-0.6727285078626125,-2.9706974797755477
1761338281358497000,2.7414970703125,2.0799188531190156,-0.8425019408740103,-2.233406410305202
1761338281368561700,2.751561767578125,1.7767460536390542,-0.5052122061282396,-1.5023578884862363
1761338281378627800,2.7616279296875,1.527712256103754,-0.3610360826447606,-0.985442092821747
1761338281388692700,2.771692626953125,1.2667238168805837,-0.41255788782835007,-0.6695614951990544
1761338281398759000,2.781759033203125,1.131077913594246,-0.6305379370607436,-0.7636803330935538
1761338281408824600,2.791824462890625,1.154763325086236,-0.8449898121669888,-1.20425303992033
1761338281418889700,2.8018896484375,1.185213408407569,-1.1536274529241024,-1.9032649398788808
1761338281428956000,2.811955810546875,1.1965139701008796,-1.4579289641730486,-2.5419629486501214
1761338281439020800,2.822020751953125,1.1005945125252008,-1.904440559529513,-3.0840450420141217
1761338281449087000,2.8320869140625,0.8200801195770502,-1.975711167408526,-3.4028274985581635
1761338281459152600,2.842152587890625,0.30924247478246686,-1.9387755214601754,-3.3568530983686444
1761338281469217800,2.8522177734375,-0.34278818603157996,-2.088575622305274,-3.0498551876425744
1761338281479283700,2.86228369140625,-0.8852823673278093,-1.729846939820051,-2.503496732133627
1761338281489350000,2.872349853515625,-1.3263479722380638,-1.198407455697283,-1.7063821853414176
1761338281499414800,2.882414794921875,-1.5778309164911508,-0.7557065777353942,-0.8665903802089393
1761338281509480700,2.892480712890625,-1.636483011946082,-0.3823446820028126,-0.11021335586607456
1761338281519545900,2.9025458984375,-1.7263439001351595,-0.10523206032216548,0.4535394116340205
1761338281529611800,2.91261181640625,-1.9810949062734842,0.06539850097522139,0.6404582964420318
1761338281539678000,2.922677978515625,-2.1530267594277857,0.27450105094276367,0.5726994595436379
1761338281549742600,2.93274267578125,-2.2406284705132244,0.7475934139065444,0.9375060371704399
1761338281559808800,2.942808837890625,-2.2248469640135764,1.0266758743554354,1.8415987572997807
1761338281569874000,2.9528740234375,-2.072950183150172,0.9974097401216626,2.3697486252926288
1761338281579939800,2.96293994140625,-1.8281413098335264,1.1662952113173901,2.338338903158903
1761338281590005800,2.973005859375,-1.5190373667389154,1.2197843710511922,1.8425528431542217
1761338281600070700,2.983070556640625,-1.2085445996344089,1.162644725985825,1.0964279674302786
1761338281610136800,2.99313671875,-1.2188923906475304,0.9460484592620283,0.5867139929033816
1761338281620202800,3.00320263671875,-1.3663538194119929,0.44963791068345305,0.4914668085660785
1761338281630268000,3.013267822265625,-1.4795137501239777,0.05340107959154993,0.34279812290370465
1761338281640333800,3.023333740234375,-1.6029384697407483,-0.05514313748590648,-0.48641580878682433
1761338281650398700,3.033398681640625,-1.6516893489062785,-0.11169120986629277,-1.7934196866728365
1761338281660464600,3.043464599609375,-1.4413842182159422,-0.2555859225925058,-3.0135280289813875
1761338281670530800,3.05353076171875,-0.8728665378689765,-0.3151646313730627,-3.8741009024664756
1761338281680596000,3.063595947265625,0.03172901721596718,-0.34894787770509716,-4.256788552688062
1761338281690661600,3.07366162109375,0.739215607792139,-0.36195199191328137,-4.0152895345717665
1761338281700726800,3.083726806640625,1.0208896921694277,0.3618085283219814,-2.5955951701164244
1761338281710792700,3.093792724609375,1.1432564271658658,1.457080676780641,-0.22566073992811142
1761338281720859000,3.10385888671875,0.8058698079168796,1.6246612028576433,1.7096914560198784
1761338281730923800,3.113923828125,0.14408406128585338,1.6861809627033768,2.936851324275136
1761338281740989700,3.12398974609375,-0.40879765851199623,2.0380502808131276,3.72103215521425
1761338281751055600,3.1340556640625,-0.6621919893443584,2.3244800352849064,3.916654680557549
1761338281761120800,3.144120849609375,-0.5369283638626337,2.3869484741576015,3.736899878692627
1761338281771187000,3.15418701171875,0.11367723258435726,2.1224673705130814,3.146369980762899
1761338281781251600,3.16425146484375,0.9472609768569469,1.53474624639377,2.3776596906781196
1761338281791317800,3.17431787109375,1.6694336799114942,0.8152876246035099,1.6396230635374784
1761338281801383700,3.1843837890625,2.1401567564606667,0.3650319473478943,0.9409003557838499
1761338281811448800,3.19444873046875,2.3963041853934524,0.26453497098991646,0.37138230275530365
1761338281821514800,3.2045146484375,2.445240942519903,0.3529802750263363,0.05529160604588687
1761338281831579600,3.21457958984375,2.2760054888427255,0.3020682175052352,-0.1997634245403111
1761338281841645800,3.224645751953125,1.9547604415774344,0.09457314840010367,-0.282163511862047
1761338281851711700,3.234711669921875,1.515761121547222,-0.18313355758301914,-0.19007680084966122
1761338281861777000,3.24477685546875,0.986157401484251,-0.3529608762061223,-0.040501850529946384
1761338281871842800,3.2548427734375,0.39896366223990914,-0.32265907878167926,0.1914774979604408
1761338281881908700,3.26490869140625,-0.0869143133431673,-0.14255394737543536,0.49033404167648403
1761338281891973400,3.274973388671875,-0.590507393836975,-0.023170593837648627,0.8342566750980913
1761338281902039600,3.28503955078125,-1.1193442211806774,0.13246690792404114,1.1793177744977175
1761338281912104700,3.295104736328125,-1.135885606136918,0.3100724593332037,1.3228925710871815
1761338281922170600,3.305170654296875,-0.7625257562309503,0.26196926695406436,1.3198570027835665
1761338281932236500,3.315236572265625,-0.4826198505699634,0.09880747063476591,1.1593919347349553
1761338281942301400,3.325301513671875,-0.27214345496594905,-0.1591066209106706,0.8072197612211107
1761338281952367600,3.33536767578125,-0.1514203955233097,-0.3295690773658454,0.41088089452683924
1761338281962433500,3.34543359375,-0.1642033047288656,-0.18024665876878423,0.17114305913047864
1761338281972498400,3.35549853515625,0.15126549722254276,-0.06302199936853721,0.0637253253323026
1761338281982564400,3.365564453125,0.7242810735106467,-0.10228532107947394,0.08638110151560977
1761338281992629500,3.37562939453125,1.0335381613403558,-0.1671101686188951,0.24994813590124249
1761338282002695700,3.38569580078125,0.9621750528723001,-0.27691224027033895,0.3687531232954934
1761338282012761600,3.39576171875,0.7213198856174945,-0.3807258120967075,0.4420941442403942
1761338282022826500,3.405826416015625,0.43672962153255934,-0.378896770038642,0.3336561274837702
1761338282032892400,3.415892333984375,0.15203122089803217,-0.3799406896010041,0.12404402055889367
1761338282042957600,3.42595751953125,-0.2746814490109682,-0.29595716901272534,0.11800320602469146
1761338282053023500,3.4360234375,-0.5720061069846153,-0.19807422934435306,0.11321151476874947
1761338282063089700,3.446089599609375,-0.5926426523000001,-0.29449776398465033,0.052095513418316836
1761338282073154600,3.456154541015625,-0.4954869309276342,-0.4885914357928559,0.0789840318005532
1761338282083220500,3.466220458984375,-0.352277314388752,-0.6124926503475755,0.07846709525436163
1761338282093286400,3.476286376953125,-0.29988486385047436,-0.5349090599294751,0.12870616715103386
1761338282103351600,3.4863515625,-0.4477116187959909,-0.2802449648896232,0.30486703617721794
1761338282113417700,3.496417724609375,-0.4877314944952726,-0.17308195477118715,-0.039610856506973505
1761338282123482400,3.506482421875,-0.1202414134055376,-0.5903662683332339,-1.6903290222935377
1761338282133548500,3.516548583984375,0.420079515504837,-0.3389488270644098,-2.660242414332926
1761338282143614500,3.526614501953125,0.568075197276473,-0.4234278760846704,-2.1021479283228515
1761338282153679600,3.5366796875,0.4367454036235809,-1.0221782706752418,-0.7049085567817092
1761338282163745500,3.54674560546875,-0.03732990596294403,-0.8698634835954755,0.5848917459122837
1761338282173810400,3.556810546875,-0.8212859882354736,-0.23959135786406693,1.2719640556216238
1761338282183876600,3.566876708984375,-1.3032540968984365,-0.06736545366663485,1.440815332286805
1761338282193942500,3.576942626953125,-1.1113725116491318,-0.18838187003266066,1.2964258583135901
1761338282204007700,3.587007568359375,-0.544311459851265,-0.3176373050969094,0.9004762101326137
1761338282214073300,3.5970732421875,-0.09056348350048064,-0.7589112189956009,0.24923903778381645
1761338282224139500,3.607139404296875,0.4066074549913406,0.3643096244227141,0.837339297413826
1761338282234204400,3.617204345703125,1.1916314587563275,0.15621851652003824,1.7776343807809054
1761338282244270600,3.6272705078125,0.7990595433801412,-0.5980887158114463,1.8345296956963837
1761338282254335700,3.637335693359375,0.16496084509789943,-0.7076828438006341,1.2975636301718652
1761338282264401400,3.6474013671875,-0.46464638698399063,-0.19770068332422525,0.9997878674298524
1761338282274467600,3.657467529296875,-1.3501812677681446,0.4013854094941169,0.8295623798020183
1761338282284532500,3.667532470703125,-1.67315299269557,1.1797297162994742,1.007634489277005
1761338282294598700,3.6775986328125,-1.4874346062511206,1.9729528086110948,0.9312760567396878
1761338282304663300,3.687663330078125,-1.1939315523922442,2.7571242871999737,0.5561699111556634
1761338282314729500,3.6977294921875,-1.1214689582496882,2.5494345997050405,-0.2348154852317646
1761338282324795400,3.70779541015625,-0.5707102219551802,3.844108499784767,-0.11509473469946532
1761338282334860500,3.717860595703125,0.1918061819255352,3.620490590795874,-0.609703238824755
1761338282344926700,3.7279267578125,0.3002601269036531,2.2102498449929056,-1.681905038949847
1761338282354992600,3.73799267578125,0.5731745662420987,1.4011311182826756,-2.4779224381551144
1761338282365057500,3.7480576171875,0.5531862557023763,0.6591757102631032,-2.387339519301802
1761338282375123500,3.75812353515625,0.4112432980984449,0.21404409802295266,-1.8203028712928293
1761338282385188600,3.768188720703125,0.28699206452965736,0.15761219936814158,-1.2045537033673375
1761338282395254500,3.778254638671875,0.037761867639422415,0.2399258505154401,-0.6071469054054468
1761338282405320700,3.78832080078125,-0.21626374683380126,0.3898438786517828,0.027838565099088008
1761338282415385600,3.798385498046875,-0.339552272850275,0.573360078876838,0.6604024755790829
1761338282425451500,3.808451416015625,-0.44657823085188864,0.5800250531913712,1.241467210549116
1761338282435516700,3.8185166015625,-0.61828679664433,0.4234543257001787,1.5699410400241613
1761338282445582600,3.82858251953125,-0.8084872969388961,0.35891521803326903,1.7216095650896428
1761338282455648500,3.8386484375,-1.0904302613854409,-0.2317220857936889,1.1842779541883617
1761338282465713400,3.84871337890625,-1.5341735610723495,-0.4058446539252996,0.5037958365242928
1761338282475779600,3.858779541015625,-1.5379764604866504,0.021453341590985654,0.236032441539783
1761338282485845500,3.868845458984375,-1.0939075821071862,0.5782028427328914,0.43895259481165555
1761338282495910700,3.87891064453125,-0.4330214146643877,0.8230654920633882,0.4999964807739481
1761338282505976300,3.888976318359375,0.18830197319686412,0.9295883959136902,0.38757359563224014
1761338282516041500,3.89904150390625,0.7460960149556398,0.955316711410135,0.1866765456858091
1761338282526107600,3.909107666015625,1.3130892622143029,0.9137807320594787,-0.0970589464670047
1761338282536173600,3.919173583984375,1.8599831397742033,0.8895188358537852,-0.35060550871901214
1761338282546238500,3.929238525390625,2.4088842655032874,0.967053691759333,-0.45730829918086524
1761338282556304400,3.939304443359375,2.84433962931633,1.048579078605771,-0.3605250643827021
1761338282566370600,3.94937060546875,2.9908775134950876,1.2203954156216232,-0.3445748867852613
1761338282576435500,3.959435546875,2.8482237772732972,1.2564365238830446,-0.6536592118639498
1761338282586501600,3.969501708984375,2.550813779103756,1.179061096322909,-1.1611162743095307
1761338282596566500,3.97956640625,2.1632348497092724,1.0633942242912948,-1.8232921162366866
1761338282606632400,3.989632568359375,1.7082471024304626,0.8530505151562392,-2.4677973499819634
1761338282616698600,3.99969873046875,1.1092957053750754,0.534605766133964,-2.8926863115951416
1761338282626763500,4.009763427734375,0.4130827884852886,0.24673308284487575,-3.1011367543295023
1761338282636829700,4.01982958984375,-0.19207798460423944,0.06999247770197689,-3.0749440361917015
1761338282646894300,4.029894287109375,-0.6970546284109354,-0.025040771623700855,-2.8209163758918643
1761338282656960500,4.03996044921875,-1.0897183137238025,-0.06596442776229232,-2.3536723736301064
1761338282667026400,4.0500263671875,-1.3887743255347014,-0.07716361144036055,-1.8323247329980135
1761338282677091600,4.060091552734375,-1.7471435270577669,-0.12956541432887314,-1.5114166626021266
1761338282687157500,4.070157470703125,-2.174119231817126,-0.3314171163853258,-1.5544007949344814
1761338282697223400,4.080223388671875,-2.3236662346839903,-0.669943626384437,-1.9964231160476802
1761338282707288600,4.09028857421875,-2.043999982997775,-1.0075335131205618,-2.489952775427699
1761338282717354500,4.1003544921875,-1.6191449236541986,-1.1346765956733376,-2.7855381885185837
1761338282727419600,4.110419677734375,-1.1663754369467496,-1.0214577013157307,-2.9370068070977924
1761338282737485600,4.120485595703125,-0.813228353986144,-0.7237719549447298,-2.872030769318342
1761338282747551500,4.130551513671875,-0.6544365529119968,-0.30674916012939063,-2.4893156465679405
1761338282757616600,4.14061669921875,-0.5831348192423582,0.04307895274264738,-1.9800053574711083
1761338282767682600,4.1506826171875,-0.6024725569188595,0.20962098435107618,-1.5674803489990532
1761338282777747700,4.160747802734375,-0.5927788459002972,0.313388196285069,-1.3229488313190638
1761338282787813400,4.1708134765625,-0.40764907299876213,0.48310741489119824,-0.9977737511284649
1761338282797879600,4.180879638671875,-0.1554810690909624,0.9640674424901604,0.20849070167951284
1761338282807944400,4.1909443359375,-0.18643267219364643,1.7187828172311186,2.148687415049225
1761338282818010600,4.2010107421875,-0.4146469690620899,1.9756698124848304,2.7424489883765575
1761338282828076500,4.21107666015625,-0.48813364555537697,1.9760725480668246,1.679957558143884
1761338282838141400,4.221141357421875,-0.6906921076416969,1.7203500665478408,0.1787433232674375
1761338282848207400,4.231207275390625,-0.9485685523241758,1.2974993327639996,-0.7467110781140625
1761338282858272500,4.2412724609375,-1.0819278059780597,1.0106335249625147,-1.2132193134471774
1761338282868338700,4.251338623046875,-1.0935492701888083,0.9449955892082303,-1.4603651052787898
1761338282878404400,4.261404296875,-1.1482651952385903,0.8775351142019033,-1.7133908950597048
1761338282888469200,4.27146923828125,-1.1929893031060694,0.845401607838273,-2.045776929542422
1761338282898535200,4.28153515625,-1.2107646137714385,0.5327472787857055,-2.311839018768072
1761338282908601300,4.291601318359375,-1.0799632279068232,1.035632211010158,-2.113238062135875
1761338282918666200,4.301666259765625,-0.5165560224413871,1.4200672894209623,-1.530953429982066
1761338282928732400,4.311732421875,0.0721527975410223,1.985299079965055,-0.5844079079180956
1761338282938797300,4.32179736328125,0.7799398323684931,2.3381945262521504,0.13575710857585072
1761338282948863200,4.33186328125,1.4901748448699712,2.6302894668787715,0.5969772839708254
1761338282958929400,4.341929443359375,2.135192412051558,2.860205306968093,0.9614543373823166
1761338282968994300,4.351994384765625,2.5598797136127946,2.899114883337915,1.2303541342519222
1761338282979060200,4.362060302734375,2.7935651353687048,2.9574633196711537,1.3992436971008777
1761338282989125400,4.37212548828125,2.6502543965429064,2.666003462077677,1.4232659393317997
1761338282999191300,4.38219140625,1.9549357981443405,2.3326479980409145,1.2977942240573466
1761338283009257200,4.39225732421875,0.9962047482460736,2.1084499510765076,0.9380999114103614
1761338283019322400,4.402322265625,-0.11604337719380856,1.8055927934169769,0.2999498553780839
1761338283029388300,4.41238818359375,-1.1599492032915353,1.4320882743433117,-0.5619014770776033
1761338283039454200,4.4224541015625,-1.7639041077226398,0.9968038831830024,-1.1460784257840364
1761338283049520000,4.43252001953125,-2.101229936695099,0.5695965250922367,-1.1793459776788948
1761338283059585300,4.442585205078125,-2.35507376486063,0.30811274010017514,-0.8189184553865343
1761338283069651500,4.4526513671875,-2.468609543147683,0.1309069103320129,-0.3524044478997588
1761338283079716000,4.462716064453125,-2.3484487937629224,-0.00389492507930845,0.17365867694690823
1761338283089782300,4.4727822265625,-1.7274837178200482,-0.13999302911255507,0.6512034892749041
1761338283099848200,4.48284814453125,-0.937355668914318,-0.21121537740305066,1.0429834505558013
1761338283109913300,4.492913330078125,-0.34322073222994803,-0.06886683467291295,1.393218007070571
1761338283119979300,4.502979248046875,0.19126316109001634,0.23858123097345232,1.804745821198821
1761338283130045200,4.513045166015625,0.755707892909646,0.571223797500506,2.248659801277518
1761338283140110300,4.5231103515625,1.2330623702973127,0.7371415049318224,2.61637053938061
1761338283150176300,4.53317626953125,1.6401929723799227,0.7406383340716362,2.7990914975747465
1761338283160241400,4.543241455078125,2.000885063892603,0.7685113334465772,2.779197879581153
1761338283170307300,4.553307373046875,2.347829785081744,0.8278373095750808,2.5615666437864304
1761338283180373200,4.563373291015625,2.6132927393704652,1.0163529985878617,2.207353685159981
1761338283190438100,4.573438232421875,2.58133634313941,0.9025921793732792,1.6053184967450798
1761338283200504300,4.58350439453125,2.168915817955136,0.10167798456978053,0.143811875014659
1761338283210569500,4.593569580078125,1.7854735499739647,0.11790241253133862,-0.6566994563426822
1761338283220635100,4.60363525390625,1.29823071577847,-0.15269483590591698,-1.1492540601454675
1761338283230701300,4.613701416015625,0.840239110508561,-0.3511386657476425,-1.6684601587042212
1761338283240766200,4.62376611328125,0.5182528894871473,-0.35335371144860983,-2.046505389947444
1761338283250832400,4.633832275390625,0.20311901857852935,-0.3625433088699356,-2.158441331822425
1761338283260898300,4.643898193359375,-0.04991700033545494,-0.35266134527027604,-2.0377802317000926
1761338283270963200,4.653963134765625,-0.34347616829574107,-0.20156651017321273,-1.7181912810787558
1761338283281029000,4.664029052734375,-0.8739145856171846,0.101301251078723,-1.2388733946636319
1761338283291094300,4.67409423828125,-1.4338514846235513,0.4694069524493068,-0.7715919830009341
1761338283301160400,4.684160400390625,-1.7326573210656642,0.5944103926248848,-0.3746620916109532
1761338283311226400,4.694226318359375,-1.8085417063504456,0.5084657645640894,-0.231386643294245
1761338283321291300,4.704291259765625,-1.7466887690275907,0.5104519699452444,-0.30652108699455854
1761338283331357200,4.714357177734375,-1.4802677833616733,0.43401484614852814,-0.5255467728223652
1761338283341423400,4.72442333984375,-0.9460299737572669,-0.20225396271441132,-1.1929444410510361
1761338283351488300,4.73448828125,-0.592803395819664,-0.5782219858247787,-1.8564792233064769
1761338283361554400,4.744554443359375,-0.3295890972405672,-0.8333756544798612,-2.338563067303598
1761338283371619300,4.754619384765625,-0.0067144029468297955,-0.9952169793177396,-2.4220433145448563
1761338283381685200,4.764685302734375,0.2567787125736475,-0.9676900899667292,-2.280152087128162
1761338283391751200,4.774751220703125,0.30914719771444793,-0.8258475970625877,-2.11643232813254
1761338283401816300,4.78481640625,0.1801028846502304,-0.6385157110068946,-1.9826547029361128
1761338283411882500,4.794882568359375,-0.060378773117065423,-0.45734859465863553,-1.886815324859321
1761338283421948200,4.8049482421875,-0.3900210618495941,-0.3873640080021694,-1.8119314949192105
1761338283432013300,4.815013427734375,-0.6907768633157014,-0.43476548185274,-1.8058911918416618
1761338283442079200,4.825079345703125,-0.9678589437276124,-0.5806028896119445,-1.8949620986968279
1761338283452144400,4.835144287109375,-1.2598258740603923,-0.7645981785908341,-2.1079685973003506
1761338283462210300,4.845210205078125,-1.4922054739147423,-0.9057107497852295,-2.218124670021236
1761338283472276200,4.855276123046875,-1.6285954735666512,-0.8614344587504863,-2.3775099069438874
1761338283482341400,4.86534130859375,-1.5639239716917275,-0.7165298748619854,-2.6711685897558928
1761338283492407300,4.8754072265625,-1.1567091984570026,-0.5735817953361197,-3.0267420230805873
1761338283502472400,4.885472412109375,-0.7456675604104995,-0.38703002680744975,-3.05991597840786
1761338283512538000,4.8955380859375,-0.7561024451851844,0.2343350630373694,-2.1905381594374775
1761338283522604300,4.905604248046875,-1.174938682630658,0.9915488121990114,-0.4837700069857761
1761338283532669200,4.915669189453125,-1.7570868289232253,1.18377760345079,1.235597003341466
1761338283542735400,4.9257353515625,-2.403466916629672,0.9980384664792566,2.7848373467728496
1761338283552801300,4.93580126953125,-2.8179472969532013,0.690355276902765,4.014948466049135
1761338283562866200,4.9458662109375,-2.90116626290977,0.38612072994280605,4.892034959700704
1761338283572932400,4.955932373046875,-2.6683529478132724,0.17281703849099575,5.396694792643189
1761338283582997200,4.965997314453125,-2.108902371019125,-0.022006317564938215,5.5103147420823575
1761338283593063400,4.9760634765625,-1.1218214249491691,0.08197104825470596,5.467345368927717
1761338283603129300,4.98612939453125,0.030452421408891674,0.5762000515431165,5.173911873173713
1761338283613194200,4.9961943359375,1.224551731583476,1.1697756007790565,4.026512062592804
1761338283623260200,5.00626025390625,2.5131881050646303,1.8887312414832411,1.9514068933658302
1761338283633326300,5.016326416015625,3.856559692817926,2.6336373160019515,-0.07477308587490115
1761338283643391500,5.0263916015625,4.844611529746651,3.1804049368336793,-1.4236917635284363
1761338283653457400,5.03645751953125,4.992614225780963,3.859806711915135,-1.9325719906449317
1761338283663522300,5.046522216796875,4.2154724996984,3.492553362190723,-2.5293995274141428
1761338283673588200,5.056588134765625,2.67971546882689,2.750538479068875,-2.914416789627075
1761338283683654400,5.066654296875,0.761567724853754,1.9072880579151212,-2.856519604192674
1761338283693719300,5.07671923828125,-1.2749901254445313,1.1631456612452864,-2.15661382413432
1761338283703785200,5.08678515625,-3.128075906920433,0.5698642361177131,-1.153673703218624
1761338283713850400,5.096850341796875,-4.220730274096131,0.24370061981379984,0.0730312380430987
1761338283723916300,5.106916259765625,-4.417364022308588,0.08207883774442598,1.3326131701126693
1761338283733982200,5.116982177734375,-4.090246868139505,0.006175674693938344,2.2561050027169287
1761338283744047400,5.12704736328125,-2.993545271399617,0.14254855881426481,2.8556606492757797
1761338283754113300,5.13711328125,-1.6809323945254087,0.1898403252126649,2.923234594593942
1761338283764179200,5.14717919921875,-0.37923897107243537,0.21752956551853567,2.540350545017421
1761338283774244400,5.157244384765625,0.8799304849058389,0.22561353978551923,1.769203237044066
1761338283784310300,5.167310302734375,2.0132599768191577,0.20001491508334873,0.7690442712794989
1761338283794375200,5.177375244140625,2.718839856991172,0.18496804300118236,-0.2163011562347412
1761338283804441000,5.187441162109375,2.95249079195559,0.2539917122036218,-1.0076002947464584
1761338283814507300,5.19750732421875,2.8928187058031556,0.37061752892788496,-1.4719962141007183
1761338283824572400,5.207572509765625,2.6598352948367596,0.5709529081372544,-1.5221451234959065
1761338283834638300,5.217638427734375,2.165898515960574,0.8149260247495025,-1.1781437622822821
1761338283844704500,5.22770458984375,1.4583154792726039,0.9673360888972878,-0.9855296249747276
1761338283854769200,5.23776904296875,1.0110369911968708,1.1667718889184295,-0.866510227644816
1761338283864835300,5.24783544921875,0.6550391949802636,1.0022240085355938,-0.8680100377485156
1761338283874900700,5.257900634765625,0.37140345514118667,0.6432138787604869,-0.9043328855607659
1761338283884967000,5.267966796875,0.3122942635685205,0.20941150631885974,-0.8657800867393612
1761338283895032800,5.27803271484375,0.37507892878353594,-0.1128680716259405,-0.8928696075864135
1761338283905097700,5.28809765625,0.431465417394042,-0.39618758512269703,-0.9919826735716313
1761338283915163600,5.29816357421875,0.41184126399159426,-0.6499038779184222,-1.0759378448482602
1761338283925228800,5.308228759765625,0.37720775750577445,-0.7922182991832494,-1.094103981462121
1761338283935295000,5.318294921875,0.34327509276568885,-0.8413187224388122,-1.0075690958905965
1761338283945361000,5.32836083984375,0.3504863393187523,-0.8917621578011661,-0.9216114987503736
1761338283955425800,5.33842578125,0.3303700184851885,-0.9269213686615229,-0.9683362789157778
1761338283965491700,5.34849169921875,0.26801731494665143,-0.9110654086861759,-1.189080532164499
1761338283975558000,5.358557861328125,0.07496434783041477,-0.9438571597628295,-1.611281350672245
1761338283985622800,5.368622802734375,-0.07839899845421314,-1.0614579224664717,-2.139224736307561
1761338283995688700,5.378688720703125,-0.16475801600217818,-1.2265893748909233,-2.7413208611294624
1761338284005753900,5.38875390625,-0.4759504558086395,-1.3674191105559468,-3.008623890326917
1761338284015819800,5.39881982421875,-0.9561123918324709,-1.4208748064115642,-2.7772774329125878
1761338284025885700,5.4088857421875,-1.3179390403330324,-1.287159140535444,-2.271468722195923
1761338284035950800,5.418950927734375,-1.7166607105106115,-1.1409469081144779,-1.8447002304464577
1761338284046016800,5.429016845703125,-2.074600872966647,-1.1009264478933065,-1.6593725968852637
1761338284056082700,5.439082763671875,-2.0696517261266707,-1.0550526585340498,-1.5627119655534625
1761338284066147800,5.44914794921875,-1.69777071660161,-0.9041577481895685,-1.3706179065972566
1761338284076213800,5.4592138671875,-1.159705457663536,-0.7522390477553009,-1.1703704248670488
1761338284086278700,5.469278564453125,-0.6100672498315572,-0.5834587904997169,-0.9421216412071138
1761338284096344800,5.4793447265625,-0.2721568989694118,-0.29981201780997213,-0.79658599287346
1761338284106410800,5.48941064453125,-0.004657470417022705,-0.10624021445140241,-0.7947658647742122
1761338284116476000,5.499475830078125,-0.11500935797095298,0.4013398167867213,-0.6373616456009448
1761338284126541800,5.509541748046875,0.05757248352468013,1.3425618788056075,1.141905889339745
1761338284136606700,5.519606689453125,-0.07555003876388072,1.9380466226637363,2.9350834378197788
1761338284146672600,5.529672607421875,0.29818741228282447,2.10175863674432,2.3306769902288913
1761338284156738800,5.53973876953125,0.3224193517416715,2.1575956747785208,0.9622167000569403
1761338284166803700,5.5498037109375,0.21782325123548507,1.6499245311908424,0.1544438532640226
1761338284176870000,5.559869873046875,0.06955752035081386,1.2928371861718595,0.5271422618528828
1761338284186935800,5.569935791015625,-0.5870861872166395,0.983222663206607,1.5310405237436293
1761338284197000700,5.580000732421875,-1.4988023879617451,0.6839655758656561,2.2400135534852743
1761338284207067000,5.59006689453125,-2.1453525715380906,0.3810078804410994,2.040521785493195
1761338284217131800,5.6001318359375,-3.1252012282669543,0.529507347016409,0.923605449046567
1761338284227198000,5.610197998046875,-4.498361220562458,1.0439667625047266,-0.47279020167943087
1761338284237263600,5.620263671875,-5.263338461598754,0.9085136783767491,-1.5276941359251737
1761338284247328800,5.630328857421875,-5.036774854546785,0.4420953863494098,-2.588490598808229
1761338284257394700,5.640394775390625,-3.4481226843118664,0.9228046540576964,-3.4578462059468027
1761338284267459800,5.6504599609375,-1.3217337564408778,1.7716966612949967,-3.4298663121312853
1761338284277526000,5.660526123046875,0.7742939354360103,2.3379013885244726,-2.354564207903296
1761338284287591700,5.670591796875,2.434836452883482,2.855928360301256,-1.1359352904975413
1761338284297656800,5.68065673828125,3.513101060178876,3.4453532195985317,-0.1609486868470907
1761338284307722800,5.69072265625,3.8350107088327405,3.8572342310786243,0.7719999792799354
1761338284317789000,5.700788818359375,3.713049632027745,3.780569801332056,1.5696677760407327
1761338284327853600,5.710853515625,3.3396003502726552,3.3673265615880488,2.3344807664260268
1761338284337919700,5.720919677734375,2.675334477263689,2.9133640657037496,2.9501325383916495
1761338284347985000,5.73098486328125,1.7184826652407645,2.4657626292839643,3.0971172895550727
1761338284358050800,5.74105078125,0.9589514146506786,1.9841968178115783,2.7981366810679433
1761338284368116700,5.75111669921875,0.43056934533715246,1.4996394233077763,2.2325820883102714
1761338284378181600,5.761181640625,0.08702946415543555,1.1853262211322784,1.5003713908441363
1761338284388247800,5.771247802734375,-0.13148293838799,1.0287002197898925,0.7086235587168485
1761338284398313700,5.781313720703125,-0.2549292853146791,0.9577449614703655,0.08382727058064192
1761338284408379000,5.79137890625,-0.2444441316574812,0.9216558493487537,-0.37612938768453896
1761338284418444800,5.80144482421875,-0.30580665511488914,1.16515349393636,-0.46132772742267697
1761338284428509700,5.811509765625,-0.1902110216885805,1.1651571471981703,-0.3388683457067236
1761338284438575900,5.821575927734375,-0.11899229012727737,1.291027944792807,0.00020539551214314997
1761338284448641800,5.831641845703125,-0.07631634696125984,1.2474589983098208,0.24822533069662747
1761338284458707000,5.84170703125,-0.05543371793031692,1.1532467099782078,0.41111112308613956
1761338284468772900,5.85177294921875,0.1676332791775465,1.0034285620197654,0.5869767354927957
1761338284478837800,5.861837646484375,0.0430301634311676,0.6516525482166559,0.41554315071683373
1761338284488903700,5.871903564453125,-0.09021978462934493,0.3062612670145929,0.17964498481489716
1761338284498969900,5.881969970703125,-0.00045534255206584927,0.02286781149879098,0.2644497221255675
1761338284509034800,5.89203466796875,0.133782447502017,-0.12165493346527217,0.5167737568452954
1761338284519101000,5.902100830078125,-0.055771571582555766,-0.2052472627788782,0.44098318732380865
1761338284529166600,5.91216650390625,-0.49701428662538527,0.000872106659412384,0.37578725971598176
1761338284539231700,5.922231689453125,-0.7691933974266052,0.030718086607754228,0.32068127590268847
1761338284549298000,5.9322978515625,-0.6637228521734476,-0.052013315027579665,0.18115904263965785
1761338284559362800,5.94236279296875,-0.20476210961043834,-0.11061631064377725,-0.12112776778601109
1761338284569428700,5.9524287109375,0.32636136736571786,-0.16237024408280848,-0.3766595490384847
1761338284579494700,5.96249462890625,0.7975859636962414,-0.022833909229189157,-0.4957371062964201
1761338284589559800,5.972559814453125,1.1603186211258172,0.06815108761899173,-0.5997824410520494
1761338284599625700,5.982625732421875,1.3122177400767803,0.08893471325486899,-0.6309498788625002
1761338284609692000,5.99269189453125,1.305841775304079,0.07055442243367434,-0.6978280970014631
1761338284619756800,6.0027568359375,1.1673176862329244,0.028364436153694987,-0.7790089812591672
1761338284629822700,6.01282275390625,0.9505974278032779,-0.06459544096402824,-0.853195988041535
1761338284639888000,6.022887939453125,0.7272200495719909,-0.1745866785120219,-0.9927934784978627
1761338284649953800,6.032953857421875,0.4210854776769876,-0.18186835995279252,-1.135600067193806
1761338284660020000,6.04302001953125,-0.0088099139213562,-0.12659516634643078,-1.2396420409485698
1761338284670084600,6.053084716796875,-0.20359014322161673,-0.1597537049088627,-1.4199420556060969
1761338284680150800,6.06315087890625,-0.10619769048392771,-0.41264110913239416,-1.6946715815424918
1761338284690216000,6.0732158203125,0.06143325060606002,-0.7902705991815775,-1.8573861090183257
1761338284700281900,6.08328173828125,0.13316168525516986,-1.0754517418317495,-1.838859249333292
1761338284710347800,6.09334765625,0.17701602455079554,-1.1518284406781196,-1.6112530013605952
1761338284720412700,6.10341259765625,0.014189853394031523,-1.0217978199902922,-1.240237522623688
1761338284730478800,6.113478759765625,-0.38883857406675815,-0.7276035689968615,-0.8915493918333202
1761338284740544800,6.123544677734375,-0.9552478839576244,-0.4650868242278695,-0.5536660751085728
1761338284750610000,6.13360986328125,-1.433029646846652,-0.2983485941939056,-0.1576399276252836
1761338284760675600,6.143675537109375,-2.1779770762890576,-0.20495262721385807,-0.023775062536820768
1761338284770740700,6.15374072265625,-2.5583213782548904,-0.24705928259193896,-0.1282215985044837
1761338284780806700,6.163806640625,-2.58609142871201,-0.47283371202759444,-0.5331993334021419
1761338284790872800,6.173872802734375,-2.243368709132075,-0.775914376244694,-1.3784379326984286
1761338284800938000,6.18393798828125,-1.6307272248983382,-0.8588025028117,-2.4449115644350647
1761338284811003600,6.194003662109375,-1.084414946618676,-0.4791562661126256,-3.0686142486482857
1761338284821069800,6.20406982421875,-0.959140799742937,0.22889994104504585,-2.6452508891671895
1761338284831134700,6.214134765625,-1.2184200969606638,0.8155581121079624,-1.7562554926656186
1761338284841201000,6.224200927734375,-1.5375094274967909,0.8589195533201098,-0.4902639355823397
1761338284851265800,6.234265869140625,-1.826497049757838,0.6142098295290023,1.1815448759626597
1761338284861331700,6.244331787109375,-2.1550164719402787,0.27088435828294605,2.3493819829598066
1761338284871397600,6.254397705078125,-2.8274861096709967,-0.04453749925419688,2.7319050902694464
1761338284881463000,6.264463134765625,-3.5045354764074084,-0.2088017038574442,2.7975454371765256
1761338284891529000,6.274529052734375,-3.9264036288946866,-0.16106318007223308,2.8171856649309395
1761338284901593900,6.28459375,-3.7484821799367665,-0.029872575694322584,2.802159652973711
1761338284911660000,6.294659912109375,-3.096770083552599,0.4181338247971609,2.6692928590118883
1761338284921726000,6.304725830078125,-2.0820576187133786,1.2423553915604948,2.4024328974068165
1761338284931791000,6.314791015625,-0.3851718682527542,1.3719091154515743,1.8072798697210848
1761338284941856800,6.324856689453125,1.4939654693245887,1.4073843334585427,0.9136809249468147
1761338284951923000,6.3349228515625,2.9992876144438982,1.5821140006378291,0.22924121049707755
1761338284961988000,6.344988037109375,3.8766730910420417,1.663885690395534,-0.3027916181426495
1761338284972054000,6.355053955078125,4.296334088873863,1.9831632369801402,-0.643058688198775
1761338284982119000,6.365118896484375,4.364232736101746,2.3268661997690794,-0.8012437555514276
1761338284992184800,6.375184814453125,3.999838867461681,2.7099603849649427,-0.8236985292699187
1761338285002251000,6.3852509765625,3.4944472131133075,3.0306653340041634,-0.874989082980901
1761338285012316000,6.39531591796875,2.902734535139799,3.2490167007669806,-0.8324687687680125
1761338285022382000,6.405382080078125,2.180059143260121,2.623663618998229,-1.4120824281468987
1761338285032448000,6.415447998046875,1.6288076550126074,2.181230525127053,-1.8764920837655663
1761338285042513000,6.425512939453125,0.7905886521548032,1.885938834285736,-1.6528366192452608
1761338285052578800,6.435578857421875,-0.20226561661958695,1.6421929140254854,-0.9860432735852896
1761338285062644000,6.44564404296875,-1.1720745253711937,1.543862157524377,-0.04625730878412723
1761338285072710100,6.455710205078125,-2.0930635813742873,1.491985985945165,1.0088878503389656
1761338285082776000,6.465776123046875,-2.1608295421332118,1.2926608066916465,2.1007168726064265
1761338285092841000,6.475841064453125,-2.0698878729701042,1.125020951642841,2.8505285470843313
1761338285102907000,6.485906982421875,-1.9305711722165344,0.9199687730446457,2.8683973812520502
1761338285112972000,6.495971923828125,-1.6081225943803785,0.5907194291524589,2.2532620343759655
1761338285123038000,6.506037841796875,-1.0556313352048396,0.25588556312620636,1.2261769946977494
1761338285133103900,6.516103759765625,-0.34749592533111573,-0.01790288256779313,0.1434816566796042
1761338285143169000,6.5261689453125,0.08216039681434631,-0.03331738238595426,-1.0247510437726974
1761338285153235000,6.53623486328125,0.5910621051102877,0.3053596054671332,-2.1042665279120207
1761338285163300900,6.54630078125,1.1048784734547137,0.7185476444251835,-2.710318112361431
1761338285173366000,6.556365966796875,1.537003816062212,1.0163676116351037,-2.783342432039976
1761338285183432000,6.566431884765625,1.9302730660527943,1.2380541872352362,-2.552654438534379
1761338285193496800,6.576496826171875,2.2114929769217966,1.36576710556522,-2.2665318503156304
1761338285203563000,6.58656298828125,2.2903888189822434,1.2867699950873852,-2.073025294212997
1761338285213629000,6.59662890625,2.1149492499679328,0.9722549867294729,-2.0066580943360925
1761338285223693800,6.60669384765625,1.7829653665453196,0.6201382697299123,-1.9999900147490202
1761338285233760000,6.616760009765625,1.3418746271938085,0.21121113961935042,-1.9793914633564649
1761338285243826000,6.626825927734375,0.8428291270017624,-0.3153428374841809,-2.028847129790485
1761338285253891000,6.63689111328125,0.3611690613746643,-0.7850030340421944,-2.2247198305025697
1761338285263957000,6.64695703125,-0.0007850128978490829,-1.0643543745603412,-2.5116040507435797
1761338285274022000,6.65702197265625,-0.23639351167082784,-1.138525087795034,-2.704179755736887
1761338285284087800,6.667087890625,-0.41132337759733195,-1.0372447607733308,-2.7215552534297105
1761338285294154000,6.677154052734375,-0.876463101056218,-0.7469400645643473,-2.441783787803352
1761338285304219000,6.687218994140625,-1.3201730829954146,-0.44075157052502034,-1.9740689531594513
1761338285314285000,6.69728515625,-1.5556623393028974,-0.24731764126718042,-1.7885541264630853
1761338285324350000,6.707349853515625,-1.6118898379594087,-0.3462617804262787,-1.8919938965409993
1761338285334416000,6.717415771484375,-1.5124614954799414,-0.765390059620887,-2.081068899936974
1761338285344482000,6.72748193359375,-1.3617910415410994,-1.1784221408322453,-2.366079289130121
1761338285354547000,6.737546875,-1.3502870662301778,-1.4268027351558208,-2.527181851364672
1761338285364613000,6.747613037109375,-1.406841312623024,-1.6309413060404359,-2.2825839904502034
1761338285374678800,6.7576787109375,-1.4965151538074015,-1.723985354310274,-1.7761998179331422
1761338285384744000,6.767743896484375,-1.6022294446885585,-1.4782222490087151,-1.199903612539172
1761338285394809900,6.777809814453125,-1.6712720012545585,-1.0133927605427802,-0.6968747417993844
1761338285404875000,6.787875,-1.5563485680013893,-0.5953142826620489,-0.44410285371430214
1761338285414941000,6.79794091796875,-1.3666554327070712,-0.01605217666719109,-0.3880753346092999
1761338285425006800,6.8080068359375,-1.066723807105422,0.9852990310892462,-0.006011369244009256
1761338285435072000,6.818072021484375,-0.6284685834407806,1.4589523158714175,0.8790711646627635
1761338285445138000,6.828137939453125,-0.11931669977605343,1.6251602384209631,1.3784566373988985
1761338285455204000,6.8382041015625,0.3600251520365476,1.9059519870057702,1.480210207955539
1761338285465268700,6.848268798828125,0.728995242550969,1.937716221665591,1.4636223535090684
1761338285475335000,6.8583349609375,1.0285925216317175,1.6963884684629738,1.3761831395089625
1761338285485400000,6.868400146484375,1.1853636305332182,0.7211790158420801,1.0555942911300809
1761338285495466000,6.878466064453125,1.0220032063692808,0.15495945636965333,0.9336808528590946
1761338285505532000,6.888531982421875,0.43713995589911936,-0.14359737374745307,0.797470812883973
1761338285515596800,6.8985966796875,-0.49649932284057136,-0.39996191602963954,0.6124727035380899
1761338285525663000,6.9086630859375,-1.3716805673927068,-0.4166897269360721,0.2922363218586892
1761338285535727900,6.918727783203125,-2.158453460651636,-0.4100637329250574,-0.20022428351771085
1761338285545794000,6.9287939453125,-3.135513363444805,-0.2866705592240207,-0.25387499048877504
1761338285555860000,6.93885986328125,-3.901535145097971,0.1533762422988191,0.13773118512779473
1761338285565924900,6.9489248046875,-4.030995637747645,0.8912715978052467,0.750218209452182
1761338285575991000,6.958990966796875,-3.36710035161674,1.4695280704215168,1.5178268219053745
1761338285586057000,6.969056884765625,-2.4378303740024565,1.522710210032761,2.182502006367594
1761338285596122000,6.9791220703125,-1.4332704698652028,1.4041513428866863,2.5570973894178866
1761338285606188000,6.98918798828125,-0.5169838924646377,1.3899043524779378,2.637263982066512
1761338285616253000,6.9992529296875,0.41124271357655523,1.2995314231134951,2.433025311808288
1761338285626318800,7.00931884765625,1.4103478594392538,0.9888264745630323,2.161185954355448
1761338285636385000,7.019385009765625,2.404535422644019,0.7084855384856462,1.9020520569577812
1761338285646450000,7.029449951171875,3.171007870674133,0.44579234117120503,1.6141630435883998
1761338285656515800,7.039515869140625,3.6466140430897473,0.22785642334148287,1.3485593656547368
1761338285666581800,7.049581787109375,3.845694015410542,0.1826291151922196,1.139224833562225
1761338285676647000,7.05964697265625,3.706452717980742,0.3107118166826665,0.9624770314935595
1761338285686713000,7.069713134765625,3.6200562910318372,0.5038840993296355,0.5074116158686578
1761338285696778000,7.079778076171875,3.137818717777729,0.07340403971113264,0.11866623651068657
1761338285706844000,7.089843994140625,2.324702591994405,-0.08720840091891587,0.1621407827084884
1761338285716909800,7.099909912109375,1.78721659424901,-0.049847186502255496,-0.057634917769022284
1761338285726975000,7.10997509765625,1.2356921342790126,0.017359532938711345,-0.6082621366383507
1761338285737041000,7.120041015625,0.6332651700675487,-0.04480597746465355,-0.5158952935103327
1761338285747107000,7.130107177734375,0.21360534127950667,-0.03203070357628166,-0.2788591730870306
1761338285757172000,7.140171875,-0.42755262786448,0.11100335546629503,-0.07860199194671585
1761338285767238000,7.15023779296875,-1.0901455992251634,0.14736774999848565,0.10290829354971646
1761338285777303000,7.160302978515625,-1.5638386314958332,0.21177814411865545,-0.0749676905649714
1761338285787369000,7.170368896484375,-1.6821967153728008,0.03443179848481668,-0.43759643096234646
1761338285797435100,7.18043505859375,-1.3920429719418286,-0.384688687845692,-0.6964410265572368
1761338285807499800,7.190499755859375,-0.8095148864209651,-0.5955439632320776,-0.8670647197224199
1761338285817566000,7.20056591796875,-0.26702479677796365,-0.7588887149028479,-0.9313776174180209
1761338285827631000,7.210631103515625,0.12762567843794823,-0.7150961157318204,-0.7450221021138131
1761338285837697000,7.220697021484375,0.4444651842206716,-0.6045456368658692,-0.39899993912968784
1761338285847763000,7.230762939453125,0.8094418211847543,-0.6184767662584781,-0.20163838809933513
1761338285857827800,7.240827880859375,1.0238409431904554,-0.7740785391196608,-0.13806067281048745
1761338285867894000,7.25089404296875,1.1258400129407644,-0.86514127737917,-0.04732212500404566
1761338285877960200,7.260960205078125,1.1393161651074886,-0.9631167907018214,-0.07009820309877396
1761338285888025300,7.271025390625,1.1247563093572854,-1.0543625573780386,-0.15395082731638102
1761338285898091300,7.28109130859375,1.0071002362698316,-1.1409478579625487,-0.19140399433281272
1761338285908156400,7.291156494140625,0.8612234463483095,-1.158317072045058,-0.19118362958040086
1761338285918222000,7.30122216796875,0.7696639375478029,-1.224714959321171,-0.4207729045964777
1761338285928288300,7.311288330078125,0.7080857255131006,-1.539081206858158,-0.7067904250055551
1761338285938353400,7.321353515625,0.7139163313627243,-2.00496049663797,-0.9585941987108438
1761338285948419300,7.33141943359375,0.7052355967789888,-2.1692802673533556,-1.1853647995769976
1761338285958485200,7.3414853515625,0.5530015467852354,-1.76716325564906,-1.2006091304600237
1761338285968550100,7.351550048828125,0.3211743201166391,-1.0767205927237868,-0.9324318026460706
1761338285978616300,7.3616162109375,0.2999818944841623,-0.6199976191502065,-0.5220719363186508
1761338285988681200,7.37168115234375,0.6726093384623527,0.06968512878585606,-0.29427602925905955
1761338285998747400,7.381747314453125,0.6414999144494533,-0.05323500230964273,-0.010690887096058577
1761338286008813300,7.391813232421875,-0.2944762828052044,-0.887965761192888,0.2998169862460345
1761338286018878200,7.401878173828125,-0.4666758469849825,-0.7530320978291333,0.07802103198729456
1761338286028944100,7.411944091796875,-0.7679203087508678,-0.4484253200232982,0.3732957351611927
1761338286039009300,7.42200927734375,-1.2703589585125445,-0.33682189803831275,1.0902042706098407
1761338286049075500,7.432075439453125,-1.5193687906503677,-0.36390287025272844,1.6606494849532842
1761338286059141400,7.442141357421875,-1.6426684225827455,-0.4401119574472308,1.670998006618768
1761338286069206300,7.452206298828125,-1.8819962341398,-0.5798359968926757,1.2771736069634556
1761338286079272200,7.462272216796875,-2.1772557762771845,-0.6995829778447746,0.9274297565750778
1761338286089338400,7.47233837890625,-2.5254367612630126,-0.8540176796879619,0.7184346855700016
1761338286099403300,7.4824033203125,-2.6519506790667773,-1.1498267454668878,0.658140448931232
1761338286109469200,7.49246923828125,-2.547756729620695,-1.7067900354899466,0.27576624857299026
1761338286119534300,7.502534423828125,-2.20173263040781,-2.0146835798814893,-0.7262012279182672
1761338286129600300,7.512600341796875,-1.694755168172717,-1.242349254080653,-1.3183908757537603
1761338286139666400,7.52266650390625,-1.3349696701109408,-0.8078933496337384,-1.194719560964778
1761338286149731300,7.5327314453125,-1.1074416019409894,-0.44285332857724274,-0.7544184376209974
1761338286159797200,7.54279736328125,-0.9231377584695816,-0.273164797370322,0.06411065312176942
1761338286169863200,7.55286328125,-0.9610901802450418,-0.4999720769850537,1.3870740974880753
1761338286179928300,7.56292822265625,-1.1573773069769144,-0.4693191280353814,2.5076953528672457
1761338286189994200,7.572994140625,-1.6788959202617406,-0.1399140090595931,3.268131443342566
1761338286200059100,7.58305908203125,-2.4865707317739725,0.24210659208800642,3.530001341575384
1761338286210125300,7.593125244140625,-3.054784460738301,0.6111174895368516,3.312126067891717
1761338286220191200,7.603191162109375,-3.311144655638933,1.0071334078870713,3.142374481385946
1761338286230256400,7.61325634765625,-3.106584790602326,1.2354147786423564,2.9236832151442766
1761338286240322300,7.623322265625,-2.478175243872404,1.348955233104527,2.4967419971764087
1761338286250387200,7.63338720703125,-1.6173200463145971,1.4358856207996606,1.9363301741346717
1761338286260453000,7.643453125,-0.7068062070965766,1.5333298037245868,1.2968018520191311
1761338286270519300,7.653519287109375,0.2136567792057991,1.5519184765994547,0.77378642430529
1761338286280584400,7.66358447265625,1.1324228984624147,1.4734389602549374,0.3826438841450959
1761338286290650400,7.673650390625,1.9983254425376653,1.4006357359811663,0.11837240466326475
1761338286300716300,7.68371630859375,2.8762019175231455,1.3857121614851056,-0.03263122675269842
1761338286310781200,7.69378125,3.5342093146592375,1.2479486815229057,-0.10141958936192094
1761338286320847400,7.703847412109375,3.80765274630785,0.8911345274221152,-0.23215865058004856
1761338286330912300,7.713912353515625,3.808431913986802,0.5271161410309374,-0.4893354225605726
1761338286340978400,7.723978515625,3.520480649036169,0.21017902009263634,-0.6677011081546544
1761338286351044000,7.734044189453125,2.9896856733620165,-0.21597082830183206,-0.6811709767110645
1761338286361109200,7.744109130859375,2.2150322569638488,-0.5854354974001645,-0.5225182918466628
1761338286371175200,7.754175048828125,0.89913787420094,-0.5949144331568852,-0.23200630956254897
1761338286381241300,7.764241455078125,-0.5657628286808729,-0.3166253515753895,0.28269575557522475
1761338286391306500,7.774306396484375,-1.8729308841526506,-0.13314959295857698,0.9205189542733132
1761338286401372200,7.7843720703125,-2.8629057980984447,0.09943348444546572,1.3530483476370572
1761338286411437300,7.794437255859375,-3.3276375252783295,0.27088790194690227,1.4439726272739468
1761338286421503200,7.804503173828125,-3.267803526562452,0.2798505952771753,1.22231988087818
1761338286431569400,7.8145693359375,-2.7236761911064384,0.3118767688088119,0.9342897054724395
1761338286441634300,7.82463427734375,-2.1255553996562955,0.6149998839281499,0.5920167754866182
1761338286451700200,7.8347001953125,-1.6924971601128578,0.9228691706612706,0.3431893141783774
1761338286461765400,7.844765380859375,-1.0632260281175374,1.007355087813735,0.3270914352059364
1761338286471831300,7.854831298828125,-0.39198739348649975,0.7500033976577222,0.3553061606906354
1761338286481897500,7.8648974609375,0.2325350826770067,0.439104205176793,0.23646248525381086
1761338286491962000,7.874962158203125,0.8761761008083819,0.24666250182669608,-0.06365574896112083
1761338286502028300,7.8850283203125,1.4686206001877784,0.17469660515990107,-0.38075375954955815
1761338286512094200,7.89509423828125,1.9703473022878168,0.12688691583462058,-0.6172825880378484
1761338286522159400,7.905159423828125,2.4210545957684517,0.04595620694570243,-0.7393100080773234
1761338286532225300,7.915225341796875,2.629108148139715,0.06001958441585302,-0.8744818641111254
1761338286542290200,7.925290283203125,2.4773107359975577,0.2711730755638331,-0.9083702513180673
1761338286552356400,7.9353564453125,2.1342337961524724,0.5545771255388856,-0.7182249883420765
1761338286562422300,7.94542236328125,1.7720166870296001,0.7881768417727202,-0.4251797612532973
1761338286572487400,7.9554873046875,1.4149065456569194,0.845786296306923,-0.19040172195509075
1761338286582553300,7.96555322265625,1.2094716513514518,0.9552142739489674,-0.001757072800397873
1761338286592619300,7.975619384765625,1.1342524519771338,1.0994059603277593,0.19953356130719183
1761338286602684200,7.98568408203125,1.1457786391198634,1.1339796263851225,0.2790096874736249
1761338286612750300,7.995750244140625,1.244336043983698,0.9635723524495958,0.29848084227144717
1761338286622815500,8.0058154296875,1.3710153814822434,0.5206922089306637,0.35844197449833154
1761338286632881400,8.01588134765625,1.5443933417916298,0.05617174988128244,0.31195158761069175
1761338286642946300,8.0259462890625,1.5337895301908253,-0.23726883320063352,0.21327662078179419
1761338286653012200,8.03601220703125,1.148907000273466,-0.34054603312797843,0.09555142798088491
1761338286663077400,8.046077392578125,0.5105997443854808,-0.37394882877506314,0.05330576599091291
1761338286673143300,8.056143310546876,-0.3559183012396097,-0.3421108712919056,0.05591733672879636
1761338286683209200,8.066209228515625,-0.974096376812458,-0.25039156881980595,0.056074134725704786
1761338286693274400,8.0762744140625,-1.184211537888646,-0.2586563247474842,0.06482698469758033
1761338286703340300,8.08634033203125,-1.1064701265603303,-0.43857039056103675,0.056489291397854684
1761338286713406200,8.09640625,-0.8765636388212442,-0.5560638934979215,0.004248889616131782
1761338286723471400,8.106471435546876,-0.7247276482343673,-0.5770847254231571,-0.09828509072847663
1761338286733537300,8.116537353515625,-0.7340203772366046,-0.5949345991620794,-0.2603986566364765
1761338286743602200,8.126602294921875,-0.9024053515642881,-0.5873150275364518,-0.4236791474319994
1761338286753668400,8.13666845703125,-1.0382722041249275,-0.414441838411428,-0.5449000733941793
1761338286763734300,8.146734375,-1.1025947464317083,-0.06751864406750537,-0.7115843082185834
1761338286773799200,8.156799072265626,-1.158369825145602,0.26783154658358543,-0.8648509161304682
1761338286783865000,8.166864990234375,-1.1564040780305862,0.25451814723052085,-0.8601580090738833
1761338286793931300,8.17693115234375,-0.8290332413613796,0.45675472041871396,-0.8158707582537085
1761338286803996400,8.186996337890625,-0.39935061573088165,0.8370045855667442,-0.7422475958991795
1761338286814062300,8.197062255859375,-0.2555354345142841,1.0829057110995053,-0.5496824853651225
1761338286824127200,8.207127197265624,-0.3418032666474581,1.1841517705254256,-0.24083982355520128
1761338286834193200,8.217193115234375,-0.43921968478262424,1.1326544421959668,0.1383865072313696
1761338286844259300,8.22725927734375,-0.6581815846592187,1.007295101254806,0.44882630203962326
1761338286854324200,8.23732421875,-0.957781201827526,0.8157913363419472,0.6682886257190257
1761338286864390400,8.247390380859375,-1.3374305072665214,0.6511703907229006,0.7735784075777977
1761338286874455300,8.257455322265624,-1.6934955235004423,0.6104095969958231,0.8309975271716713
1761338286884520200,8.267520263671875,-1.9651649312138557,0.7066068851321935,0.9410470707781612
1761338286894586400,8.27758642578125,-2.0780647496849296,0.8299008910413831,1.0347263482116162
1761338286904651500,8.287651611328124,-2.0524790575295686,1.0045311894994229,1.1507366999186575
1761338286914717400,8.297717529296875,-2.189306279554963,1.1702597310341893,1.3105362167306243
1761338286924783400,8.307783447265624,-2.24589676630497,1.254928019016236,1.459069658640772
1761338286934848300,8.31784814453125,-2.1441110470443965,1.3599702558547258,1.5041105773724615
1761338286944914400,8.32791455078125,-1.8377847519695758,1.3905505414269863,1.358194186092913
1761338286954979300,8.337979248046874,-1.095855209043622,1.262288464781642,1.1083239377334713
1761338286965045500,8.34804541015625,0.015883213308453558,1.0542246832773088,0.8744399246655404
1761338286975111400,8.358111328125,1.246269642394781,0.9024256636999547,0.7128280977346003
1761338286985176300,8.36817626953125,2.3527818545311687,0.845386337203905,0.582820419530943
1761338286995242200,8.3782421875,3.0295465591073034,0.784403972170502,0.49412693115342404
1761338287005308400,8.388308349609375,3.4289871912091967,0.6864297740221024,0.5400917232643813
1761338287015373600,8.39837353515625,3.5892946575433013,0.6044754942391067,0.5463289371535182
1761338287025439500,8.408439453125,3.5343139440774913,0.4616063251683488,0.4156802210999653
1761338287035504400,8.41850439453125,3.2974878862082955,0.3329579891517758,0.19021381643386556
1761338287045570300,8.4285703125,2.9444068542212247,0.23658673268798738,-0.029226934734545646
1761338287055636500,8.438636474609375,2.515117027300596,0.15382880837190896,-0.06690828448366373
1761338287065701400,8.448701416015625,2.039351864930987,0.0469449987873435,0.10231204468961805
1761338287075767600,8.458767578125,1.427813373503089,-0.026300416295975446,0.40798217741064724
1761338287085833200,8.468833251953125,0.6214233411043882,0.03079290540963411,0.7411272135671227
1761338287095898400,8.4788984375,-0.22318857766091824,0.13808577071912587,1.003703287307918
1761338287105964500,8.488964599609375,-0.9940414327323436,0.12591675562821328,1.0961299343317747
1761338287116029400,8.499029541015625,-1.5017290890634059,0.07822619917057454,1.0970267370410263
1761338287126095400,8.509095458984374,-1.6994073778927326,-0.03156768917441368,1.090870479433611
1761338287136161300,8.519161376953125,-1.6951479668825864,-0.1957340228937566,1.090828905314207
1761338287146226400,8.529226318359376,-1.7438988460481166,-0.2918970069017261,1.1405463644895701
1761338287156292400,8.539292236328125,-2.008057732000947,-0.3489830951489508,1.1547622291076927
1761338287166358500,8.549358642578126,-1.8494588231503963,-0.4437164847452193,1.3020366839326918
1761338287176423400,8.55942333984375,-1.3547352778106927,-0.5913491053581238,1.382704357971251
1761338287186489300,8.5694892578125,-0.7420557996541262,-0.7443189953457564,1.4080541955441235
1761338287196554500,8.579554443359376,-0.13748773176074028,-0.7828934214770793,1.5335118822932243
1761338287206620400,8.589620361328125,0.3632563890427351,-0.6759497349314392,1.5943796079710124
1761338287216686600,8.5996865234375,0.6750602387458086,-0.5509649263910948,1.6565455567657947
1761338287226751200,8.609751220703124,0.7883961105465889,-0.5064442321412265,1.742930001015961
1761338287236817400,8.6198173828125,0.7368313430041075,-0.49922443695552643,1.7352412000790238
1761338287246882600,8.629882568359376,0.48292321743071076,-0.5224253528662025,1.5773770352438092
1761338287256948500,8.639948486328125,0.13830723145008086,-0.4957769999153912,1.3719158374533056
1761338287267014400,8.650014404296876,-0.13034195165932178,-0.41384193628951904,1.1737979881629348
1761338287277079300,8.660079345703124,-0.28429040435552594,-0.40260318778604265,0.9237509219318628
1761338287287145500,8.6701455078125,-0.19570786553919314,-0.48785804348438977,0.6149725575298071
1761338287297211400,8.68021142578125,0.11237024163901806,-0.6618861382655798,0.29600944718923416
1761338287307276500,8.690276611328125,0.3715858259707689,-0.8390965163446963,-0.009198182586580514
1761338287317342500,8.700342529296876,0.46500002272725105,-0.9368186394281685,-0.28787113065281883
1761338287327407400,8.710407470703124,0.6240449217796326,-0.959017757885158,-0.4853421882059425
1761338287337473300,8.720473388671875,0.7169312952697277,-0.937066622839868,-0.5787335155434906
1761338287347539500,8.73053955078125,0.7308738959044218,-0.8658293327085673,-0.48820956033580004
1761338287357604600,8.7406044921875,0.5941045415461063,-0.6890325038664042,-0.2843355952041223
1761338287367670300,8.750670166015626,0.37856910898685453,-0.5381786561846733,-0.10263258188087493
1761338287377736400,8.760736328125,0.10057342086136341,-0.5239250899046659,0.05399893588684499
1761338287387801300,8.77080126953125,-0.2385965746730566,-0.5271425906464458,0.2364964240560308
1761338287397867500,8.780867431640624,-0.6001864918082952,-0.49397638023421164,0.3585195332465693
1761338287407932400,8.790932373046875,-0.8880307892531156,-0.34824893565550447,0.40108565936256196
1761338287417998300,8.800998291015626,-1.0936977387487887,-0.21756196995079516,0.48162981661930676
1761338287428064300,8.811064208984375,-1.1940601472079753,-0.12353300229683517,0.6230122177310288
1761338287438129400,8.82112939453125,-1.201367839872837,-0.05270107809603214,0.5635468331318348
1761338287448195600,8.831195556640624,-1.0750298631578683,0.17554565973728894,-0.05218834280092269
1761338287458261500,8.841261474609375,-0.8877221616953611,0.2830810285657644,-0.5060248376853764
1761338287468326400,8.851326416015626,-0.8827630779832601,0.1306507253475487,-0.3576511163815856
1761338287478392300,8.861392333984375,-1.242707565999031,0.07986117996126413,0.17592859464026986
1761338287488457500,8.87145751953125,-1.9391969617426394,0.21831951031982896,0.7749487460829317
1761338287498523400,8.8815234375,-2.7607845632731913,0.3736136785365641,1.1186377534117549
1761338287508589600,8.891589599609375,-3.464868067407608,0.8387026947215199,1.3239450027495623
1761338287518654500,8.901654541015626,-3.9903959163337945,1.2246826644867659,1.5074842915892601
1761338287528720400,8.911720458984375,-4.092158254718781,1.3657711972184479,1.7170035325989126
1761338287538786300,8.921786376953126,-3.644417409828305,1.5159880621708928,1.847455520503968
1761338287548851500,8.9318515625,-2.686229965287447,1.6187144232824444,1.7312544685304163
1761338287558917600,8.941917724609375,-1.368218444240093,1.1782504375271499,1.3330217509135602
1761338287568982300,8.951982177734376,-0.003409516182541847,0.6575185907058417,0.7756085251659155
1761338287579048400,8.96204833984375,1.000993736088276,0.297866655895859,0.19264862409904598
1761338287589114400,8.9721142578125,1.559780880537629,-0.056501054900884626,-0.21535423077344892
1761338287599179500,8.982179443359374,1.706258558961749,-0.18258439926765857,-0.371358154694736
1761338287609245200,8.9922451171875,1.6061492484807967,-0.0648868981912732,-0.2932785974532366
1761338287619310300,9.002310302734376,1.5780600490719079,0.018479586477205157,-0.06965564696304499
1761338287629376500,9.01237646484375,1.6364730750739573,0.06911927506402135,0.12771496415659783
1761338287639442400,9.0224423828125,1.4811159246236085,0.02860650128126144,0.24833441709429024
1761338287649507600,9.032507568359375,1.1007330442130565,0.00823993201367557,0.2212603860773146
1761338287659573200,9.0425732421875,0.7205091537564993,-0.032691505572572346,0.12182400642186403
1761338287669639400,9.052639404296874,0.4604974506109953,-0.02477941727377474,0.14314911852329967
1761338287679704300,9.062704345703125,0.28831600660979745,-0.16888547119572758,0.24810440773069858
1761338287689770500,9.0727705078125,0.3292231865376234,-0.19817688600122926,0.44460108556002376
1761338287699835400,9.08283544921875,0.4842109191536903,0.1735490425599739,0.6008798808999359
1761338287709901300,9.0929013671875,0.6029308220803737,0.5061693241899833,0.7775292640954256
1761338287719967500,9.102967529296874,0.8951865062266587,0.7142417639248073,0.9770713009700178
1761338287730032400,9.113032470703125,1.0918600019276141,0.8884360090531408,1.2039853288948534
1761338287740098600,9.1230986328125,1.0483376710653305,0.9146307730175555,1.3937483145549892
1761338287750164500,9.13316455078125,0.8343892154365777,0.7507743820302188,1.5722655374489725
1761338287760229400,9.1432294921875,0.42707215087115763,0.6342264163151383,1.7691139513254164
1761338287770295300,9.15329541015625,-0.08611176478862761,0.638455870578438,1.9162199907809494
1761338287780360400,9.1633603515625,-0.6126087510079145,0.7882837362132966,2.1357032841831445
1761338287790426400,9.17342626953125,-1.0966659409046173,1.0002582614205777,2.3849996781773863
1761338287800492500,9.183492431640625,-1.4805086063802242,1.1285891655184328,2.5584105178430674
1761338287810557400,9.193557373046875,-1.6888444828242062,1.108512007651478,2.614307469370961
1761338287820623400,9.203623291015624,-1.7687766821950672,1.0714609916951507,2.5874358290582893
1761338287830688500,9.2136884765625,-1.7801994089633226,1.0458594443835318,2.500352004367113
1761338287840754400,9.22375439453125,-1.586536200994253,0.9988484676878899,2.365127249102294
1761338287850820400,9.2338203125,-1.307807522419095,0.9176227944403886,2.0783106872700152
1761338287860885500,9.243885498046875,-0.9273597600787877,0.8289143642220645,1.7548469410419463
1761338287870951400,9.253951416015624,-0.437276734021306,0.628605946084857,1.4154863913714886
1761338287881017600,9.264017578125,0.08376549392342567,0.36035675861109046,1.0146478751704096
1761338287891082800,9.274082763671874,0.5463210461080074,0.1115306855423376,0.571905130828172
1761338287901148700,9.284148681640625,0.9293050489276647,-0.10082494793701917,0.0994764194048941
1761338287911213800,9.2942138671875,1.2674948012530802,-0.15229158886726946,-0.32347529053539037
1761338287921279700,9.30427978515625,1.5031097297668456,-0.27156682412177324,-0.61840326263085
1761338287931345700,9.314345703125,1.5762345872104166,-0.47624914649426936,-0.8249746136203407
1761338287941410800,9.324410888671874,1.464305659598112,-0.6603660890914499,-0.9249997529491781
1761338287951476700,9.334476806640625,1.2591916678100823,-0.7714436605714261,-0.899783186367154
1761338287961543000,9.34454296875,1.1023504162818192,-0.747544094872102,-0.7724762184895575
1761338287971607800,9.35460791015625,0.9840624750316143,-0.6692234954163432,-0.5959973695553838
1761338287981673700,9.364673828125,0.8777601551294326,-0.631109234142676,-0.30391974538974464
1761338287991739000,9.37473876953125,0.7692208699554205,-0.6283211377941071,0.053869172027334565
1761338288001804800,9.3848046875,0.634694910609722,-0.540481891625747,0.3867597219660878
1761338288011871000,9.39487109375,0.4211211335122585,-0.42087431914433837,0.672128057751432
1761338288021935600,9.404935546875,0.17195698759555816,-0.33706140588261185,0.917996523123607
1761338288032001800,9.415001708984375,-0.13719722438156604,-0.3211850607063621,1.077092202515155
1761338288042067700,9.425067626953124,-0.5207727633535861,-0.31305889126546677,1.1309865820489824
1761338288052132900,9.4351328125,-0.7615835069447755,-0.285654166989401,1.1809438413295894
1761338288062198800,9.44519873046875,-0.8534288469493388,-0.24709683812335131,1.2573802344739435
1761338288072263700,9.455263671875,-0.8405231881469488,-0.15650646661594508,1.3945987939044833
1761338288082329900,9.465329833984375,-0.7629810987830161,-0.04312792471721768,1.5954942912146448
1761338288092395800,9.475395751953124,-0.6679243955165147,0.1016379813529551,1.7355346300676464
1761338288102461000,9.4854609375,-0.5293418542563915,0.2717515330389142,1.7455195791177451
1761338288112526800,9.49552685546875,-0.44932197660207746,0.36539829644225535,1.6838807229369879
1761338288122592800,9.5055927734375,-0.3951882353544235,0.4208957272585481,1.5517460426419973
1761338288132657700,9.51565771484375,-0.3794154966831207,0.48069735807478425,1.3865471510045229
1761338288142723800,9.525723876953125,-0.39764790346622464,0.6163261640958487,1.250479369044304
1761338288152789000,9.5357890625,-0.357051689183712,0.7243613722052424,1.1655724500007927
1761338288162854700,9.545854736328126,-0.2106014832884073,0.7091358190879226,1.0824521951783448
1761338288172920600,9.555920654296875,-0.013197335225343703,0.6541377891611307,0.9691358317956328
1761338288182985700,9.56598583984375,0.12804244254529476,0.6415939494084566,0.8769903398007154
1761338288193052000,9.576052001953125,0.10105155976712703,0.6687074356529862,0.8574961694534867
1761338288203116800,9.58611669921875,-0.051259647116065024,0.6627597062297165,0.9291255276422947
1761338288213182700,9.5961826171875,-0.2004898391187191,0.7119551142923534,1.0252060209985823
1761338288223248600,9.60624853515625,-0.29386545743048187,0.8669756531994789,1.147928949021548
1761338288233313800,9.616313720703126,-0.29585575446486473,1.0408031839072704,1.2810142080396414
1761338288243379700,9.626379638671875,-0.14317454522550105,1.2190624865174293,1.3230286185570062
1761338288253446000,9.63644580078125,0.10882686994373798,1.295334409815073,1.3686181110821662
1761338288263510800,9.6465107421875,0.3432125489234924,1.3130328558519482,1.4556032977044582
1761338288273576700,9.65657666015625,0.5385737929821014,1.2989008701249956,1.560950508838892
1761338288283641900,9.666641845703126,0.6155307759344577,0.9551526799548417,1.4064423764333127
1761338288293707800,9.676707763671875,0.6645633946508169,0.8977502923000603,1.1180062505751847
1761338288303774000,9.68677392578125,0.6438999613285065,0.9219014946728944,1.0284853349301963
1761338288313838800,9.6968388671875,0.5466659140229225,0.7103962674777954,0.9656796999923885
1761338288323904800,9.70690478515625,0.26482407186329365,0.49983328956887124,0.8417221156079322
1761338288333970000,9.716969970703126,-0.17116905208826064,0.4628047046400606,0.7584567532263696
1761338288344035800,9.727035888671875,-0.4746154078125953,0.403898780554533,0.806141318334639
1761338288354102000,9.73710205078125,-0.616744243377447,0.3457360029865056,1.0112693386480212
1761338288364166700,9.747166748046874,-0.6707838766008615,0.2670194630157202,1.137586564835906
1761338288374232800,9.75723291015625,-0.6597802520275116,0.09851057004742324,1.2007099604859948
1761338288384298800,9.767298828125,-0.6501233658879995,-0.08634016671702265,1.2343772522881626
1761338288394364000,9.777364013671875,-0.6182160694956779,-0.17599939485415816,1.2217998025268315
1761338288404429600,9.7874296875,-0.5384031125903129,-0.22033201918601988,1.2172438197229056
1761338288414495700,9.797495849609374,-0.45532034023404117,-0.17847265309989452,1.3376117090523243
1761338288424561000,9.807560791015625,-0.24916589948236942,0.1248070408206433,1.7631088656917213
1761338288434626800,9.817626708984376,-0.219190447935462,0.1471794700179249,2.0806758089661597
1761338288444692000,9.82769189453125,-0.3242687790006399,0.22184008566141128,2.187974884820729
1761338288454757600,9.837757568359375,-0.6395505339473485,0.29437457599639894,2.1648538292132318
1761338288464823800,9.84782373046875,-0.8381909458070993,0.4730427516683936,2.088654971151799
1761338288474888700,9.857888671875,-0.8409504736483097,0.5884110791448504,2.014617967299372
1761338288484955000,9.867954833984374,-0.5823959835737943,0.5530719816729426,2.0191994498707353
1761338288495019800,9.878019775390625,-0.14683482129871844,0.4414728705368936,2.018923409408331
1761338288505085700,9.888085693359375,0.4144382947474718,0.18309505220353603,1.836184038774669
1761338288515151600,9.898151611328124,0.91955989998281,-0.04756568796895444,1.456874486684054
1761338288525216800,9.908216796875,1.0112123477637767,-0.19958302647210657,1.0991931212946773
1761338288535283000,9.918282958984374,0.8454027768820523,-0.2807736284062266,0.9428511245254426
1761338288545348900,9.928348876953125,0.6804384246528148,-0.29612339242510494,0.8943982784584165
1761338288555413800,9.938413818359376,0.5295353310018778,-0.35605902488455177,0.7923632606118917
1761338288565479700,9.948479736328125,0.4531541021108627,-0.6184139301553369,0.49635863572824745
1761338288575544800,9.958544921875,0.7437105811238288,-0.996549689226225,0.1588706384640187
1761338288585610800,9.96861083984375,1.0048024807214737,-0.6791830177642405,0.4500396964173764
1761338288595677000,9.978677001953125,0.7838613897264003,-0.056079541553184384,1.4078046046972275
1761338288605741800,9.988741943359376,0.19419103123545645,0.04261624886803329,1.7110612830683587
1761338288615807700,9.998807861328125,0.001724339574575424,0.21008856533020734,1.5509037465989588
1761338288625874000,10.0088740234375,-0.3312526465386152,0.322836773436144,1.687613333594054
1761338288635938800,10.018938720703124,-0.8145411901503801,0.16226956018730998,1.6430542070299385
1761338288646004700,10.029004638671875,-1.1283651475042105,-0.15945179935283957,1.27427437839061
1761338288656069600,10.039069580078126,-1.1665788505643606,-0.21904621715918182,0.7453855285987258
