time,seconds_elapsed,z,y,x
1761338278691106800,0.07410693359375,0.10263939201831818,-0.131160706281662,0.18408790230751038
1761338278701172700,0.0841728515625,0.15985049307346344,-0.09700380265712738,0.25355297327041626
1761338278711239000,0.094239013671875,0.23026339709758759,-0.04692518338561058,0.29294031858444214
1761338278721304000,0.104303955078125,0.3190010190010071,-0.0060728248208761215,0.2946817874908447
1761338278731369700,0.11436962890625,0.40008029341697693,-0.0036882245913147926,0.27361124753952026
1761338278741435000,0.124434814453125,0.4728010892868042,-0.01621120795607567,0.24921880662441254
1761338278751500800,0.134500732421875,0.5257143974304199,-0.02986857295036316,0.22467002272605896
1761338278761567000,0.14456689453125,0.5490365028381348,-0.057947345077991486,0.1947384774684906
1761338278771631600,0.154631591796875,0.5489209890365601,-0.09349818527698517,0.1604621708393097
1761338278781697800,0.16469775390625,0.5463651418685913,-0.16725708544254303,0.10006994009017944
1761338278791763700,0.174763671875,0.5331102013587952,-0.28734534978866577,0.037084732204675674
1761338278801828900,0.184828857421875,0.4870889484882355,-0.38159459829330444,-0.040479302406311035
1761338278811894800,0.194894775390625,0.43128541111946106,-0.4446633458137512,-0.15356066823005676
1761338278821959700,0.204959716796875,0.4100477695465088,-0.3612124025821686,-0.2547410726547241
1761338278832025900,0.21502587890625,0.41565343737602234,-0.17848068475723267,-0.3487969934940338
1761338278842091800,0.225091796875,0.41432398557662964,-0.07707656174898148,-0.4288622736930847
1761338278852157000,0.235156982421875,0.385047048330307,-0.025005120784044266,-0.4768843948841095
1761338278862222800,0.245222900390625,0.33939167857170105,0.007126449607312679,-0.5012829303741455
1761338278872288500,0.25528857421875,0.28510504961013794,0.02889036014676094,-0.4955563545227051
1761338278882354400,0.2653544921875,0.25142189860343933,0.04903717339038849,-0.44848525524139404
1761338278892420400,0.27542041015625,0.2253011018037796,0.032477471977472305,-0.39544761180877686
1761338278902485200,0.2854853515625,0.19271279871463776,-0.015745453536510468,-0.34637194871902466
1761338278912551400,0.295551513671875,0.15757445991039276,-0.06151768937706947,-0.32192566990852356
1761338278922617300,0.305617431640625,0.1324848085641861,-0.0977177694439888,-0.3348683714866638
1761338278932682500,0.3156826171875,0.1313599795103073,-0.11590799689292908,-0.372529000043869
1761338278942748400,0.32574853515625,0.1662665605545044,-0.12156454473733902,-0.3837432861328125
1761338278952813300,0.335813232421875,0.22494183480739594,-0.14184382557868958,-0.315190851688385
1761338278962879500,0.34587939453125,0.2900334894657135,-0.20060621201992035,-0.13946135342121124
1761338278972945400,0.3559453125,0.33842819929122925,-0.25690534710884094,0.1269889771938324
1761338278983010300,0.36601025390625,0.34220588207244873,-0.2550608515739441,0.4674496054649353
1761338278993076200,0.376076171875,0.3181501626968384,-0.0799112468957901,0.8529481887817383
1761338279003142400,0.386142333984375,0.3210793733596802,0.21976201236248016,1.1639167070388794
1761338279013207600,0.39620751953125,0.44420477747917175,0.5478305816650391,1.1778922080993652
1761338279023273500,0.4062734375,0.621222198009491,0.8203220367431641,0.938002347946167
1761338279033338400,0.41633837890625,0.7661008834838867,0.9472818970680237,0.6394038200378418
1761338279043404300,0.426404296875,0.8563525080680847,0.9292839765548706,0.3959030210971832
1761338279053470500,0.436470458984375,0.8868423700332642,0.7721545100212097,0.24515332281589508
1761338279063535400,0.446535400390625,0.8695158362388611,0.4360242187976837,0.15579067170619965
1761338279073601500,0.4566015625,0.8255007266998291,0.02936437353491783,0.09740783274173737
1761338279083666400,0.46666650390625,0.7102271318435669,-0.23112234473228455,0.09235741198062897
1761338279093732400,0.476732421875,0.4956156611442566,-0.4048650860786438,0.07736045122146606
1761338279103798300,0.48679833984375,0.2406669706106186,-0.5555145144462585,0.07026046514511108
1761338279113863400,0.496863525390625,0.044570695608854294,-0.5994040369987488,0.0952606201171875
1761338279123929600,0.5069296875,-0.07189200073480606,-0.5154249668121338,0.14600369334220886
1761338279133995300,0.516995361328125,-0.1250855177640915,-0.3279775381088257,0.2136847972869873
1761338279144060400,0.527060302734375,-0.08027996867895126,-0.06101720780134201,0.295746386051178
1761338279154126300,0.537126220703125,0.06235344335436821,0.23338225483894348,0.37113747000694275
1761338279164191500,0.54719140625,0.2604620158672333,0.5223325490951538,0.4635949432849884
1761338279174257400,0.55725732421875,0.4459010362625122,0.7281622886657715,0.5967351794242859
1761338279184323300,0.5673232421875,0.5518791675567627,0.7628533840179443,0.7620146870613098
1761338279194388500,0.577388427734375,0.5897901654243469,0.6382700800895691,0.9242538213729858
1761338279204454400,0.587454345703125,0.6030855178833008,0.42459744215011597,1.0068155527114868
1761338279214520600,0.5975205078125,0.6127200126647949,0.2156187891960144,0.9489743113517761
1761338279224585200,0.607585205078125,0.6148622632026672,0.07011991739273071,0.7476691603660583
1761338279234651400,0.6176513671875,0.6106880903244019,0.031266987323760986,0.45562952756881714
1761338279244716300,0.62771630859375,0.592657208442688,0.05154881998896599,0.13491570949554443
1761338279254782500,0.637782470703125,0.5645791292190552,0.06285293400287628,-0.18446063995361328
1761338279264848400,0.647848388671875,0.5261968374252319,0.031705401837825775,-0.4414615333080292
1761338279274913300,0.657913330078125,0.4828687906265259,-0.05689513310790062,-0.5987571477890015
1761338279284979500,0.6679794921875,0.42948412895202637,-0.20304623246192932,-0.6474000811576843
1761338279295045400,0.67804541015625,0.368570476770401,-0.33927133679389954,-0.6204670071601868
1761338279305110500,0.688110595703125,0.3146883249282837,-0.3832169473171234,-0.5471848249435425
1761338279315176400,0.698176513671875,0.25798115134239197,-0.33294782042503357,-0.42233848571777344
1761338279325241300,0.708241455078125,0.21093055605888367,-0.24982842803001404,-0.2809552550315857
1761338279335307300,0.718307373046875,0.19372773170471191,-0.16690202057361603,-0.15049432218074799
1761338279345373400,0.72837353515625,0.21881896257400513,-0.07999163866043091,-0.06587769836187363
1761338279355438600,0.7384384765625,0.29969584941864014,0.04679906368255615,-0.033074356615543365
1761338279365504500,0.74850439453125,0.3882473111152649,0.20034654438495636,-0.045892950147390366
1761338279375570200,0.758570068359375,0.46167540550231934,0.33754292130470276,-0.07675576210021973
1761338279385635300,0.76863525390625,0.5062644481658936,0.42361894249916077,-0.10899972170591354
1761338279395701500,0.778701416015625,0.5288355946540833,0.4196785092353821,-0.1402972936630249
1761338279405766400,0.788766357421875,0.5254693627357483,0.3463233411312103,-0.17458921670913696
1761338279415832600,0.79883251953125,0.5110610127449036,0.23186811804771423,-0.20571555197238922
1761338279425898200,0.808898193359375,0.47287872433662415,0.1418471485376358,-0.22720246016979218
1761338279435963400,0.81896337890625,0.42470577359199524,0.06102192401885986,-0.24929621815681458
1761338279446029300,0.829029296875,0.38925909996032715,-0.009398717433214188,-0.2691439688205719
1761338279456094500,0.839094482421875,0.36675503849983215,-0.03804292902350426,-0.28377771377563477
1761338279466160400,0.849160400390625,0.34732699394226074,-0.039290353655815125,-0.31073927879333496
1761338279476226300,0.859226318359375,0.3299766182899475,-0.04721623286604881,-0.3622927963733673
1761338279486291500,0.86929150390625,0.32304200530052185,-0.053139105439186096,-0.42661428451538086
1761338279496357400,0.879357421875,0.32015785574913025,-0.05707770213484764,-0.49853751063346863
1761338279506423600,0.889423583984375,0.31601452827453613,-0.049401938915252686,-0.5586307048797607
1761338279516488200,0.89948828125,0.30533483624458313,-0.06587297469377518,-0.5872427225112915
1761338279526554400,0.909554443359375,0.28829991817474365,-0.12184862792491913,-0.5682170987129211
1761338279536619500,0.91961962890625,0.2769615054130554,-0.21375048160552979,-0.5212677717208862
1761338279546685400,0.929685546875,0.2964097857475281,-0.3015378713607788,-0.45985230803489685
1761338279556751600,0.939751708984375,0.29460838437080383,-0.371239572763443,-0.4357285797595978
1761338279566816300,0.949816162109375,0.23608702421188354,-0.40990760922431946,-0.37232404947280884
1761338279576882400,0.95988232421875,0.17057053744792938,-0.40878236293792725,-0.25665754079818726
1761338279586948400,0.9699482421875,0.11705031245946884,-0.3137993812561035,-0.08869651705026627
1761338279597013500,0.980013427734375,0.03391200676560402,-0.17546023428440094,0.07361462712287903
1761338279607079400,0.990079345703125,-0.08178209513425827,-0.07258285582065582,0.21239249408245087
1761338279617144300,1.000144287109375,-0.25349926948547363,-0.0037415074184536934,0.3198052644729614
1761338279627210500,1.01021044921875,-0.44848716259002686,0.013780227862298489,0.4196479916572571
1761338279637276400,1.0202763671875,-0.6158058643341064,-0.07465510815382004,0.5276528000831604
1761338279647341600,1.030341552734375,-0.6983577013015747,-0.18259409070014954,0.6194732189178467
1761338279657407500,1.040407470703125,-0.6641891598701477,-0.11375747621059418,0.5773543119430542
1761338279667472400,1.050472412109375,-0.6140285134315491,-0.04336106777191162,0.415853351354599
1761338279677538300,1.060538330078125,-0.6432843804359436,-0.09815775603055954,0.14026346802711487
1761338279687604500,1.0706044921875,-0.7762339115142822,-0.15512676537036896,-0.15334472060203552
1761338279697669600,1.080669677734375,-0.9650846719741821,-0.11777287721633911,-0.32883402705192566
1761338279707735300,1.0907353515625,-1.145883560180664,-0.0831158310174942,-0.3234560489654541
1761338279717801200,1.10080126953125,-1.2626984119415283,-0.09508541226387024,-0.25910085439682007
1761338279727866400,1.110866455078125,-1.323979377746582,-0.032476890832185745,-0.13248302042484283
1761338279737932500,1.1209326171875,-1.325219750404358,0.10258626192808151,0.03485928103327751
1761338279747997400,1.13099755859375,-1.2130258083343506,0.3135645389556885,0.24631986021995544
1761338279758063400,1.1410634765625,-1.0049810409545898,0.5603470802307129,0.4532352685928345
1761338279768129300,1.15112939453125,-0.7469492554664612,0.7332810163497925,0.6179725527763367
1761338279778194400,1.1611943359375,-0.46775588393211365,0.8309881687164307,0.7313575744628906
1761338279788260400,1.17126025390625,-0.23804622888565063,0.8860506415367126,0.771071195602417
1761338279798326500,1.181326416015625,-0.06527099758386612,0.8869441151618958,0.7866016626358032
1761338279808391400,1.191391357421875,0.04883838817477226,0.8003193140029907,0.8062970042228699
1761338279818457300,1.201457275390625,0.1370125114917755,0.6390557289123535,0.8680891394615173
1761338279828522500,1.2115224609375,0.22264379262924194,0.4177805781364441,0.9676077365875244
1761338279838588400,1.22158837890625,0.30470356345176697,0.13139626383781433,1.0932137966156006
1761338279848654600,1.231654541015625,0.3786933720111847,-0.16941817104816437,1.213614821434021
1761338279858719200,1.24171923828125,0.4338093400001526,-0.42452681064605713,1.24313485622406
1761338279868785400,1.251785400390625,0.4469563066959381,-0.5396674871444702,1.1416833400726318
1761338279878851000,1.26185107421875,0.4199957847595215,-0.5195081830024719,0.9053510427474976
1761338279888916200,1.271916259765625,0.3613489866256714,-0.4182872772216797,0.5453185439109802
1761338279898982400,1.281982421875,0.26924005150794983,-0.2861173748970032,0.096927210688591
1761338279909047300,1.29204736328125,0.1466536819934845,-0.14133916795253754,-0.38451719284057617
1761338279919113500,1.302113525390625,0.03177870064973831,-0.015709200873970985,-0.8312248587608337
1761338279929179100,1.31217919921875,-0.0885370597243309,-0.04215545579791069,-1.1269723176956177
1761338279939244300,1.322244384765625,-0.17181548476219177,-0.15350587666034698,-1.2611095905303955
1761338279949310200,1.332310302734375,-0.2219659984111786,-0.2457316815853119,-1.2430659532546997
1761338279959375400,1.342375244140625,-0.23253153264522552,-0.2167784720659256,-1.0640798807144165
1761338279969441300,1.352441162109375,-0.22626590728759766,-0.09308556467294693,-0.7988514304161072
1761338279979507200,1.362507080078125,-0.1828853040933609,0.06057276576757431,-0.5308523178100586
1761338279989572400,1.372572265625,-0.10578785836696625,0.22988083958625793,-0.309915155172348
1761338279999638300,1.38263818359375,-0.015557944774627686,0.35714229941368103,-0.15015892684459686
1761338280009704400,1.392704345703125,0.061467066407203674,0.3985046446323395,-0.01975245028734207
1761338280019769000,1.40276904296875,0.1078769713640213,0.41622981429100037,0.07223466038703918
1761338280029835300,1.412835205078125,0.12653721868991852,0.38081803917884827,0.0878831297159195
1761338280039900400,1.422900390625,0.12679150700569153,0.2842082977294922,0.02662886120378971
1761338280049966300,1.43296630859375,0.11627841740846634,0.19125518202781677,-0.10942058265209198
1761338280060032300,1.4430322265625,0.1001957580447197,0.12129981070756912,-0.2988370358943939
1761338280070097200,1.45309716796875,0.06184863671660423,0.04687537997961044,-0.48554912209510803
1761338280080163300,1.463163330078125,0.03614838048815727,0.00417517963796854,-0.6264610290527344
1761338280090229200,1.473229248046875,0.03262528404593468,0.011286885477602482,-0.6898304224014282
1761338280100294400,1.48329443359375,0.031633976846933365,-0.023075386881828308,-0.6890527009963989
1761338280110360300,1.4933603515625,0.04362911731004715,-0.06656480580568314,-0.6391519904136658
1761338280120425200,1.50342529296875,0.04328478127717972,-0.09746357798576355,-0.5437908172607422
1761338280130491100,1.5134912109375,0.030342351645231247,-0.15111616253852844,-0.43661966919898987
1761338280140557300,1.523557373046875,-0.003729180432856083,-0.20486915111541748,-0.3408495783805847
1761338280150622500,1.53362255859375,-0.04274262487888336,-0.22376267611980438,-0.2637273669242859
1761338280160688400,1.5436884765625,-0.061826176941394806,-0.1939343810081482,-0.22148337960243225
1761338280170753300,1.553753173828125,-0.08829347044229507,-0.14232605695724487,-0.19903239607810974
1761338280180819200,1.563819091796875,-0.13484002649784088,-0.07669083029031754,-0.16682802140712738
1761338280190885400,1.573885498046875,-0.17689400911331177,-0.01791379787027836,-0.12326270341873169
1761338280200950300,1.5839501953125,-0.1962529420852661,0.023775584995746613,-0.06543706357479095
1761338280211016200,1.59401611328125,-0.18998199701309204,0.05210869014263153,0.025759156793355942
1761338280221082000,1.60408203125,-0.182195246219635,0.08305128663778305,0.12656280398368835
1761338280231147300,1.614147216796875,-0.1760297566652298,0.13670332729816437,0.227085679769516
1761338280241213400,1.62421337890625,-0.1608404517173767,0.19851545989513397,0.30795523524284363
1761338280251278300,1.6342783203125,-0.14138393104076385,0.24683451652526855,0.36193618178367615
1761338280261344300,1.64434423828125,-0.13384805619716644,0.27248746156692505,0.42401376366615295
1761338280271410200,1.65441015625,-0.14818359911441803,0.2649531066417694,0.5352771878242493
1761338280281475300,1.664475341796875,-0.18693147599697113,0.257006973028183,0.6560829281806946
1761338280291541200,1.674541259765625,-0.22749994695186615,0.28331154584884644,0.6942939758300781
1761338280301607400,1.684607421875,-0.21717266738414764,0.46308013796806335,0.5966602563858032
1761338280311672300,1.69467236328125,-0.12085013091564178,0.7793393135070801,0.40338215231895447
1761338280321738200,1.70473828125,0.05636969208717346,1.0167903900146484,0.10918164253234863
1761338280331803400,1.714803466796875,0.23679032921791077,1.0710501670837402,-0.2044529765844345
1761338280341869300,1.724869384765625,0.33821362257003784,0.9815406203269958,-0.4359724819660187
1761338280351935500,1.734935546875,0.3632524013519287,0.7019593119621277,-0.5400006175041199
1761338280362000100,1.745000244140625,0.3703790307044983,0.24490047991275787,-0.4631825387477875
1761338280372066300,1.75506640625,0.2748868465423584,-0.17205706238746643,-0.2698066830635071
1761338280382132200,1.76513232421875,0.08617951720952988,-0.33843380212783813,0.03467412292957306
1761338280392197400,1.775197265625,-0.147292360663414,-0.2531149089336395,0.2889343500137329
1761338280402263300,1.78526318359375,-0.3077332079410553,-0.08701768517494202,0.5326535701751709
1761338280412328200,1.795328125,-0.4098774194717407,0.06121571734547615,0.7720791697502136
1761338280422394400,1.805394287109375,-0.4860919713973999,0.2423934042453766,0.8978197574615479
1761338280432460300,1.815460205078125,-0.47599753737449646,0.4728652238845825,0.8705369830131531
1761338280442525400,1.825525390625,-0.3467685878276825,0.7439799904823303,0.7644429802894592
1761338280452591000,1.835591064453125,-0.11899826675653458,0.9029491543769836,0.6450803875923157
1761338280462656300,1.84565625,0.12220705300569534,0.9028730988502502,0.54423588514328
1761338280472722200,1.85572216796875,0.33271634578704834,0.8037680983543396,0.5164037346839905
1761338280482788400,1.865788330078125,0.49899354577064514,0.6126752495765686,0.5522196292877197
1761338280492853500,1.875853515625,0.6080910563468933,0.34920185804367065,0.6241798400878906
1761338280502919200,1.885919189453125,0.6858346462249756,0.07020273059606552,0.6616249084472656
1761338280512985300,1.8959853515625,0.7610244750976562,-0.24101640284061432,0.5855927467346191
1761338280523050200,1.90605029296875,0.8046675324440002,-0.4688197076320648,0.3673597276210785
1761338280533116400,1.916116455078125,0.8023928999900818,-0.5734087228775024,0.054302752017974854
1761338280543181000,1.92618115234375,0.7762336134910583,-0.560279369354248,-0.29955554008483887
1761338280553247200,1.936247314453125,0.7207067012786865,-0.48801156878471375,-0.6408254504203796
1761338280563313200,1.946313232421875,0.6267412900924683,-0.44929736852645874,-0.9139699339866638
1761338280573378300,1.95637841796875,0.5004786849021912,-0.4801764488220215,-1.066084384918213
1761338280583444500,1.966444580078125,0.3676683008670807,-0.5591845512390137,-1.0628607273101807
1761338280593509000,1.976509033203125,0.25922515988349915,-0.6505893468856812,-0.9129828214645386
1761338280603575300,1.9865751953125,0.1969669610261917,-0.6351251006126404,-0.6342924237251282
1761338280613641200,1.99664111328125,0.2109815776348114,-0.5357828140258789,-0.3018593490123749
1761338280623706400,2.006706298828125,0.3009311556816101,-0.4637698531150818,-0.010171829722821712
1761338280633772300,2.016772216796875,0.4146158993244171,-0.3837301433086395,0.18584534525871277
1761338280643838200,2.026838134765625,0.5268039107322693,-0.29610276222229004,0.26998716592788696
1761338280653903400,2.0369033203125,0.6144948601722717,-0.1944299340248108,0.2613244354724884
1761338280663969300,2.04696923828125,0.6618313789367676,-0.06355917453765869,0.19432371854782104
1761338280674034400,2.057034423828125,0.6778841018676758,0.08069786429405212,0.08618979901075363
1761338280684100400,2.067100341796875,0.676793098449707,0.20184326171875,-0.05470111221075058
1761338280694166300,2.077166259765625,0.7062394022941589,0.3077704906463623,-0.23877987265586853
1761338280704231200,2.087231201171875,0.7897272706031799,0.3950941562652588,-0.45562633872032166
1761338280714297300,2.09729736328125,0.9100222587585449,0.40543946623802185,-0.6530478000640869
1761338280724363300,2.10736328125,1.0368589162826538,0.3375757336616516,-0.7745773196220398
1761338280734428200,2.11742822265625,1.1475095748901367,0.22861942648887634,-0.7776750922203064
1761338280744494000,2.127494140625,1.22588050365448,0.04841529577970505,-0.7081014513969421
1761338280754559200,2.137559326171875,1.2631096839904785,-0.12445235252380371,-0.5639658570289612
1761338280764625400,2.14762548828125,1.2451897859573364,-0.23832228779792786,-0.3932874798774719
1761338280774691300,2.15769140625,1.15733802318573,-0.30966517329216003,-0.2345028668642044
1761338280784756200,2.167756103515625,1.009787917137146,-0.31597501039505005,-0.09826353937387466
1761338280794822100,2.177822265625,0.8737123012542725,-0.25095072388648987,-0.009898788295686245
1761338280804887300,2.18788720703125,0.7967360615730286,-0.13608768582344055,-0.00583270750939846
1761338280814953200,2.197953125,0.7760499715805054,0.026061274111270905,-0.07235261052846909
1761338280825019400,2.208019287109375,0.7865812182426453,0.20760244131088257,-0.17878428101539612
1761338280835084300,2.218084228515625,0.8304898142814636,0.350321501493454,-0.2822107970714569
1761338280845150200,2.228150146484375,0.8671389818191528,0.41440126299858093,-0.35426029562950134
1761338280855216400,2.23821630859375,0.8732232451438904,0.36644068360328674,-0.35002002120018005
1761338280865281300,2.24828125,0.8274530172348022,0.259289413690567,-0.263328492641449
1761338280875347000,2.258346923828125,0.7237548828125,0.11800206452608109,-0.11983711272478104
1761338280885411800,2.268411865234375,0.6011123657226562,-0.0940631628036499,0.037941787391901016
1761338280895477800,2.278477783203125,0.5045528411865234,-0.2750404179096222,0.19218382239341736
1761338280905543700,2.288543701171875,0.4507763385772705,-0.32252952456474304,0.3008664548397064
1761338280915608800,2.29860888671875,0.41381990909576416,-0.26279962062835693,0.3510555922985077
1761338280925674800,2.3086748046875,0.40371912717819214,-0.15732668340206146,0.3760612905025482
1761338280935740700,2.31874072265625,0.3662119507789612,-0.09080997109413147,0.3726646900177002
1761338280945805800,2.328805908203125,0.29828497767448425,-0.0007304195314645767,0.35098031163215637
1761338280955871700,2.338871826171875,0.22237715125083923,0.20033158361911774,0.2967551648616791
1761338280965937000,2.34893701171875,0.12063700705766678,0.4182650148868561,0.2083842158317566
1761338280976002800,2.3590029296875,-0.021711086854338646,0.46322715282440186,0.05443113297224045
1761338280986068700,2.36906884765625,-0.10272432863712311,0.4158821105957031,-0.14221812784671783
1761338280996134000,2.3791337890625,-0.1634606420993805,0.3482804298400879,-0.2678423523902893
1761338281006199800,2.38919970703125,-0.21343998610973358,0.2973867356777191,-0.2768283188343048
1761338281016266000,2.399265869140625,-0.23812216520309448,0.21992844343185425,-0.18660761415958405
1761338281026330600,2.40933056640625,-0.21922025084495544,0.082096628844738,-0.01504691131412983
1761338281036396800,2.419396728515625,-0.16837331652641296,-0.06645023822784424,0.20187553763389587
1761338281046461700,2.429461669921875,-0.06888076663017273,-0.1515990048646927,0.44221457839012146
1761338281056528000,2.43952783203125,0.06466265022754669,-0.12235883623361588,0.6600350737571716
1761338281066593800,2.44959375,0.21719549596309662,-0.04050362482666969,0.827836275100708
1761338281076658700,2.45965869140625,0.3915662467479706,0.008393076248466969,0.921375036239624
1761338281086724900,2.469724853515625,0.5631611943244934,-0.004744283854961395,0.9555148482322693
1761338281096789800,2.479789794921875,0.6990196704864502,-0.03677012771368027,0.9175232648849487
1761338281106856000,2.48985595703125,0.7772643566131592,-0.025179265066981316,0.8232607245445251
1761338281116921900,2.499921875,0.7788518667221069,-0.028956159949302673,0.7373822927474976
1761338281126986800,2.50998681640625,0.7258679270744324,-0.029922839254140854,0.6774279475212097
1761338281137052700,2.520052734375,0.6605629920959473,0.011091438122093678,0.5981796979904175
1761338281147118800,2.530118896484375,0.5937350392341614,0.07165245711803436,0.4317699074745178
1761338281157184000,2.54018408203125,0.5112696886062622,0.1646449714899063,0.17337752878665924
1761338281167249700,2.550249755859375,0.4338715374469757,0.23232635855674744,-0.1471112072467804
1761338281177314800,2.560314697265625,0.36458542943000793,0.2646539509296417,-0.46780455112457275
1761338281187380700,2.570380615234375,0.3216644823551178,0.2653045952320099,-0.7648284435272217
1761338281197447000,2.580447021484375,0.30622002482414246,0.2107212394475937,-0.9711185097694397
1761338281207511800,2.59051171875,0.2835058569908142,0.08161094784736633,-1.0951814651489258
1761338281217577700,2.60057763671875,0.25366273522377014,-0.0907520204782486,-1.1165062189102173
1761338281227643000,2.610642822265625,0.23307861387729645,-0.16991768777370453,-1.0294597148895264
1761338281237708800,2.620708740234375,0.2397650182247162,-0.20559579133987427,-0.843141496181488
1761338281247774700,2.630774658203125,0.23258361220359802,-0.24054868519306183,-0.5952073931694031
1761338281257839600,2.640839599609375,0.19237281382083893,-0.22883716225624084,-0.33985739946365356
1761338281267905800,2.65090576171875,0.13776174187660217,-0.05474862456321716,-0.11126018315553665
1761338281277971700,2.6609716796875,0.09221875667572021,0.18145272135734558,0.06457556039094925
1761338281288036900,2.671036865234375,0.08878353238105774,0.29907602071762085,0.2326551228761673
1761338281298102800,2.681102783203125,0.15589039027690887,0.3155825436115265,0.41411733627319336
1761338281308167700,2.691167724609375,0.3577236831188202,0.36025241017341614,0.5107617974281311
1761338281318233900,2.70123388671875,0.4181758463382721,0.40326911211013794,0.47680678963661194
1761338281328299800,2.7112998046875,0.23317153751850128,0.40304744243621826,0.39641404151916504
1761338281338365000,2.721364990234375,0.030551042407751083,0.44050827622413635,0.26282936334609985
1761338281348430800,2.731430908203125,-0.08607742935419083,0.4149695336818695,0.13817517459392548
1761338281358497000,2.7414970703125,-0.13343696296215057,0.3846782147884369,0.02815973199903965
1761338281368561700,2.751561767578125,-0.11104090511798859,0.3464222252368927,-0.06371819227933884
1761338281378627800,2.7616279296875,-0.037214089184999466,0.28054413199424744,-0.13829682767391205
1761338281388692700,2.771692626953125,0.06800062954425812,0.19419078528881073,-0.19072316586971283
1761338281398759000,2.781759033203125,0.1540929079055786,0.11101440340280533,-0.24612995982170105
1761338281408824600,2.791824462890625,0.17266279458999634,-0.007156179752200842,-0.31554391980171204
1761338281418889700,2.8018896484375,0.09933852404356003,-0.08491169661283493,-0.414888858795166
1761338281428956000,2.811955810546875,-0.02853354811668396,-0.04576032981276512,-0.5170576572418213
1761338281439020800,2.822020751953125,-0.20156897604465485,0.006889033131301403,-0.5962870121002197
1761338281449087000,2.8320869140625,-0.3826654851436615,-0.008604316040873528,-0.6310293078422546
1761338281459152600,2.842152587890625,-0.5612280368804932,-0.07646538317203522,-0.5880187153816223
1761338281469217800,2.8522177734375,-0.7124488353729248,-0.09634040296077728,-0.4915527403354645
1761338281479283700,2.86228369140625,-0.8168346285820007,-0.05444035306572914,-0.34849387407302856
1761338281489350000,2.872349853515625,-0.8227112889289856,0.03392796590924263,-0.21569736301898956
1761338281499414800,2.882414794921875,-0.7338405251502991,0.11751127243041992,-0.1342075616121292
1761338281509480700,2.892480712890625,-0.5636521577835083,0.19377437233924866,-0.09771309792995453
1761338281519545900,2.9025458984375,-0.3717325031757355,0.2657244801521301,-0.03237350285053253
1761338281529611800,2.91261181640625,-0.2814083993434906,0.2802998125553131,0.08467237651348114
1761338281539678000,2.922677978515625,-0.2645905613899231,0.2837776243686676,0.21394699811935425
1761338281549742600,2.93274267578125,-0.15959782898426056,0.3909406363964081,0.2863125503063202
1761338281559808800,2.942808837890625,0.03437883406877518,0.48352569341659546,0.35925358533859253
1761338281569874000,2.9528740234375,0.2550872266292572,0.5420046448707581,0.40350762009620667
1761338281579939800,2.96293994140625,0.4238874316215515,0.5828157067298889,0.46611109375953674
1761338281590005800,2.973005859375,0.4821304678916931,0.7297893166542053,0.43888747692108154
1761338281600070700,2.983070556640625,0.41599351167678833,0.9206692576408386,0.268983393907547
1761338281610136800,2.99313671875,0.36388885974884033,1.0559810400009155,0.023053964599967003
1761338281620202800,3.00320263671875,0.3908829391002655,1.0101730823516846,-0.1830102503299713
1761338281630268000,3.013267822265625,0.4316922724246979,0.6852712631225586,-0.1773732602596283
1761338281640333800,3.023333740234375,0.3695679008960724,0.392227441072464,-0.0002765068784356117
1761338281650398700,3.033398681640625,0.21304951608181,0.2266232669353485,0.26903849840164185
1761338281660464600,3.043464599609375,-0.02023753710091114,0.055475473403930664,0.5052347779273987
1761338281670530800,3.05353076171875,-0.33532634377479553,-0.25644978880882263,0.6474096179008484
1761338281680596000,3.063595947265625,-0.7345155477523804,-0.7182430028915405,0.6974213719367981
1761338281690661600,3.07366162109375,-1.074417233467102,-0.8224431276321411,0.5404386520385742
1761338281700726800,3.083726806640625,-1.2114938497543335,-0.725098729133606,0.29066774249076843
1761338281710792700,3.093792724609375,-1.1966326236724854,-0.6963533759117126,0.07416427135467529
1761338281720859000,3.10385888671875,-1.0301427841186523,-0.723884105682373,-0.019193103536963463
1761338281730923800,3.113923828125,-0.7130639553070068,-0.7018821239471436,-0.005628259386867285
1761338281740989700,3.12398974609375,-0.3309844434261322,-0.6286601424217224,0.10787433385848999
1761338281751055600,3.1340556640625,0.05048975721001625,-0.433436781167984,0.28309398889541626
1761338281761120800,3.144120849609375,0.3371841311454773,-0.22426173090934753,0.42808741331100464
1761338281771187000,3.15418701171875,0.46319904923439026,-0.15335986018180847,0.507867157459259
1761338281781251600,3.16425146484375,0.46807369589805603,-0.16376377642154694,0.5386932492256165
1761338281791317800,3.17431787109375,0.43204638361930847,-0.17691659927368164,0.5288897156715393
1761338281801383700,3.1843837890625,0.3819326162338257,-0.14675390720367432,0.46134817600250244
1761338281811448800,3.19444873046875,0.34446728229522705,-0.08015100657939911,0.3198099434375763
1761338281821514800,3.2045146484375,0.2882484793663025,0.029970169067382812,0.0808008462190628
1761338281831579600,3.21457958984375,0.18676583468914032,0.17676956951618195,-0.22562967240810394
1761338281841645800,3.224645751953125,0.06766073405742645,0.2461843341588974,-0.49687957763671875
1761338281851711700,3.234711669921875,-0.05608094111084938,0.21209514141082764,-0.6616714000701904
1761338281861777000,3.24477685546875,-0.1405063420534134,0.09639651328325272,-0.7128621339797974
1761338281871842800,3.2548427734375,-0.18740320205688477,-0.04059892147779465,-0.6698623299598694
1761338281881908700,3.26490869140625,-0.20010808110237122,-0.1956699937582016,-0.5633729100227356
1761338281891973400,3.274973388671875,-0.1824357956647873,-0.25829046964645386,-0.4088456928730011
1761338281902039600,3.28503955078125,-0.16443361341953278,-0.31754767894744873,-0.23067277669906616
1761338281912104700,3.295104736328125,-0.1576729416847229,-0.39609235525131226,-0.07016615569591522
1761338281922170600,3.305170654296875,-0.1411975622177124,-0.49833059310913086,0.05381251126527786
1761338281932236500,3.315236572265625,-0.11923368275165558,-0.5378209948539734,0.13695082068443298
1761338281942301400,3.325301513671875,-0.1299891173839569,-0.5398756265640259,0.19305935502052307
1761338281952367600,3.33536767578125,-0.11976823210716248,-0.36169466376304626,0.2059411257505417
1761338281962433500,3.34543359375,-0.1194411963224411,-0.04172438755631447,0.1706284135580063
1761338281972498400,3.35549853515625,-0.17600014805793762,0.2881268858909607,0.06756706535816193
1761338281982564400,3.365564453125,-0.27215492725372314,0.5166900157928467,-0.0664176344871521
1761338281992629500,3.37562939453125,-0.3322707414627075,0.607276439666748,-0.17346708476543427
1761338282002695700,3.38569580078125,-0.3438563048839569,0.5985463261604309,-0.2211802899837494
1761338282012761600,3.39576171875,-0.35051876306533813,0.5174204707145691,-0.2031594216823578
1761338282022826500,3.405826416015625,-0.36325719952583313,0.4317881464958191,-0.13455477356910706
1761338282032892400,3.415892333984375,-0.37947022914886475,0.44711607694625854,-0.05662330240011215
1761338282042957600,3.42595751953125,-0.37503552436828613,0.5073953866958618,0.03706697002053261
1761338282053023500,3.4360234375,-0.3719450831413269,0.5370016098022461,0.11837159097194672
1761338282063089700,3.446089599609375,-0.3961827754974365,0.48796433210372925,0.18588778376579285
1761338282073154600,3.456154541015625,-0.4205325245857239,0.3002012372016907,0.26977595686912537
1761338282083220500,3.466220458984375,-0.43367868661880493,0.04005567729473114,0.3556775450706482
1761338282093286400,3.476286376953125,-0.4202728271484375,-0.07299567759037018,0.408263236284256
1761338282103351600,3.4863515625,-0.23051726818084717,0.010893094353377819,0.3771796226501465
1761338282113417700,3.496417724609375,0.04007655009627342,0.23045606911182404,0.1476655751466751
1761338282123482400,3.506482421875,-0.16355299949645996,0.2957535982131958,-0.06804727762937546
1761338282133548500,3.516548583984375,-0.5589731931686401,0.2655078172683716,-0.16215792298316956
1761338282143614500,3.526614501953125,-0.7419781684875488,0.04179321974515915,-0.2356414496898651
1761338282153679600,3.5366796875,-0.7212419509887695,-0.26330238580703735,-0.32634371519088745
1761338282163745500,3.54674560546875,-0.6187520623207092,-0.4819260537624359,-0.2954566478729248
1761338282173810400,3.556810546875,-0.5231708884239197,-0.4709273874759674,-0.15655627846717834
1761338282183876600,3.566876708984375,-0.4234760105609894,-0.3640297055244446,0.01860247738659382
1761338282193942500,3.576942626953125,-0.38670265674591064,-0.32643285393714905,0.16447459161281586
1761338282204007700,3.587007568359375,-0.5259686708450317,-0.24412015080451965,0.26286211609840393
1761338282214073300,3.5970732421875,-0.620893120765686,-0.16571219265460968,0.30627915263175964
1761338282224139500,3.607139404296875,-0.7177930474281311,-0.15924683213233948,0.13651832938194275
1761338282234204400,3.617204345703125,-0.7307913899421692,-0.1277143806219101,-0.10009497404098511
1761338282244270600,3.6272705078125,-0.7969579100608826,-0.11384330689907074,-0.3391571044921875
1761338282254335700,3.637335693359375,-0.8421616554260254,0.0045346952974796295,-0.5058091282844543
1761338282264401400,3.6474013671875,-0.8106955885887146,0.12901750206947327,-0.5803489089012146
1761338282274467600,3.657467529296875,-0.7365967035293579,0.11412627249956131,-0.5303362011909485
1761338282284532500,3.667532470703125,-0.6462111473083496,-0.013968578539788723,-0.386768639087677
1761338282294598700,3.6775986328125,-0.5830792784690857,-0.2784212529659271,-0.20079080760478973
1761338282304663300,3.687663330078125,-0.6762228012084961,-0.41575807332992554,0.021526146680116653
1761338282314729500,3.6977294921875,-0.5330096483230591,-0.6245625019073486,0.16278117895126343
1761338282324795400,3.70779541015625,-0.4635983407497406,-0.8277023434638977,0.1905347853899002
1761338282334860500,3.717860595703125,-0.5750167965888977,-0.8606288433074951,0.23218907415866852
1761338282344926700,3.7279267578125,-0.8031250834465027,-0.7847362160682678,0.2038349211215973
1761338282354992600,3.73799267578125,-1.0534535646438599,-0.6031970381736755,0.10294391214847565
1761338282365057500,3.7480576171875,-1.2615913152694702,-0.40432068705558777,-0.016760390251874924
1761338282375123500,3.75812353515625,-1.4255012273788452,-0.23193800449371338,-0.10839655995368958
1761338282385188600,3.768188720703125,-1.5422546863555908,-0.07188710570335388,-0.1577414572238922
1761338282395254500,3.778254638671875,-1.594428300857544,0.09765329957008362,-0.1874086856842041
1761338282405320700,3.78832080078125,-1.5634748935699463,0.2483549416065216,-0.22979210317134857
1761338282415385600,3.798385498046875,-1.467410683631897,0.3370901942253113,-0.292875200510025
1761338282425451500,3.808451416015625,-1.3324155807495117,0.3723185062408447,-0.3508639335632324
1761338282435516700,3.8185166015625,-1.1513842344284058,0.37678849697113037,-0.38325363397598267
1761338282445582600,3.82858251953125,-1.0285898447036743,0.24271351099014282,-0.35084882378578186
1761338282455648500,3.8386484375,-0.8898182511329651,0.1632537841796875,-0.23099210858345032
1761338282465713400,3.84871337890625,-0.7567043900489807,0.09670086205005646,-0.05452306568622589
1761338282475779600,3.858779541015625,-0.6519057750701904,0.09044022858142853,0.14494819939136505
1761338282485845500,3.868845458984375,-0.5893803238868713,0.08455011248588562,0.3059677183628082
1761338282495910700,3.87891064453125,-0.5169293880462646,0.011756901629269123,0.42694559693336487
1761338282505976300,3.888976318359375,-0.4359298646450043,-0.06326674669981003,0.5085118412971497
1761338282516041500,3.89904150390625,-0.39299559593200684,-0.11216080188751221,0.5671579837799072
1761338282526107600,3.909107666015625,-0.3845459222793579,-0.10635004937648773,0.5913203358650208
1761338282536173600,3.919173583984375,-0.3822616636753082,-0.06636352837085724,0.5762484073638916
1761338282546238500,3.929238525390625,-0.370506227016449,0.0021087368950247765,0.5048551559448242
1761338282556304400,3.939304443359375,-0.34299466013908386,0.06525053083896637,0.39891085028648376
1761338282566370600,3.94937060546875,-0.33193641901016235,0.1548754870891571,0.28693559765815735
1761338282576435500,3.959435546875,-0.3667784035205841,0.2944563627243042,0.15634575486183167
1761338282586501600,3.969501708984375,-0.46227431297302246,0.4441334903240204,-0.004842076450586319
1761338282596566500,3.97956640625,-0.5990495681762695,0.5822467803955078,-0.18012993037700653
1761338282606632400,3.989632568359375,-0.7521341443061829,0.6559537053108215,-0.32062020897865295
1761338282616698600,3.99969873046875,-0.9255326986312866,0.6682411432266235,-0.39297395944595337
1761338282626763500,4.009763427734375,-1.0905166864395142,0.6125667095184326,-0.38637036085128784
1761338282636829700,4.01982958984375,-1.2319722175598145,0.5093787312507629,-0.33010977506637573
1761338282646894300,4.029894287109375,-1.3266332149505615,0.4014753997325897,-0.2496812343597412
1761338282656960500,4.03996044921875,-1.3657170534133911,0.2657619118690491,-0.17032697796821594
1761338282667026400,4.0500263671875,-1.3591848611831665,0.1152070164680481,-0.09652438759803772
1761338282677091600,4.060091552734375,-1.3310145139694214,0.023838572204113007,0.0015469351783394814
1761338282687157500,4.070157470703125,-1.323936939239502,-0.05738943815231323,0.12145630270242691
1761338282697223400,4.080223388671875,-1.3708224296569824,-0.15137514472007751,0.2529415190219879
1761338282707288600,4.09028857421875,-1.4563202857971191,-0.2340971827507019,0.3691304326057434
1761338282717354500,4.1003544921875,-1.5515884160995483,-0.31466323137283325,0.4430520534515381
1761338282727419600,4.110419677734375,-1.6422756910324097,-0.3969216048717499,0.45312440395355225
1761338282737485600,4.120485595703125,-1.6902964115142822,-0.4570417106151581,0.4320509731769562
1761338282747551500,4.130551513671875,-1.6949646472930908,-0.5107107758522034,0.4250146448612213
1761338282757616600,4.14061669921875,-1.663294792175293,-0.5922184586524963,0.45405739545822144
1761338282767682600,4.1506826171875,-1.6104334592819214,-0.6537963151931763,0.5283880829811096
1761338282777747700,4.160747802734375,-1.578856348991394,-0.6589726805686951,0.635273277759552
1761338282787813400,4.1708134765625,-1.556671142578125,-0.5547389388084412,0.688471794128418
1761338282797879600,4.180879638671875,-1.3669825792312622,-0.31744715571403503,0.6702520847320557
1761338282807944400,4.1909443359375,-0.9909039735794067,0.10157700628042221,0.6112633347511292
1761338282818010600,4.2010107421875,-0.6669207215309143,0.6684796214103699,0.5011268854141235
1761338282828076500,4.21107666015625,-0.5620124340057373,1.1463319063186646,0.3597087860107422
1761338282838141400,4.221141357421875,-0.5555614829063416,1.462040901184082,0.23513756692409515
1761338282848207400,4.231207275390625,-0.5652961134910583,1.6371722221374512,0.13115258514881134
1761338282858272500,4.2412724609375,-0.5853123664855957,1.5962309837341309,0.07690875232219696
1761338282868338700,4.251338623046875,-0.6511231064796448,1.3809477090835571,0.09120593219995499
1761338282878404400,4.261404296875,-0.7701098322868347,1.073146939277649,0.16529545187950134
1761338282888469200,4.27146923828125,-1.032303810119629,0.7084068655967712,0.30318862199783325
1761338282898535200,4.28153515625,-1.1307467222213745,0.20491059124469757,0.43537673354148865
1761338282908601300,4.291601318359375,-1.3049705028533936,-0.3676506578922272,0.5232847332954407
1761338282918666200,4.301666259765625,-1.40041983127594,-0.8879379034042358,0.5884982943534851
1761338282928732400,4.311732421875,-1.4901821613311768,-1.2677881717681885,0.5981075167655945
1761338282938797300,4.32179736328125,-1.5351903438568115,-1.4436510801315308,0.5448419451713562
1761338282948863200,4.33186328125,-1.5082080364227295,-1.3753021955490112,0.4314810335636139
1761338282958929400,4.341929443359375,-1.4314664602279663,-1.1394550800323486,0.2879835069179535
1761338282968994300,4.351994384765625,-1.3174769878387451,-0.7712534070014954,0.10102533549070358
1761338282979060200,4.362060302734375,-1.213706374168396,-0.37424910068511963,-0.10030119121074677
1761338282989125400,4.37212548828125,-1.134522795677185,0.0106892678886652,-0.3019426763057709
1761338282999191300,4.38219140625,-1.085453748703003,0.34037166833877563,-0.47885861992836
1761338283009257200,4.39225732421875,-1.0878822803497314,0.6442345976829529,-0.5669687986373901
1761338283019322400,4.402322265625,-1.1498044729232788,0.8598429560661316,-0.5484225749969482
1761338283029388300,4.41238818359375,-1.2902028560638428,0.7977494597434998,-0.41262325644493103
1761338283039454200,4.4224541015625,-1.4729777574539185,0.4979400336742401,-0.20520809292793274
1761338283049520000,4.43252001953125,-1.655757188796997,0.10060996562242508,0.0073419841937720776
1761338283059585300,4.442585205078125,-1.8269031047821045,-0.2916474938392639,0.1919327676296234
1761338283069651500,4.4526513671875,-1.9503235816955566,-0.5962110757827759,0.3403643071651459
1761338283079716000,4.462716064453125,-2.047124147415161,-0.8487040400505066,0.41207078099250793
1761338283089782300,4.4727822265625,-2.1072051525115967,-0.9827681183815002,0.39641353487968445
1761338283099848200,4.48284814453125,-2.132734775543213,-0.9374591112136841,0.3229838013648987
1761338283109913300,4.492913330078125,-2.1212949752807617,-0.7988569736480713,0.2014286369085312
1761338283119979300,4.502979248046875,-2.0681281089782715,-0.6129993200302124,0.06697293370962143
1761338283130045200,4.513045166015625,-1.9860987663269043,-0.4401140809059143,-0.026767931878566742
1761338283140110300,4.5231103515625,-1.8925718069076538,-0.32110175490379333,-0.04573813080787659
1761338283150176300,4.53317626953125,-1.7960466146469116,-0.19403064250946045,-0.01867641694843769
1761338283160241400,4.543241455078125,-1.7046741247177124,-0.021796829998493195,0.008128564804792404
1761338283170307300,4.553307373046875,-1.6013532876968384,0.13426573574543,0.008076101541519165
1761338283180373200,4.563373291015625,-1.531213402748108,0.32020384073257446,-0.018024373799562454
1761338283190438100,4.573438232421875,-1.5811386108398438,0.49617406725883484,-0.024180803447961807
1761338283200504300,4.58350439453125,-1.6474568843841553,0.6149942874908447,-0.0635533332824707
1761338283210569500,4.593569580078125,-1.7198128700256348,0.721150279045105,-0.10275506228208542
1761338283220635100,4.60363525390625,-1.8048149347305298,0.788219153881073,-0.13556906580924988
1761338283230701300,4.613701416015625,-1.9020382165908813,0.7788269519805908,-0.16113035380840302
1761338283240766200,4.62376611328125,-1.9802570343017578,0.7273733019828796,-0.18624939024448395
1761338283250832400,4.633832275390625,-2.0247714519500732,0.6265215277671814,-0.20289254188537598
1761338283260898300,4.643898193359375,-2.0310585498809814,0.4723377227783203,-0.2184586524963379
1761338283270963200,4.653963134765625,-1.9921432733535767,0.2972947955131531,-0.21891164779663086
1761338283281029000,4.664029052734375,-1.9047186374664307,0.15534710884094238,-0.1861116886138916
1761338283291094300,4.67409423828125,-1.7796999216079712,0.043721240013837814,-0.12325442582368851
1761338283301160400,4.684160400390625,-1.6436114311218262,-0.07969750463962555,-0.06070682778954506
1761338283311226400,4.694226318359375,-1.496955394744873,-0.1591063141822815,-0.005130117759108543
1761338283321291300,4.704291259765625,-1.3731276988983154,-0.2180347442626953,0.01855996809899807
1761338283331357200,4.714357177734375,-1.3433301448822021,-0.3406884968280792,0.034971434623003006
1761338283341423400,4.72442333984375,-1.3736073970794678,-0.4206607937812805,0.05081893503665924
1761338283351488300,4.73448828125,-1.447265625,-0.4648924469947815,0.05615804344415665
1761338283361554400,4.744554443359375,-1.54685640335083,-0.45831117033958435,0.039982013404369354
1761338283371619300,4.754619384765625,-1.6534838676452637,-0.4162566363811493,0.0016940156929194927
1761338283381685200,4.764685302734375,-1.7391868829727173,-0.3571189045906067,-0.06727741658687592
1761338283391751200,4.774751220703125,-1.7953490018844604,-0.2818542420864105,-0.13842669129371643
1761338283401816300,4.78481640625,-1.822458028793335,-0.17626650631427765,-0.19604343175888062
1761338283411882500,4.794882568359375,-1.8153295516967773,-0.061495181173086166,-0.22047659754753113
1761338283421948200,4.8049482421875,-1.7844622135162354,0.011375690810382366,-0.19781330227851868
1761338283432013300,4.815013427734375,-1.7507047653198242,0.013137905858457088,-0.13801361620426178
1761338283442079200,4.825079345703125,-1.7278317213058472,-0.04097123071551323,-0.06035208702087402
1761338283452144400,4.835144287109375,-1.6949028968811035,-0.13141857087612152,0.026816101744771004
1761338283462210300,4.845210205078125,-1.6535102128982544,-0.2483125627040863,0.11681581288576126
1761338283472276200,4.855276123046875,-1.6413919925689697,-0.39218905568122864,0.2259146124124527
1761338283482341400,4.86534130859375,-1.6814581155776978,-0.5341666340827942,0.34672293066978455
1761338283492407300,4.8754072265625,-1.7385966777801514,-0.5931265950202942,0.4275594651699066
1761338283502472400,4.885472412109375,-1.7749029397964478,-0.4400142729282379,0.42279839515686035
1761338283512538000,4.8955380859375,-1.7467546463012695,-0.12852349877357483,0.34424659609794617
1761338283522604300,4.905604248046875,-1.6434330940246582,0.153760626912117,0.26266974210739136
1761338283532669200,4.915669189453125,-1.4807358980178833,0.34050601720809937,0.24019692838191986
1761338283542735400,4.9257353515625,-1.3036549091339111,0.40782302618026733,0.2992614209651947
1761338283552801300,4.93580126953125,-1.124061942100525,0.39624279737472534,0.41091468930244446
1761338283562866200,4.9458662109375,-0.9321776628494263,0.3200388550758362,0.5549908876419067
1761338283572932400,4.955932373046875,-0.7658531069755554,0.29449594020843506,0.6762192845344543
1761338283582997200,4.965997314453125,-0.6223713755607605,0.08790839463472366,0.7972890734672546
1761338283593063400,4.9760634765625,-0.4593840539455414,-0.3100040853023529,0.922946572303772
1761338283603129300,4.98612939453125,-0.29472780227661133,-0.6858987808227539,1.0139436721801758
1761338283613194200,4.9961943359375,-0.19170178472995758,-0.95853590965271,0.9956809878349304
1761338283623260200,5.00626025390625,-0.20788675546646118,-1.125496506690979,0.828673243522644
1761338283633326300,5.016326416015625,-0.32736682891845703,-1.1104166507720947,0.5431113243103027
1761338283643391500,5.0263916015625,-0.45386195182800293,-0.9013592004776001,0.16464099287986755
1761338283653457400,5.03645751953125,-0.6351822018623352,-0.4866136610507965,-0.2739664614200592
1761338283663522300,5.046522216796875,-0.8651006817817688,-0.06170552223920822,-0.7142311334609985
1761338283673588200,5.056588134765625,-1.1281135082244873,0.25699442625045776,-1.0400630235671997
1761338283683654400,5.066654296875,-1.3860031366348267,0.44295451045036316,-1.1470614671707153
1761338283693719300,5.07671923828125,-1.6002259254455566,0.5042532682418823,-1.0200843811035156
1761338283703785200,5.08678515625,-1.7344810962677002,0.5362665057182312,-0.6886977553367615
1761338283713850400,5.096850341796875,-1.773328185081482,0.49142420291900635,-0.24923650920391083
1761338283723916300,5.106916259765625,-1.7178748846054077,0.4649498462677002,0.17608439922332764
1761338283733982200,5.116982177734375,-1.5953269004821777,0.3574734628200531,0.4768407642841339
1761338283744047400,5.12704736328125,-1.444050669670105,0.2667675316333771,0.6273981332778931
1761338283754113300,5.13711328125,-1.2885359525680542,0.18403059244155884,0.6431369185447693
1761338283764179200,5.14717919921875,-1.1381499767303467,0.0913209468126297,0.5584454536437988
1761338283774244400,5.157244384765625,-1.006606101989746,-0.0056580607779324055,0.40521863102912903
1761338283784310300,5.167310302734375,-0.9144023060798645,-0.0758492723107338,0.2080565243959427
1761338283794375200,5.177375244140625,-0.8765052556991577,-0.08023550361394882,0.0017214654944837093
1761338283804441000,5.187441162109375,-0.87980717420578,-0.03746810927987099,-0.20088402926921844
1761338283814507300,5.19750732421875,-0.9074012041091919,-0.05110775679349899,-0.35874661803245544
1761338283824572400,5.207572509765625,-0.8991991281509399,-0.14032630622386932,-0.431210994720459
1761338283834638300,5.217638427734375,-0.8548694849014282,-0.21682800352573395,-0.3825174868106842
1761338283844704500,5.22770458984375,-0.8077980875968933,-0.2611231803894043,-0.2821166515350342
1761338283854769200,5.23776904296875,-0.7862866520881653,-0.2573542594909668,-0.1780909150838852
1761338283864835300,5.24783544921875,-0.7984115481376648,-0.22299709916114807,-0.09563010931015015
1761338283874900700,5.257900634765625,-0.8354814052581787,-0.1794871836900711,-0.02728993445634842
1761338283884967000,5.267966796875,-0.8855987787246704,-0.109903484582901,-0.0023745927028357983
1761338283895032800,5.27803271484375,-0.9478738307952881,-0.01957572065293789,-0.026688987389206886
1761338283905097700,5.28809765625,-1.016559362411499,0.07635758817195892,-0.056040000170469284
1761338283915163600,5.29816357421875,-1.082771897315979,0.16743025183677673,-0.07993947714567184
1761338283925228800,5.308228759765625,-1.1282411813735962,0.21602272987365723,-0.09004005044698715
1761338283935295000,5.318294921875,-1.1290634870529175,0.20848491787910461,-0.09952516853809357
1761338283945361000,5.32836083984375,-1.0922642946243286,0.14681850373744965,-0.09196572750806808
1761338283955425800,5.33842578125,-1.028351068496704,0.05626516416668892,-0.08151494711637497
1761338283965491700,5.34849169921875,-0.954682469367981,-0.03667641058564186,-0.06739407032728195
1761338283975558000,5.358557861328125,-0.8652727007865906,-0.06654376536607742,-0.07467888295650482
1761338283985622800,5.368622802734375,-0.8368875980377197,-0.03645709529519081,-0.09646173566579819
1761338283995688700,5.378688720703125,-0.8534708619117737,-0.02013218402862549,-0.09418180584907532
1761338284005753900,5.38875390625,-0.8869766592979431,-0.03240431100130081,-0.03057219088077545
1761338284015819800,5.39881982421875,-0.8813701868057251,-0.09571084380149841,0.09135983884334564
1761338284025885700,5.4088857421875,-0.8387511372566223,-0.24272415041923523,0.25118982791900635
1761338284035950800,5.418950927734375,-0.7903189063072205,-0.3673049807548523,0.4562250077724457
1761338284046016800,5.429016845703125,-0.7716416716575623,-0.42655590176582336,0.6604087948799133
1761338284056082700,5.439082763671875,-0.7578031420707703,-0.44827237725257874,0.8143288493156433
1761338284066147800,5.44914794921875,-0.7238250374794006,-0.4979056715965271,0.9074552655220032
1761338284076213800,5.4592138671875,-0.672386884689331,-0.5835500359535217,0.9622775316238403
1761338284086278700,5.469278564453125,-0.6006966829299927,-0.7349719405174255,1.0070440769195557
1761338284096344800,5.4793447265625,-0.5316175222396851,-0.9674733877182007,1.0441696643829346
1761338284106410800,5.48941064453125,-0.5837684869766235,-1.063833236694336,1.1107536554336548
1761338284116476000,5.499475830078125,-0.6028465628623962,-0.9730010032653809,1.0614126920700073
1761338284126541800,5.509541748046875,-0.2295762449502945,-0.40533703565597534,0.8268136978149414
1761338284136606700,5.519606689453125,0.08160879462957382,0.051872581243515015,0.6005645990371704
1761338284146672600,5.529672607421875,0.1477847695350647,0.5893077254295349,0.4448997676372528
1761338284156738800,5.53973876953125,0.04489221051335335,1.121802806854248,0.2647233307361603
1761338284166803700,5.5498037109375,-0.04825284332036972,1.4322625398635864,0.050732433795928955
1761338284176870000,5.559869873046875,-0.04108468070626259,1.4262195825576782,-0.1732708364725113
1761338284186935800,5.569935791015625,0.10312969237565994,1.2971973419189453,-0.4281613826751709
1761338284197000700,5.580000732421875,0.2766234576702118,1.0655072927474976,-0.6912817358970642
1761338284207067000,5.59006689453125,0.4498216211795807,1.0530699491500854,-0.9767685532569885
1761338284217131800,5.6001318359375,0.5024797320365906,1.219049334526062,-1.1362810134887695
1761338284227198000,5.610197998046875,0.2840125262737274,0.7335396409034729,-0.7158769965171814
1761338284237263600,5.620263671875,-0.01516750454902649,0.12740927934646606,0.03012159839272499
1761338284247328800,5.630328857421875,-0.3625127375125885,-0.4728257358074188,0.7100657820701599
1761338284257394700,5.640394775390625,-0.7275505661964417,-0.9372900724411011,1.1744446754455566
1761338284267459800,5.6504599609375,-1.0171022415161133,-1.2239593267440796,1.3832896947860718
1761338284277526000,5.660526123046875,-1.1929737329483032,-1.3231498003005981,1.3417291641235352
1761338284287591700,5.670591796875,-1.234564185142517,-1.2426400184631348,1.0938929319381714
1761338284297656800,5.68065673828125,-1.192722201347351,-1.0093411207199097,0.7151530385017395
1761338284307722800,5.69072265625,-1.1127122640609741,-0.6837732195854187,0.319378525018692
1761338284317789000,5.700788818359375,-1.0005875825881958,-0.4426964223384857,-0.013652978464961052
1761338284327853600,5.710853515625,-0.8465343117713928,-0.2945239543914795,-0.2614712417125702
1761338284337919700,5.720919677734375,-0.6867707967758179,-0.15739111602306366,-0.3935629725456238
1761338284347985000,5.73098486328125,-0.5784116983413696,-0.07641567289829254,-0.4420701861381531
1761338284358050800,5.74105078125,-0.5507270693778992,-0.03013606369495392,-0.4253668487071991
1761338284368116700,5.75111669921875,-0.5924652218818665,0.03954383730888367,-0.36682066321372986
1761338284378181600,5.761181640625,-0.6827889680862427,0.12385020405054092,-0.3092918395996094
1761338284388247800,5.771247802734375,-0.8015959858894348,0.21093177795410156,-0.25543826818466187
1761338284398313700,5.781313720703125,-0.9600644707679749,0.28012898564338684,-0.2049412727355957
1761338284408379000,5.79137890625,-1.0928696393966675,0.333066463470459,-0.1660594940185547
1761338284418444800,5.80144482421875,-1.2094260454177856,0.337695837020874,-0.12886925041675568
1761338284428509700,5.811509765625,-1.2552632093429565,0.33510178327560425,-0.09297574311494827
1761338284438575900,5.821575927734375,-1.2806719541549683,0.29719460010528564,-0.06768157333135605
1761338284448641800,5.831641845703125,-1.2622623443603516,0.2739047706127167,-0.04606127738952637
1761338284458707000,5.84170703125,-1.2212584018707275,0.20800192654132843,-0.07676033675670624
1761338284468772900,5.85177294921875,-1.1913965940475464,0.2523731291294098,-0.10338957607746124
1761338284478837800,5.861837646484375,-1.2092379331588745,0.2879532277584076,-0.11196389049291611
1761338284488903700,5.871903564453125,-1.2511868476867676,0.25479406118392944,-0.13172271847724915
1761338284498969900,5.881969970703125,-1.2574838399887085,0.2023763805627823,-0.17705504596233368
1761338284509034800,5.89203466796875,-1.273013710975647,0.20523376762866974,-0.19439832866191864
1761338284519101000,5.902100830078125,-1.2726656198501587,0.2313963919878006,-0.19769904017448425
1761338284529166600,5.91216650390625,-1.269653081893921,0.21961216628551483,-0.15504440665245056
1761338284539231700,5.922231689453125,-1.2579647302627563,0.23142221570014954,-0.08452922105789185
1761338284549298000,5.9322978515625,-1.2667889595031738,0.21375995874404907,-0.03684556856751442
1761338284559362800,5.94236279296875,-1.2914575338363647,0.17848771810531616,-0.04316817969083786
1761338284569428700,5.9524287109375,-1.3094042539596558,0.1737523078918457,-0.09687929600477219
1761338284579494700,5.96249462890625,-1.2979660034179688,0.1624240130186081,-0.1795123964548111
1761338284589559800,5.972559814453125,-1.2714259624481201,0.12460780888795853,-0.25925976037979126
1761338284599625700,5.982625732421875,-1.2461117506027222,0.06614477187395096,-0.31601279973983765
1761338284609692000,5.99269189453125,-1.2265985012054443,0.006676254794001579,-0.33902737498283386
1761338284619756800,6.0027568359375,-1.2162151336669922,-0.023845702409744263,-0.3404434025287628
1761338284629822700,6.01282275390625,-1.2113665342330933,-0.02548528090119362,-0.32601800560951233
1761338284639888000,6.022887939453125,-1.2209659814834595,-0.007966740988194942,-0.2966071367263794
1761338284649953800,6.032953857421875,-1.2247916460037231,0.0369863398373127,-0.25259119272232056
1761338284660020000,6.04302001953125,-1.2441473007202148,0.10160687565803528,-0.193568617105484
1761338284670084600,6.053084716796875,-1.2843749523162842,0.14738263189792633,-0.153530552983284
1761338284680150800,6.06315087890625,-1.3565199375152588,0.15233877301216125,-0.12306985259056091
1761338284690216000,6.0732158203125,-1.439604640007019,0.12683790922164917,-0.11454436182975769
1761338284700281900,6.08328173828125,-1.513060450553894,0.08121930062770844,-0.14912843704223633
1761338284710347800,6.09334765625,-1.550107479095459,0.060500435531139374,-0.21169514954090118
1761338284720412700,6.10341259765625,-1.5554497241973877,0.05213332176208496,-0.28260791301727295
1761338284730478800,6.113478759765625,-1.52305269241333,0.06611864268779755,-0.31132984161376953
1761338284740544800,6.123544677734375,-1.4567549228668213,0.0009122099727392197,-0.2997056841850281
1761338284750610000,6.13360986328125,-1.3702726364135742,-0.0002346886321902275,-0.19865582883358002
1761338284760675600,6.143675537109375,-1.2977720499038696,-0.09643126279115677,-0.033146750181913376
1761338284770740700,6.15374072265625,-1.232597827911377,-0.21739894151687622,0.1499687135219574
1761338284780806700,6.163806640625,-1.2034287452697754,-0.3234651982784271,0.31736093759536743
1761338284790872800,6.173872802734375,-1.1970690488815308,-0.35856980085372925,0.42093944549560547
1761338284800938000,6.18393798828125,-1.1887941360473633,-0.2504523992538452,0.44390949606895447
1761338284811003600,6.194003662109375,-1.229442834854126,-0.03781947121024132,0.4010050296783447
1761338284821069800,6.20406982421875,-1.3536244630813599,0.12259016931056976,0.32875052094459534
1761338284831134700,6.214134765625,-1.454958200454712,0.13938072323799133,0.24369603395462036
1761338284841201000,6.224200927734375,-1.394256830215454,0.016710739582777023,0.1231784075498581
1761338284851265800,6.234265869140625,-1.2100939750671387,-0.19438497722148895,0.004761046729981899
1761338284861331700,6.244331787109375,-1.0296099185943604,-0.34055763483047485,-0.05917692184448242
1761338284871397600,6.254397705078125,-0.9022617340087891,-0.43516284227371216,-0.029317710548639297
1761338284881463000,6.264463134765625,-0.7951605916023254,-0.4971151649951935,0.10226082056760788
1761338284891529000,6.274529052734375,-0.6915462017059326,-0.5961822867393494,0.2970927953720093
1761338284901593900,6.28459375,-0.5816114544868469,-0.7036983966827393,0.5289121866226196
1761338284911660000,6.294659912109375,-0.4688478708267212,-0.8341445922851562,0.7675900459289551
1761338284921726000,6.304725830078125,-0.4217671751976013,-0.9413940906524658,0.9241980314254761
1761338284931791000,6.314791015625,-0.4351576566696167,-1.0127660036087036,0.8922305703163147
1761338284941856800,6.324856689453125,-0.49859070777893066,-1.0460715293884277,0.6756953001022339
1761338284951923000,6.3349228515625,-0.5756952166557312,-0.9826791286468506,0.37784332036972046
1761338284961988000,6.344988037109375,-0.6434971690177917,-0.8461045026779175,0.05644797533750534
1761338284972054000,6.355053955078125,-0.6855862736701965,-0.7159496545791626,-0.23406431078910828
1761338284982119000,6.365118896484375,-0.7087938189506531,-0.6377411484718323,-0.4360240697860718
1761338284992184800,6.375184814453125,-0.7292661070823669,-0.5797646045684814,-0.529621958732605
1761338285002251000,6.3852509765625,-0.7428045868873596,-0.5248278975486755,-0.5234804153442383
1761338285012316000,6.39531591796875,-0.8406831622123718,-0.3482167422771454,-0.484307199716568
1761338285022382000,6.405382080078125,-1.000048279762268,-0.14714330434799194,-0.4977841377258301
1761338285032448000,6.415447998046875,-1.1633955240249634,0.09182965755462646,-0.5254157185554504
1761338285042513000,6.425512939453125,-1.2911723852157593,0.3552471697330475,-0.5161615014076233
1761338285052578800,6.435578857421875,-1.3699785470962524,0.5717990398406982,-0.48761314153671265
1761338285062644000,6.44564404296875,-1.4002200365066528,0.6859578490257263,-0.40272408723831177
1761338285072710100,6.455710205078125,-1.3751819133758545,0.5853633284568787,-0.26356902718544006
1761338285082776000,6.465776123046875,-1.2632899284362793,0.4464786946773529,-0.1072060614824295
1761338285092841000,6.475841064453125,-1.1064109802246094,0.30402442812919617,0.0020238012075424194
1761338285102907000,6.485906982421875,-0.9701226353645325,0.24137462675571442,0.03940712660551071
1761338285112972000,6.495971923828125,-0.8930883407592773,0.23360250890254974,-0.006544603034853935
1761338285123038000,6.506037841796875,-0.8703182935714722,0.14926552772521973,-0.07831040024757385
1761338285133103900,6.516103759765625,-0.8781454563140869,0.13985498249530792,-0.11252047121524811
1761338285143169000,6.5261689453125,-0.9220615029335022,0.19194482266902924,-0.12835456430912018
1761338285153235000,6.53623486328125,-1.0214513540267944,0.26201096177101135,-0.13271714746952057
1761338285163300900,6.54630078125,-1.1441948413848877,0.3193402886390686,-0.12317051738500595
1761338285173366000,6.556365966796875,-1.2422711849212646,0.3387925922870636,-0.12522879242897034
1761338285183432000,6.566431884765625,-1.282905101776123,0.3363240957260132,-0.16543985903263092
1761338285193496800,6.576496826171875,-1.2896026372909546,0.33422592282295227,-0.2299451380968094
1761338285203563000,6.58656298828125,-1.286046028137207,0.33849629759788513,-0.28469762206077576
1761338285213629000,6.59662890625,-1.2950079441070557,0.34100884199142456,-0.33518314361572266
1761338285223693800,6.60669384765625,-1.3101106882095337,0.3515235185623169,-0.38378265500068665
1761338285233760000,6.616760009765625,-1.322867751121521,0.3757871389389038,-0.4253506064414978
1761338285243826000,6.626825927734375,-1.3501741886138916,0.40996426343917847,-0.45240408182144165
1761338285253891000,6.63689111328125,-1.4067566394805908,0.43386539816856384,-0.461441308259964
1761338285263957000,6.64695703125,-1.4724326133728027,0.4552716314792633,-0.4610658288002014
1761338285274022000,6.65702197265625,-1.5201754570007324,0.3926331400871277,-0.44381752610206604
1761338285284087800,6.667087890625,-1.5043970346450806,0.1366860419511795,-0.34239715337753296
1761338285294154000,6.677154052734375,-1.4190510511398315,-0.08844444155693054,-0.16310448944568634
1761338285304219000,6.687218994140625,-1.303698182106018,-0.22717437148094177,0.020604627206921577
1761338285314285000,6.69728515625,-1.2068756818771362,-0.3590395450592041,0.14524686336517334
1761338285324350000,6.707349853515625,-1.1445931196212769,-0.4572470784187317,0.22075600922107697
1761338285334416000,6.717415771484375,-1.1296323537826538,-0.5401387810707092,0.2899242639541626
1761338285344482000,6.72748193359375,-1.1557116508483887,-0.6393716335296631,0.359005868434906
1761338285354547000,6.737546875,-1.2015202045440674,-0.7150285840034485,0.4438222646713257
1761338285364613000,6.747613037109375,-1.236093282699585,-0.7697469592094421,0.5496136546134949
1761338285374678800,6.7576787109375,-1.2030950784683228,-0.7795425057411194,0.6518208980560303
1761338285384744000,6.767743896484375,-1.095409870147705,-0.7018860578536987,0.7152730822563171
1761338285394809900,6.777809814453125,-0.9227384328842163,-0.5605079531669617,0.7672513127326965
1761338285404875000,6.787875,-0.7823933362960815,-0.44267213344573975,0.8246679902076721
1761338285414941000,6.79794091796875,-0.6975637674331665,-0.25602129101753235,0.8778969645500183
1761338285425006800,6.8080068359375,-0.5214998126029968,0.011634377762675285,0.8663865327835083
1761338285435072000,6.818072021484375,-0.30040961503982544,0.27668464183807373,0.8017913699150085
1761338285445138000,6.828137939453125,-0.11657558381557465,0.6697544455528259,0.6540306806564331
1761338285455204000,6.8382041015625,-0.0020821657963097095,1.1161127090454102,0.4073962867259979
1761338285465268700,6.848268798828125,0.029669372364878654,1.3648321628570557,0.06036617234349251
1761338285475335000,6.8583349609375,0.007278461940586567,1.207922339439392,-0.2604927122592926
1761338285485400000,6.868400146484375,-0.008761490695178509,0.7478724122047424,-0.5456927418708801
1761338285495466000,6.878466064453125,-0.04807182028889656,0.08689846843481064,-0.7638983726501465
1761338285505532000,6.888531982421875,-0.08546819537878036,-0.42222097516059875,-0.9201257824897766
1761338285515596800,6.8985966796875,-0.12428813427686691,-0.5528943538665771,-1.0891146659851074
1761338285525663000,6.9086630859375,-0.22286397218704224,-0.49197080731391907,-1.212736964225769
1761338285535727900,6.918727783203125,-0.3938194513320923,-0.6884564161300659,-1.0039230585098267
1761338285545794000,6.9287939453125,-0.5589035153388977,-0.7825120687484741,-0.5415245890617371
1761338285555860000,6.93885986328125,-0.6402389407157898,-0.6578217148780823,-0.0008386187255382538
1761338285565924900,6.9489248046875,-0.6520357131958008,-0.4243655204772949,0.4306533932685852
1761338285575991000,6.958990966796875,-0.5978612899780273,-0.22997047007083893,0.7562636733055115
1761338285586057000,6.969056884765625,-0.4733177721500397,-0.06697700917720795,0.9973641633987427
1761338285596122000,6.9791220703125,-0.31428301334381104,0.0557795986533165,1.1581825017929077
1761338285606188000,6.98918798828125,-0.15853577852249146,0.17893588542938232,1.2427799701690674
1761338285616253000,6.9992529296875,-0.04049466550350189,0.2801115810871124,1.2246707677841187
1761338285626318800,7.00931884765625,0.05620444566011429,0.3377130925655365,1.091745376586914
1761338285636385000,7.019385009765625,0.11214635521173477,0.3621084690093994,0.8594964146614075
1761338285646450000,7.029449951171875,0.1478566974401474,0.3507724702358246,0.5784122943878174
1761338285656515800,7.039515869140625,0.16739422082901,0.3161342144012451,0.2500934898853302
1761338285666581800,7.049581787109375,0.19911779463291168,0.2538173198699951,-0.06890314817428589
1761338285676647000,7.05964697265625,0.400818794965744,-0.22075670957565308,-0.26373291015625
1761338285686713000,7.069713134765625,0.17371398210525513,0.07854557782411575,-0.6982359290122986
1761338285696778000,7.079778076171875,0.14668630063533783,0.16094516217708588,-0.8863649964332581
1761338285706844000,7.089843994140625,0.255862832069397,-0.053779393434524536,-0.9272195100784302
1761338285716909800,7.099909912109375,0.14339475333690643,-0.23711104691028595,-0.9546706676483154
1761338285726975000,7.10997509765625,0.06444534659385681,-0.36426952481269836,-0.9007123708724976
1761338285737041000,7.120041015625,0.0440882109105587,-0.5577530264854431,-0.8233748078346252
1761338285747107000,7.130107177734375,-0.0756206065416336,-0.5058940649032593,-0.831096351146698
1761338285757172000,7.140171875,-0.06933946907520294,-0.4507022500038147,-0.7188963890075684
1761338285767238000,7.15023779296875,-0.04935884475708008,-0.26991942524909973,-0.5688855648040771
1761338285777303000,7.160302978515625,-0.10983921587467194,-0.12891273200511932,-0.36644673347473145
1761338285787369000,7.170368896484375,-0.17136728763580322,-0.07682023197412491,-0.13124620914459229
1761338285797435100,7.18043505859375,-0.2451687753200531,-0.00854433048516512,0.0196831077337265
1761338285807499800,7.190499755859375,-0.3832358121871948,0.12575648725032806,0.099788598716259
1761338285817566000,7.20056591796875,-0.4396330714225769,0.1904328465461731,0.13768728077411652
1761338285827631000,7.210631103515625,-0.4983874559402466,0.19809502363204956,0.1235184594988823
1761338285837697000,7.220697021484375,-0.47927844524383545,0.0790284276008606,0.10936369001865387
1761338285847763000,7.230762939453125,-0.5976335406303406,0.21160458028316498,0.008176617324352264
1761338285857827800,7.240827880859375,-0.6234360337257385,0.2248382270336151,-0.057605158537626266
1761338285867894000,7.25089404296875,-0.6291761994361877,0.22403022646903992,-0.1491135060787201
1761338285877960200,7.260960205078125,-0.5840033292770386,0.12431302666664124,-0.23212753236293793
1761338285888025300,7.271025390625,-0.6327447891235352,0.17709927260875702,-0.33927714824676514
1761338285898091300,7.28109130859375,-0.644744336605072,0.10784614831209183,-0.36116230487823486
1761338285908156400,7.291156494140625,-0.6504618525505066,-0.07224985212087631,-0.369705468416214
1761338285918222000,7.30122216796875,-0.7124953269958496,-0.22705328464508057,-0.37328672409057617
1761338285928288300,7.311288330078125,-0.768363356590271,-0.4774301052093506,-0.3363231122493744
1761338285938353400,7.321353515625,-0.8828282952308655,-0.7351529598236084,-0.3383163809776306
1761338285948419300,7.33141943359375,-1.0078977346420288,-0.8690122365951538,-0.3502731919288635
1761338285958485200,7.3414853515625,-1.068177580833435,-0.8331575989723206,-0.37977755069732666
1761338285968550100,7.351550048828125,-1.043521761894226,-0.6827041506767273,-0.43494999408721924
1761338285978616300,7.3616162109375,-0.8721628785133362,-0.7023770213127136,-0.5227107405662537
1761338285988681200,7.37168115234375,-0.7312284111976624,-0.8041427731513977,-0.626854419708252
1761338285998747400,7.381747314453125,-0.7182804942131042,-0.6843658685684204,-0.6442389488220215
1761338286008813300,7.391813232421875,-0.7004330158233643,-0.6514923572540283,-0.5300518870353699
1761338286018878200,7.401878173828125,-0.7428370714187622,-0.6472697854042053,-0.3982366919517517
1761338286028944100,7.411944091796875,-0.7565816640853882,-0.6975069046020508,-0.2968309819698334
1761338286039009300,7.42200927734375,-0.6569117307662964,-0.6171308159828186,-0.25943470001220703
1761338286049075500,7.432075439453125,-0.5163913369178772,-0.5614028573036194,-0.232276052236557
1761338286059141400,7.442141357421875,-0.4151173532009125,-0.5016952753067017,-0.17698676884174347
1761338286069206300,7.452206298828125,-0.30885404348373413,-0.415738582611084,-0.07723435759544373
1761338286079272200,7.462272216796875,-0.20404070615768433,-0.33566975593566895,0.07478517293930054
1761338286089338400,7.47233837890625,-0.10371170938014984,-0.2586010694503784,0.25689104199409485
1761338286099403300,7.4824033203125,-0.02692224457859993,-0.16661645472049713,0.3977670967578888
1761338286109469200,7.49246923828125,-0.022991152480244637,-0.06477372348308563,0.4791964292526245
1761338286119534300,7.502534423828125,-0.1815025955438614,0.04762474447488785,0.4915253520011902
1761338286129600300,7.512600341796875,-0.30191102623939514,0.29429152607917786,0.4142124652862549
1761338286139666400,7.52266650390625,-0.46164670586586,0.4570903480052948,0.31763696670532227
1761338286149731300,7.5327314453125,-0.6626418232917786,0.43087393045425415,0.20102353394031525
1761338286159797200,7.54279736328125,-0.7355327010154724,0.3141615688800812,0.03425201028585434
1761338286169863200,7.55286328125,-0.6413009762763977,0.12804284691810608,-0.18927401304244995
1761338286179928300,7.56292822265625,-0.41067254543304443,-0.16277368366718292,-0.32111093401908875
1761338286189994200,7.572994140625,-0.1649423986673355,-0.37119802832603455,-0.2986181378364563
1761338286200059100,7.58305908203125,0.04539380967617035,-0.40238943696022034,-0.13213571906089783
1761338286210125300,7.593125244140625,0.22436168789863586,-0.38096699118614197,0.16225649416446686
1761338286220191200,7.603191162109375,0.39759060740470886,-0.3239820897579193,0.512079656124115
1761338286230256400,7.61325634765625,0.5761888027191162,-0.3046741783618927,0.8622744083404541
1761338286240322300,7.623322265625,0.7211655974388123,-0.3505498766899109,1.1942062377929688
1761338286250387200,7.63338720703125,0.8132901787757874,-0.40435320138931274,1.4732745885849
1761338286260453000,7.643453125,0.8714583516120911,-0.4604124426841736,1.6936461925506592
1761338286270519300,7.653519287109375,0.8909854292869568,-0.48756682872772217,1.817867398262024
1761338286280584400,7.66358447265625,0.8539009690284729,-0.45995911955833435,1.78404700756073
1761338286290650400,7.673650390625,0.7909454107284546,-0.3830057680606842,1.5652796030044556
1761338286300716300,7.68371630859375,0.7399726510047913,-0.26985248923301697,1.2048873901367188
1761338286310781200,7.69378125,0.6934291124343872,-0.11600141227245331,0.7575533390045166
1761338286320847400,7.703847412109375,0.6351755261421204,0.05218393728137016,0.2895756661891937
1761338286330912300,7.713912353515625,0.5565052032470703,0.1487291157245636,-0.1684422343969345
1761338286340978400,7.723978515625,0.4503893554210663,0.12173546105623245,-0.5787053108215332
1761338286351044000,7.734044189453125,0.33346009254455566,-0.03851386904716492,-0.9059929251670837
1761338286361109200,7.744109130859375,0.20445245504379272,-0.2907259166240692,-1.1177096366882324
1761338286371175200,7.754175048828125,0.11167830973863602,-0.5111251473426819,-1.1614598035812378
1761338286381241300,7.764241455078125,0.07254356145858765,-0.6675687432289124,-1.0141303539276123
1761338286391306500,7.774306396484375,0.09403420239686966,-0.7795596718788147,-0.7216575145721436
1761338286401372200,7.7843720703125,0.14855924248695374,-0.8141623139381409,-0.3762529194355011
1761338286411437300,7.794437255859375,0.19337758421897888,-0.7520084381103516,-0.03550839424133301
1761338286421503200,7.804503173828125,0.2252434343099594,-0.6099278330802917,0.23711343109607697
1761338286431569400,7.8145693359375,0.23324623703956604,-0.41164669394493103,0.42315176129341125
1761338286441634300,7.82463427734375,0.24854783713817596,-0.1413213014602661,0.5519133806228638
1761338286451700200,7.8347001953125,0.296718567609787,0.18437373638153076,0.6426704525947571
1761338286461765400,7.844765380859375,0.3471877872943878,0.39862537384033203,0.6977473497390747
1761338286471831300,7.854831298828125,0.36614230275154114,0.44187697768211365,0.7294525504112244
1761338286481897500,7.8648974609375,0.3263927102088928,0.36234524846076965,0.7407392859458923
1761338286491962000,7.874962158203125,0.2391614019870758,0.23958708345890045,0.7128757238388062
1761338286502028300,7.8850283203125,0.13707752525806427,0.132907435297966,0.6377672553062439
1761338286512094200,7.89509423828125,0.03298734873533249,0.052025895565748215,0.5011981725692749
1761338286522159400,7.905159423828125,-0.09375523030757904,-0.02222885936498642,0.3144766092300415
1761338286532225300,7.915225341796875,-0.2221773862838745,-0.06195123866200447,0.1385926604270935
1761338286542290200,7.925290283203125,-0.3114255964756012,-0.039424579590559006,0.004349173977971077
1761338286552356400,7.9353564453125,-0.33078810572624207,0.031034942716360092,-0.07307451218366623
1761338286562422300,7.94542236328125,-0.2917215824127197,0.09242554008960724,-0.11328456550836563
1761338286572487400,7.9554873046875,-0.22931760549545288,0.1411813646554947,-0.12218351662158966
1761338286582553300,7.96555322265625,-0.14649730920791626,0.20980322360992432,-0.13189153373241425
1761338286592619300,7.975619384765625,-0.0586172416806221,0.2944190502166748,-0.15028971433639526
1761338286602684200,7.98568408203125,0.04442830756306648,0.37531158328056335,-0.2057371437549591
1761338286612750300,7.995750244140625,0.1421319544315338,0.41419506072998047,-0.29348111152648926
1761338286622815500,8.0058154296875,0.21204884350299835,0.3644353747367859,-0.4349062144756317
1761338286632881400,8.01588134765625,0.24074894189834595,0.23130394518375397,-0.5917938351631165
1761338286642946300,8.0259462890625,0.23996032774448395,0.10803134739398956,-0.7141115069389343
1761338286653012200,8.03601220703125,0.2451404333114624,0.06566311419010162,-0.7672870755195618
1761338286663077400,8.046077392578125,0.2789080739021301,0.09323104470968246,-0.7169435620307922
1761338286673143300,8.056143310546876,0.35009756684303284,0.19468416273593903,-0.5829953551292419
1761338286683209200,8.066209228515625,0.43562522530555725,0.2860681712627411,-0.41658052802085876
1761338286693274400,8.0762744140625,0.5002037286758423,0.3199811279773712,-0.28804731369018555
1761338286703340300,8.08634033203125,0.546536386013031,0.2996489703655243,-0.21332839131355286
1761338286713406200,8.09640625,0.5781441330909729,0.2727976441383362,-0.19748178124427795
1761338286723471400,8.106471435546876,0.5993603467941284,0.24271108210086823,-0.22272367775440216
1761338286733537300,8.116537353515625,0.6172147393226624,0.18173827230930328,-0.25663265585899353
1761338286743602200,8.126602294921875,0.6282839775085449,0.1139506846666336,-0.2599491477012634
1761338286753668400,8.13666845703125,0.6004416942596436,0.06769955158233643,-0.2050534337759018
1761338286763734300,8.146734375,0.5220478773117065,0.09677742421627045,-0.0967017337679863
1761338286773799200,8.156799072265626,0.4609818458557129,0.19524914026260376,0.03312443941831589
1761338286783865000,8.166864990234375,0.4224439859390259,0.291177362203598,0.13097703456878662
1761338286793931300,8.17693115234375,0.39119845628738403,0.327825129032135,0.10555796325206757
1761338286803996400,8.186996337890625,0.3650411367416382,0.35253581404685974,-0.043106310069561005
1761338286814062300,8.197062255859375,0.3584394156932831,0.4297221899032593,-0.2295890897512436
1761338286824127200,8.207127197265624,0.38140445947647095,0.5372437834739685,-0.4292985796928406
1761338286834193200,8.217193115234375,0.40108227729797363,0.5498842000961304,-0.6171917915344238
1761338286844259300,8.22725927734375,0.3989267349243164,0.4522005021572113,-0.7712202072143555
1761338286854324200,8.23732421875,0.3864045739173889,0.3138234615325928,-0.8771038055419922
1761338286864390400,8.247390380859375,0.36108118295669556,0.20565763115882874,-0.9397187829017639
1761338286874455300,8.257455322265624,0.32721003890037537,0.15706798434257507,-0.9478033185005188
1761338286884520200,8.267520263671875,0.2858407199382782,0.15316073596477509,-0.9255736470222473
1761338286894586400,8.27758642578125,0.2603422701358795,0.17512595653533936,-0.875461220741272
1761338286904651500,8.287651611328124,0.27999988198280334,0.15973687171936035,-0.7461676597595215
1761338286914717400,8.297717529296875,0.36836567521095276,0.18049487471580505,-0.49838128685951233
1761338286924783400,8.307783447265624,0.509274423122406,0.21244966983795166,-0.15212462842464447
1761338286934848300,8.31784814453125,0.6547621488571167,0.25295954942703247,0.24075447022914886
1761338286944914400,8.32791455078125,0.7512036561965942,0.3110314905643463,0.6037278771400452
1761338286954979300,8.337979248046874,0.8001853227615356,0.3520508408546448,0.8529507517814636
1761338286965045500,8.34804541015625,0.8268065452575684,0.3722630739212036,0.9549221992492676
1761338286975111400,8.358111328125,0.8545904755592346,0.3711283206939697,0.9194228053092957
1761338286985176300,8.36817626953125,0.8873559236526489,0.3194747269153595,0.7922089099884033
1761338286995242200,8.3782421875,0.9239847660064697,0.20385679602622986,0.628088116645813
1761338287005308400,8.388308349609375,0.9602972269058228,0.028374288231134415,0.4306253492832184
1761338287015373600,8.39837353515625,0.9878777265548706,-0.14723508059978485,0.2201341688632965
1761338287025439500,8.408439453125,0.9768584370613098,-0.28975313901901245,0.007555002812296152
1761338287035504400,8.41850439453125,0.9319583177566528,-0.4034900963306427,-0.2019881010055542
1761338287045570300,8.4285703125,0.871804416179657,-0.49082884192466736,-0.4095388352870941
1761338287055636500,8.438636474609375,0.7969075441360474,-0.5481292009353638,-0.6183738708496094
1761338287065701400,8.448701416015625,0.7148298621177673,-0.5993956923484802,-0.8111886978149414
1761338287075767600,8.458767578125,0.652091383934021,-0.6297040581703186,-0.9465864896774292
1761338287085833200,8.468833251953125,0.6136772036552429,-0.6452804803848267,-1.0159268379211426
1761338287095898400,8.4788984375,0.5782206654548645,-0.5979739427566528,-1.0114449262619019
1761338287105964500,8.488964599609375,0.5554510354995728,-0.4485812783241272,-0.9473581910133362
1761338287116029400,8.499029541015625,0.5467944145202637,-0.20495982468128204,-0.8470590114593506
1761338287126095400,8.509095458984374,0.5429330468177795,0.030229177325963974,-0.7435644865036011
1761338287136161300,8.519161376953125,0.5269572734832764,0.16483919322490692,-0.6276214122772217
1761338287146226400,8.529226318359376,0.5198014974594116,0.2361077070236206,-0.4125824570655823
1761338287156292400,8.539292236328125,0.5269039273262024,0.29351505637168884,-0.12767376005649567
1761338287166358500,8.549358642578126,0.526542603969574,0.27927398681640625,0.1201273649930954
1761338287176423400,8.55942333984375,0.517795205116272,0.21854513883590698,0.25727084279060364
1761338287186489300,8.5694892578125,0.5011233687400818,0.20190739631652832,0.28490352630615234
1761338287196554500,8.579554443359376,0.5024099349975586,0.22357700765132904,0.21897244453430176
1761338287206620400,8.589620361328125,0.5376484394073486,0.24964267015457153,0.0800085961818695
1761338287216686600,8.5996865234375,0.6079643964767456,0.2703799307346344,-0.0843646302819252
1761338287226751200,8.609751220703124,0.7035952806472778,0.2592075765132904,-0.22247692942619324
1761338287236817400,8.6198173828125,0.7815572023391724,0.20575366914272308,-0.2950185239315033
1761338287246882600,8.629882568359376,0.8414062261581421,0.1160130724310875,-0.28695690631866455
1761338287256948500,8.639948486328125,0.8825001120567322,0.01883007027208805,-0.20176556706428528
1761338287267014400,8.650014404296876,0.9128696918487549,-0.05968983843922615,-0.07451017946004868
1761338287277079300,8.660079345703124,0.9270049333572388,-0.09918718039989471,0.04582209140062332
1761338287287145500,8.6701455078125,0.9337552785873413,-0.11589747667312622,0.11557911336421967
1761338287297211400,8.68021142578125,0.9248339533805847,-0.11518268287181854,0.1221264973282814
1761338287307276500,8.690276611328125,0.9109626412391663,-0.07490211725234985,0.10185637325048447
1761338287317342500,8.700342529296876,0.8682764172554016,-0.030793506652116776,0.07396961748600006
1761338287327407400,8.710407470703124,0.7947887778282166,-0.030429042875766754,0.03348162770271301
1761338287337473300,8.720473388671875,0.7000700235366821,-0.09859851002693176,-0.010746821761131287
1761338287347539500,8.73053955078125,0.6337138414382935,-0.17998816072940826,-0.06018591299653053
1761338287357604600,8.7406044921875,0.6239485740661621,-0.22277744114398956,-0.10268596559762955
1761338287367670300,8.750670166015626,0.6475518941879272,-0.2307569980621338,-0.14444920420646667
1761338287377736400,8.760736328125,0.6962786912918091,-0.23662768304347992,-0.16392117738723755
1761338287387801300,8.77080126953125,0.749606728553772,-0.2784252464771271,-0.14376027882099152
1761338287397867500,8.780867431640624,0.792863130569458,-0.34166282415390015,-0.07792507112026215
1761338287407932400,8.790932373046875,0.8305646181106567,-0.42915186285972595,0.018915783613920212
1761338287417998300,8.800998291015626,0.8753944039344788,-0.5274201035499573,0.11784636229276657
1761338287428064300,8.811064208984375,0.9411342144012451,-0.6060812473297119,0.21652401983737946
1761338287438129400,8.82112939453125,0.9215280413627625,-0.6598091721534729,0.2766595184803009
1761338287448195600,8.831195556640624,0.8018675446510315,-0.6617542505264282,0.22662441432476044
1761338287458261500,8.841261474609375,0.668683648109436,-0.7018156051635742,0.0550348237156868
1761338287468326400,8.851326416015626,0.56174236536026,-0.7895972728729248,-0.17788024246692657
1761338287478392300,8.861392333984375,0.5111657381057739,-0.8328102231025696,-0.3853048086166382
1761338287488457500,8.87145751953125,0.5072239637374878,-0.7775917053222656,-0.5038306713104248
1761338287498523400,8.8815234375,0.5118030309677124,-0.6386839151382446,-0.4802691340446472
1761338287508589600,8.891589599609375,0.5280557870864868,-0.44828709959983826,-0.3160805106163025
1761338287518654500,8.901654541015626,0.610154390335083,-0.25007495284080505,-0.02419697493314743
1761338287528720400,8.911720458984375,0.7533690333366394,-0.1044386625289917,0.34549373388290405
1761338287538786300,8.921786376953126,0.9142853617668152,-0.07805747538805008,0.7465848922729492
1761338287548851500,8.9318515625,1.0319042205810547,-0.1734277606010437,1.0892701148986816
1761338287558917600,8.941917724609375,1.0962949991226196,-0.25501638650894165,1.2609926462173462
1761338287568982300,8.951982177734376,1.1181659698486328,-0.33079302310943604,1.2748106718063354
1761338287579048400,8.96204833984375,1.0860522985458374,-0.4005358815193176,1.164635419845581
1761338287589114400,8.9721142578125,1.0043267011642456,-0.4608662724494934,0.9939931035041809
1761338287599179500,8.982179443359374,0.9067509174346924,-0.5056100487709045,0.8197528719902039
1761338287609245200,8.9922451171875,0.8349018096923828,-0.5307219624519348,0.6357963681221008
1761338287619310300,9.002310302734376,0.8077031970024109,-0.4946496784687042,0.4314335882663727
1761338287629376500,9.01237646484375,0.8092775940895081,-0.40731900930404663,0.24326962232589722
1761338287639442400,9.0224423828125,0.8106036186218262,-0.3290702700614929,0.12003450840711594
1761338287649507600,9.032507568359375,0.7876977324485779,-0.26231318712234497,0.11403258889913559
1761338287659573200,9.0425732421875,0.7367586493492126,-0.2038903534412384,0.20386049151420593
1761338287669639400,9.052639404296874,0.659740686416626,-0.19758698344230652,0.3541475534439087
1761338287679704300,9.062704345703125,0.5814567804336548,-0.2464621216058731,0.4980924725532532
1761338287689770500,9.0727705078125,0.5159788131713867,-0.3095797300338745,0.6314346790313721
1761338287699835400,9.08283544921875,0.48827317357063293,-0.3373735547065735,0.7100069522857666
1761338287709901300,9.0929013671875,0.4956294298171997,-0.3201453685760498,0.6764636635780334
1761338287719967500,9.102967529296874,0.5204117298126221,-0.29356515407562256,0.5454521179199219
1761338287730032400,9.113032470703125,0.5697676539421082,-0.27646157145500183,0.346501886844635
1761338287740098600,9.1230986328125,0.6266211271286011,-0.2372180074453354,0.11158256977796555
1761338287750164500,9.13316455078125,0.665156900882721,-0.2106742262840271,-0.11670129001140594
1761338287760229400,9.1432294921875,0.6810402274131775,-0.18477417528629303,-0.31931591033935547
1761338287770295300,9.15329541015625,0.7130817174911499,-0.11546694487333298,-0.4584521949291229
1761338287780360400,9.1633603515625,0.7940274477005005,0.015897469595074654,-0.5142704844474792
1761338287790426400,9.17342626953125,0.9268795847892761,0.1242918074131012,-0.4771660268306732
1761338287800492500,9.183492431640625,1.079174280166626,0.1679529994726181,-0.36150333285331726
1761338287810557400,9.193557373046875,1.2389216423034668,0.17114517092704773,-0.19458070397377014
1761338287820623400,9.203623291015624,1.3862429857254028,0.13012956082820892,0.01796352118253708
1761338287830688500,9.2136884765625,1.5286370515823364,0.09674277156591415,0.250354140996933
1761338287840754400,9.22375439453125,1.6490411758422852,0.03963261470198631,0.47676998376846313
1761338287850820400,9.2338203125,1.750415563583374,-0.025584131479263306,0.6725003123283386
1761338287860885500,9.243885498046875,1.841558575630188,-0.07905454188585281,0.7957189083099365
1761338287870951400,9.253951416015624,1.9254727363586426,-0.08929423987865448,0.8297212719917297
1761338287881017600,9.264017578125,1.992085576057434,-0.051948729902505875,0.7705098986625671
1761338287891082800,9.274082763671874,2.0183029174804688,0.015847811475396156,0.6453391313552856
1761338287901148700,9.284148681640625,2.017094135284424,0.1058136522769928,0.48883214592933655
1761338287911213800,9.2942138671875,1.9912919998168945,0.18688538670539856,0.3391796946525574
1761338287921279700,9.30427978515625,1.9346791505813599,0.21184533834457397,0.2091548591852188
1761338287931345700,9.314345703125,1.8376861810684204,0.1457749903202057,0.10346407443284988
1761338287941410800,9.324410888671874,1.7353934049606323,0.05852983891963959,0.04812172055244446
1761338287951476700,9.334476806640625,1.6395515203475952,0.03159201145172119,0.003667087759822607
1761338287961543000,9.34454296875,1.5684232711791992,0.05632585659623146,-0.04477980360388756
1761338287971607800,9.35460791015625,1.522348165512085,0.07751103490591049,-0.10443861037492752
1761338287981673700,9.364673828125,1.4940168857574463,0.0538344644010067,-0.1661062389612198
1761338287991739000,9.37473876953125,1.4809541702270508,0.03167242184281349,-0.22661547362804413
1761338288001804800,9.3848046875,1.4763802289962769,0.024900272488594055,-0.25916439294815063
1761338288011871000,9.39487109375,1.4893710613250732,0.015962280333042145,-0.2678346037864685
1761338288021935600,9.404935546875,1.5083510875701904,-0.023878077045083046,-0.23146407306194305
1761338288032001800,9.415001708984375,1.520567536354065,-0.09115514159202576,-0.13884449005126953
1761338288042067700,9.425067626953124,1.5263153314590454,-0.1417245715856552,0.014733352698385715
1761338288052132900,9.4351328125,1.544889211654663,-0.1799013763666153,0.1777430921792984
1761338288062198800,9.44519873046875,1.556456446647644,-0.21720772981643677,0.29955849051475525
1761338288072263700,9.455263671875,1.5739517211914062,-0.23097369074821472,0.374237596988678
1761338288082329900,9.465329833984375,1.591804027557373,-0.20701348781585693,0.3849121034145355
1761338288092395800,9.475395751953124,1.6139907836914062,-0.13530831038951874,0.32863467931747437
1761338288102461000,9.4854609375,1.6545642614364624,0.0033473093062639236,0.2565937638282776
1761338288112526800,9.49552685546875,1.714700698852539,0.1680993139743805,0.187306746840477
1761338288122592800,9.5055927734375,1.7791823148727417,0.3241323232650757,0.16093479096889496
1761338288132657700,9.51565771484375,1.8415590524673462,0.446979284286499,0.1850958615541458
1761338288142723800,9.525723876953125,1.91389000415802,0.5130823850631714,0.25225409865379333
1761338288152789000,9.5357890625,1.9641811847686768,0.5189120173454285,0.30072540044784546
1761338288162854700,9.545854736328126,1.978896141052246,0.4994986951351166,0.30842381715774536
1761338288172920600,9.555920654296875,1.9756673574447632,0.45650023221969604,0.24495460093021393
1761338288182985700,9.56598583984375,1.9755041599273682,0.4243161976337433,0.143390953540802
1761338288193052000,9.576052001953125,1.9803932905197144,0.400797963142395,0.0665057897567749
1761338288203116800,9.58611669921875,1.979081153869629,0.3567388951778412,0.04155862703919411
1761338288213182700,9.5961826171875,1.991738200187683,0.2924954295158386,0.07419665157794952
1761338288223248600,9.60624853515625,2.004227876663208,0.25509533286094666,0.13262853026390076
1761338288233313800,9.616313720703126,2.038062334060669,0.2526547908782959,0.20319630205631256
1761338288243379700,9.626379638671875,2.086212158203125,0.25865116715431213,0.26187530159950256
1761338288253446000,9.63644580078125,2.1377367973327637,0.21262116730213165,0.2967667877674103
1761338288263510800,9.6465107421875,2.192533493041992,0.10424807667732239,0.28554317355155945
1761338288273576700,9.65657666015625,2.2046337127685547,-0.030712779611349106,0.2661077082157135
1761338288283641900,9.666641845703126,2.1805548667907715,-0.11254586279392242,0.2042403519153595
1761338288293707800,9.676707763671875,2.189333438873291,-0.1348801702260971,0.1177070140838623
1761338288303774000,9.68677392578125,2.2081754207611084,-0.13246628642082214,-0.00015916116535663605
1761338288313838800,9.6968388671875,2.1940503120422363,-0.1151597648859024,-0.10719714313745499
1761338288323904800,9.70690478515625,2.132805347442627,-0.10479767620563507,-0.18048706650733948
1761338288333970000,9.716969970703126,2.063819646835327,-0.09289443492889404,-0.1966128796339035
1761338288344035800,9.727035888671875,2.0224387645721436,-0.0706128254532814,-0.16194598376750946
1761338288354102000,9.73710205078125,1.9941928386688232,-0.10250575840473175,-0.10400200635194778
1761338288364166700,9.747166748046874,1.951046109199524,-0.16442613303661346,-0.04162730649113655
1761338288374232800,9.75723291015625,1.8921242952346802,-0.20131619274616241,0.011423211544752121
1761338288384298800,9.767298828125,1.8107396364212036,-0.17723509669303894,0.035642266273498535
1761338288394364000,9.777364013671875,1.7311967611312866,-0.1180671751499176,0.03877782076597214
1761338288404429600,9.7874296875,1.6205083131790161,-0.10032892227172852,0.0312647745013237
1761338288414495700,9.797495849609374,1.5998482704162598,-0.10652390122413635,-0.03737735003232956
1761338288424561000,9.807560791015625,1.624047040939331,-0.03835337609052658,-0.12493383139371872
1761338288434626800,9.817626708984376,1.6465152502059937,0.10107752680778503,-0.21810460090637207
1761338288444692000,9.82769189453125,1.6506857872009277,0.26116228103637695,-0.2825123369693756
1761338288454757600,9.837757568359375,1.6869291067123413,0.4369840919971466,-0.28230276703834534
1761338288464823800,9.84782373046875,1.7241803407669067,0.5469481348991394,-0.18874643743038177
1761338288474888700,9.857888671875,1.7591476440429688,0.5523602366447449,-0.03182915225625038
1761338288484955000,9.867954833984374,1.7980931997299194,0.4823968708515167,0.13162502646446228
1761338288495019800,9.878019775390625,1.8376766443252563,0.40153634548187256,0.2240520417690277
1761338288505085700,9.888085693359375,1.8621870279312134,0.33232584595680237,0.1935596466064453
1761338288515151600,9.898151611328124,1.8759400844573975,0.29845675826072693,0.06640803068876266
1761338288525216800,9.908216796875,1.9100171327590942,0.3357796370983124,-0.06885071843862534
1761338288535283000,9.918282958984374,1.9590715169906616,0.4145423173904419,-0.16048388183116913
1761338288545348900,9.928348876953125,1.9624947309494019,0.4821953773498535,-0.20187367498874664
1761338288555413800,9.938413818359376,1.8300203084945679,0.7142245769500732,0.032407306134700775
1761338288565479700,9.948479736328125,1.554690957069397,0.514883816242218,0.05211496353149414
1761338288575544800,9.958544921875,1.3395020961761475,0.1704120934009552,-0.08720988780260086
1761338288585610800,9.96861083984375,1.356117606163025,-0.09500333666801453,-0.24593348801136017
1761338288595677000,9.978677001953125,1.428179383277893,-0.1408730447292328,-0.3135935962200165
1761338288605741800,9.988741943359376,1.5161596536636353,-0.1735106110572815,-0.4673820734024048
1761338288615807700,9.998807861328125,1.6052329540252686,-0.2594304084777832,-0.5978106260299683
1761338288625874000,10.0088740234375,1.6712063550949097,-0.26662707328796387,-0.6206048727035522
1761338288635938800,10.018938720703124,1.642035961151123,-0.2921544015407562,-0.5030902028083801
1761338288646004700,10.029004638671875,1.6025506258010864,-0.3171233832836151,-0.27741739153862
1761338288656069600,10.039069580078126,1.5437175035476685,-0.4258582592010498,-0.097627192735672
