time,seconds_elapsed,z,y,x
1761391643899540000,0.0835400390625,-1.0659598369956016,-0.11287380724698304,-0.3129812229193747
1761391643909606000,0.09360595703125,-0.8725590793550014,-0.10574877767264843,-0.37290180394016204
1761391643919673000,0.103673095703125,-0.587335193541646,-0.11117664794027805,-0.40634558918476105
1761391643929739000,0.113739013671875,-0.3039899610817432,-0.1396057468280196,-0.3680683924343437
1761391643939805000,0.123804931640625,-0.05307575662732124,-0.15538549976199864,-0.29111214013434944
1761391643949871000,0.13387109375,0.15250935980379582,-0.15736352183669805,-0.21956169240064918
1761391643959936800,0.143936767578125,0.29516134245991704,-0.19244857148230074,-0.1666984825454652
1761391643970003000,0.1540029296875,0.3456400683313608,-0.21760522457063197,-0.11648235313296318
1761391643980068900,0.16406884765625,0.3498018641859293,-0.21609891166090964,-0.09690613052546977
1761391643990135000,0.174135009765625,0.33817280119061466,-0.2003007462874055,-0.09765483000092208
1761391644000202000,0.184201904296875,0.3230558960795402,-0.17740151673704385,-0.10917407594621181
1761391644010268000,0.194267822265625,0.2894908956080675,-0.15434738888591526,-0.11276720506735145
1761391644020334000,0.204333984375,0.26367373278439044,-0.1199187573224306,-0.13441972249224782
1761391644030400000,0.21439990234375,0.3132411890298128,-0.08305471530556678,-0.16045388906747102
1761391644040466000,0.2244658203125,0.3880348564684391,-0.06436784275323153,-0.14109057855829596
1761391644050531800,0.23453173828125,0.3850450270026922,-0.10398615191429852,-0.08442015843987465
1761391644060598000,0.244597900390625,0.301136909738183,-0.15708470489531753,-0.0235923263810575
1761391644070665000,0.2546650390625,0.2773772639662027,-0.15376286699622868,0.05381101209931075
1761391644080731000,0.26473095703125,0.26885493481457234,-0.10246054978221654,0.10726634262874722
1761391644090797000,0.274797119140625,0.2597831550866365,-0.05377630611211061,0.15740721484795211
1761391644100863000,0.284863037109375,0.2546621588110924,-0.013389350666105746,0.18494879031144082
1761391644110929000,0.294928955078125,0.21276889045536518,0.04481909267455339,0.14915193913467228
1761391644120995000,0.3049951171875,0.09949205536544323,0.0847635650500655,0.13136376898773014
1761391644131060700,0.315060791015625,-0.05885141741931438,0.07869535105228423,0.14258805057443677
1761391644141128000,0.3251279296875,-0.34039632245898244,0.07987287039905785,0.16628493330851196
1761391644151193900,0.33519384765625,-0.7873083153098821,0.05027472773194313,0.12731325148791073
1761391644161259800,0.345259765625,-1.1188070455640553,0.06266834535896777,0.10953209560364484
1761391644171326000,0.355325927734375,-1.2216735457986592,0.13838614190518855,0.0909439341854304
1761391644181392000,0.365391845703125,-1.156773495864868,0.23294833965301512,0.11149930402338504
1761391644191458000,0.3754580078125,-0.9793588273853063,0.2436354456230998,0.17206958112455903
1761391644201524000,0.38552392578125,-0.7961597302854061,0.27946488389521834,0.2765210855282843
1761391644211590100,0.395590087890625,-0.6394856520175933,0.23170360028892753,0.3127794898021966
1761391644221657000,0.405656982421875,-0.4315770610749721,0.13190876258462667,0.29468970636017616
1761391644231722800,0.41572265625,-0.17347440642118453,0.10221358928382396,0.2277297282218933
1761391644241789000,0.425788818359375,-0.004963759887218475,0.04754208789765835,0.1763245351552963
1761391644251854800,0.435854736328125,0.04544365431368351,-0.021890929290652273,0.09675517774745822
1761391644261921000,0.445921142578125,0.12042319971323012,-0.12001111178100109,0.009638546765223145
1761391644271987000,0.455987060546875,0.044851533639431,-0.24554420185387132,-0.05789645478203893
1761391644282053000,0.46605322265625,-0.12343231840133666,-0.2907195606201887,-0.036480230331048365
1761391644292120000,0.4761201171875,-0.1915788029104471,-0.3067252312645316,0.013580891182832419
1761391644302186000,0.48618603515625,-0.1625087757706642,-0.3611491876304149,0.09226659762393682
1761391644312252200,0.496252197265625,-0.13225976797938346,-0.36626521546989677,0.20191884900853035
1761391644322317800,0.50631787109375,-0.044478608673810954,-0.2722574367344379,0.28890052849948406
1761391644332383700,0.5163837890625,0.09916706119477749,-0.18557196371108292,0.37800873515773564
1761391644342450000,0.526449951171875,0.3025087826132774,-0.21399492511898277,0.3679958021221682
1761391644352515800,0.536515869140625,0.5716723449856043,-0.2644733587294817,0.24024609544575212
1761391644362582000,0.54658203125,0.8317138587474823,-0.33757249720990656,0.10186031886674463
1761391644372649000,0.55664892578125,0.940309842544794,-0.5014519768118858,0.032374950436688955
1761391644382715000,0.56671484375,0.8644511762231588,-0.6512944554939866,-0.07010269661080092
1761391644392781000,0.576781005859375,0.7820312516897916,-0.7301444125860929,-0.23665347778126597
1761391644402847000,0.586846923828125,0.9013082039773463,-0.8187304585337638,-0.3348533013790846
1761391644412913000,0.596912841796875,0.9728191964834928,-1.0122703323841094,-0.3050421004831791
1761391644422978800,0.606978759765625,1.0731266598850489,-0.9441656411901116,-0.15157591487858443
1761391644433045000,0.617044921875,1.3231097209692,-0.8103817323833703,0.10685856554545461
1761391644443112000,0.62711181640625,1.6272966659277677,-0.6721878981798887,0.3770580103041604
1761391644453177900,0.637177734375,1.982182701510191,-0.4824091304287314,0.5415513474881649
1761391644463243800,0.647243896484375,2.2421529036015273,-0.36960166641622777,0.5450096347158775
1761391644473309700,0.657309814453125,2.024580996778607,-0.27595862933993337,0.560319614713639
1761391644483375900,0.6673759765625,1.798895341604948,0.5858996077805757,0.8533177877902984
1761391644493441800,0.67744189453125,1.6003595591634512,2.6265777528792618,1.667672369327396
1761391644503508000,0.687508056640625,0.6137257723391055,1.6702236612454056,0.8227668744429946
1761391644513575000,0.697574951171875,-0.5173521412551403,0.7234446226865052,-0.3993981446670368
1761391644523640800,0.707640869140625,-0.6865279736995696,0.494782289789617,-0.2215546928487718
1761391644533707000,0.71770703125,-0.2949322098791599,0.45992578820288177,-0.11025456465929746
1761391644543773000,0.72777294921875,-0.2612140646725893,0.372662661422044,-1.1267734943985939
1761391644553838800,0.7378388671875,-0.15115502258539198,-0.32354338733553883,-1.325965110400319
1761391644563904800,0.74790478515625,0.17927695522010326,-0.4600019221790135,-0.8745441887576132
1761391644573970700,0.757970703125,0.4896101478487253,-0.21242109993100164,-0.16589111168533563
1761391644584038000,0.768037841796875,0.49537879437804216,-0.10758987549468875,0.30826135479062794
1761391644594103800,0.778103759765625,0.17725918565690515,0.15469985558539628,0.6826824041873216
1761391644604169700,0.788169677734375,-0.48262744935452934,0.09355229005292058,0.8399180618606508
1761391644614236000,0.79823583984375,-1.3782108459442852,0.055056847441941496,0.7403539641723036
1761391644624301800,0.8083017578125,-2.213730526715517,-0.2226449723035097,0.5106523513555526
1761391644634367700,0.81836767578125,-2.437229485499859,-0.6271057706549763,0.35026772813200946
1761391644644433700,0.82843359375,-2.368176407539844,-0.8807036612354219,0.2816872361198067
1761391644654499800,0.838499755859375,-2.151485959726572,-0.9896202552892267,0.14302446923032403
1761391644664566800,0.84856689453125,-1.7518121033906935,-1.0475659560404718,-0.10131342557370662
1761391644674632700,0.8586328125,-1.3903291537612676,-0.8441350950337946,-0.35349385057166216
1761391644684699000,0.868698974609375,-0.9932833078414202,-0.5991932429872453,-0.5044399065814912
1761391644694764800,0.878764892578125,-0.6925882966518402,-0.5272356757573783,-0.5650830297231674
1761391644704831000,0.8888310546875,-0.6631085196673869,-0.4251160483673215,-0.5616609463199973
1761391644714897000,0.89889697265625,-0.6141700089752674,-0.4275143416807055,-0.4382032012164592
1761391644724962800,0.908962890625,-0.8116881388068199,-0.6671786917157471,-0.34853374394625425
1761391644735030000,0.919030029296875,-0.9202133954554795,-0.6262203661225736,-0.3791642984010279
1761391644745095700,0.929095703125,-0.955110521313548,-0.6365785323992371,-0.5485172409780323
1761391644755161900,0.939161865234375,-1.013095677292347,-0.6196830733083188,-0.762546799018979
1761391644765227800,0.949227783203125,-1.0137065026670693,-0.6436788659237325,-0.8221446508914232
1761391644775294000,0.9592939453125,-1.0125368743658065,-0.9673246907204389,-0.6918045989282429
1761391644785360000,0.96935986328125,-0.9684189156979321,-0.7761530073061585,-0.8362750291831791
1761391644795425800,0.97942578125,-1.0296709645181894,-0.2850583199881017,-1.0829928048610686
1761391644805492000,0.989491943359375,-1.150753504922986,-0.01475493993088603,-0.9154165165677666
1761391644815559000,0.999558837890625,-1.4098323111325501,0.10500877296030521,-0.6633494888164103
1761391644825624800,1.009624755859375,-1.5455162083417175,0.3889132467381656,-0.46977176717370744
1761391644835690800,1.019690673828125,-1.4154244320511817,0.6952478712499142,-0.29262437132820485
1761391644845756700,1.029756591796875,-1.3162515256375074,0.6692740565598011,-0.2850976290851831
1761391644855822800,1.03982275390625,-1.0280722971498966,0.601741466165334,-0.24033406599014995
1761391644865888800,1.049888671875,-0.428902873429656,0.4967829620875418,-0.13437135330587624
1761391644875955000,1.059954833984375,0.871686972695589,0.0943275122091174,0.10252046327590941
1761391644886022000,1.07002197265625,1.2564385697096585,-0.39228681482449174,0.2662814310647547
1761391644896087800,1.080087890625,1.2019628831565379,-0.4204897037409246,-0.015579261925816535
1761391644906154000,1.090154052734375,0.8645090438902377,-0.29000425195768476,-0.31284400640577076
1761391644916219600,1.1002197265625,0.3252063521116972,-0.15890753640830516,-0.45606735920906066
1761391644926285800,1.110285888671875,0.13840543112754822,0.002162584861367941,-0.5780078316174447
1761391644936351700,1.120351806640625,0.1046691657423973,0.13508885392546652,-0.5225370696123689
1761391644946418000,1.13041796875,0.17126958985328675,0.26310411620289087,-0.36758944981098174
1761391644956484900,1.14048486328125,0.4200362608850002,0.24139731130748987,-0.22505349474996328
1761391644966550800,1.15055078125,0.7867652944743633,0.16196020197719335,0.05527114777974784
1761391644976617000,1.160616943359375,1.0437760622382164,0.15057006230428813,0.2607340991359204
1761391644986683000,1.170682861328125,1.1818828026801347,0.16969181914255022,0.37886977243386205
1761391644996748800,1.180748779296875,1.219911212301254,0.2340283899746835,0.4729368801411241
1761391645006814700,1.190814697265625,1.0838286711633205,0.3420505194067955,0.5506767570994794
1761391645016880600,1.200880615234375,0.6079530341565609,0.42252135569900273,0.48776554289534685
1761391645026946800,1.21094677734375,0.22553484852612019,0.528798248898983,0.30097032099962234
1761391645037013800,1.221013671875,-0.013441665375232696,0.7236407297804951,0.10189831278957426
1761391645047079700,1.23107958984375,-0.23146190048754214,0.8979394581966101,-0.012911102162487803
1761391645057145900,1.241145751953125,-0.5028092366397381,0.8653459331057965,0.04318023942634463
1761391645067211800,1.251211669921875,-0.7688128736764193,0.8145829834654926,0.1508945815509185
1761391645077278000,1.26127783203125,-0.8308914364486932,0.7565605642162263,0.19450170461982488
1761391645087343900,1.27134375,-0.6984422833770513,0.7863999682933092,0.1482906826628372
1761391645097409800,1.281409912109375,-0.5517459937661886,0.8922023758493364,0.049754631114285436
1761391645107476700,1.291476806640625,-0.5100169760614633,1.0777242168083787,0.013645809645205736
1761391645117542700,1.301542724609375,-0.6073673432230949,1.0968310683384537,-0.04437195169525221
1761391645127608800,1.31160888671875,-0.7013549559533596,0.8844085071027279,-0.11214813245409168
1761391645137674800,1.3216748046875,-0.732455027616024,0.7500920988544821,-0.33606424807142465
1761391645147741000,1.331740966796875,-0.6982096436649561,0.8252885018751025,-0.5788476434424519
1761391645157806800,1.341806884765625,-0.5485311233729123,0.7266793668240308,-0.5640042580431327
1761391645167873000,1.351873046875,-0.3295610401898622,0.6817185275912284,-0.4246687429912388
1761391645177939000,1.36193896484375,-0.16803016954064368,0.8191723570823669,-0.33205910408329214
1761391645188006000,1.372005859375,-0.05046878899931907,0.883001855175197,-0.2904137460740283
1761391645198071800,1.38207177734375,-0.12132336342334747,0.9086497989118099,-0.19048719001514836
1761391645208137700,1.3921376953125,-0.24500702623724935,0.7547834715411067,-0.1511804310212843
1761391645218204000,1.402203857421875,-0.12165069568157195,0.5800646180167794,-0.047814913489669555
1761391645228269800,1.412269775390625,0.08569675424695014,0.37716304158121344,0.11464203162905759
1761391645238335700,1.422335693359375,0.31932956903278825,0.24614567487835884,0.31887313050217925
1761391645248402000,1.43240185546875,0.602486585444212,0.20395342357605695,0.49964511005301027
1761391645258468900,1.44246875,0.9029740913629531,0.12575637743473053,0.5385948357701301
1761391645268534800,1.45253466796875,1.1738006185114382,-0.013692133004963396,0.4421402118718251
1761391645278601000,1.46260107421875,1.4000164350390434,-0.17257687305957078,0.2488944621298462
1761391645288666600,1.47266650390625,1.4831810404598713,-0.35452889270782467,0.09920578576996922
1761391645298732800,1.48273291015625,1.4981623364925383,-0.6464125286713243,0.03742418751711957
1761391645308798700,1.492798828125,1.6164888561874626,-1.014768286679685,0.10375416065617464
1761391645318865000,1.502864990234375,1.6075076773524284,-1.1556254948735236,-0.057838879375904796
1761391645328930800,1.512930908203125,1.3662363305121659,-0.8598211783349513,-0.5700397022824734
1761391645338997800,1.522997802734375,0.860653537505865,-0.27085136932879683,-0.927571941524744
1761391645349064000,1.53306396484375,0.4458645296245813,0.07588847693800926,-1.0316942139741032
1761391645359129900,1.5431298828125,0.3238151900142431,0.2093868468016386,-0.8560491855155676
1761391645369196000,1.553196044921875,0.45305531791150566,0.20444500648528335,-0.6126532477367669
1761391645379261700,1.56326171875,0.7131605445593595,0.17789982164800167,-0.40809959324523803
1761391645389328000,1.573327880859375,0.9646095865428447,0.1992733029358089,-0.2956495643682778
1761391645399393800,1.583393798828125,1.2126035196363925,0.1463086054675281,-0.19225063775740564
1761391645409460700,1.593460693359375,1.4160609763890504,-0.015279256065934896,-0.10394180131591856
1761391645419527000,1.60352685546875,1.6777473347485063,0.14376651976928115,-0.12148841779194772
1761391645429592800,1.6135927734375,2.4206430923581124,0.8532426767274737,-0.20632512114346027
1761391645439659000,1.623658935546875,2.6803672107338903,0.43198344991877674,0.08916559940129518
1761391645449725000,1.633724853515625,2.776926135256886,0.14155074341595172,0.02857237981595099
1761391645459790800,1.643790771484375,2.3762609297960995,0.17925474338829517,-0.4259090253759175
1761391645469857000,1.65385693359375,1.7647236074119805,0.2476265610858798,-0.9106280401822179
1761391645479923000,1.6639228515625,1.4083382731825111,0.19138328033834695,-1.1100089682109653
1761391645489990000,1.673989990234375,1.1263754349917172,0.2795848570130765,-0.9306764834113419
1761391645500056000,1.68405615234375,1.3453069397300481,0.512685464618355,-0.7930272774785757
1761391645510122000,1.6941220703125,1.6091653814315794,0.7843591101154684,-0.6743377696901559
1761391645520188000,1.70418798828125,1.8966893608808517,1.0457045460827648,-0.5602004818459972
1761391645530253800,1.71425390625,2.149716027444601,1.23849433221817,-0.5040910931438207
1761391645540320000,1.724320068359375,2.501989250180125,1.3314178228482603,-0.4397413705691695
1761391645550386000,1.734385986328125,3.02940393576622,1.3670423861980436,-0.24908180139549074
1761391645560452900,1.744452880859375,3.6036394092380997,1.3281779641442,0.039787528248131275
1761391645570519000,1.75451904296875,4.142703031563759,1.1749709774650632,0.3210757551129907
1761391645580585000,1.7645849609375,4.510917919796705,1.0009700629517435,0.5951813769973814
1761391645590651100,1.774651123046875,4.3081531214833255,0.706063279774785,0.8255759405143559
1761391645600716800,1.784716796875,3.469530798521638,0.4571323580920696,0.9301396000556648
1761391645610783000,1.794782958984375,2.295354332435131,0.4899688981585204,0.8646627731472253
1761391645620849000,1.804848876953125,0.9802478851795196,0.8829001483663916,0.556456034620665
1761391645630915800,1.814915771484375,-0.012403554499149321,1.3746965542130172,0.053926455172523854
1761391645640982000,1.82498193359375,-0.33067455438971516,1.5117885646544396,-0.4249018941599875
1761391645651048000,1.8350478515625,-0.663110273233056,1.2744754539206624,-0.9477831010349095
1761391645661113900,1.84511376953125,-1.3930898506462572,1.2578725480355322,-1.7454110041767357
1761391645671180000,1.855179931640625,-1.851701049119234,1.176961274499446,-2.6391575407281516
1761391645681246000,1.865245849609375,-1.513256445249915,0.9970765626445413,-2.5943209123969075
1761391645691311900,1.875311767578125,-0.5293178888589144,0.6978671869028359,-1.7633026346981524
1761391645701377800,1.885377685546875,0.13958791891038416,0.2657230665296316,-1.0139445492066443
1761391645711444700,1.89544482421875,-0.04819090719521046,-0.13701134642064572,-0.37837822605725374
1761391645721511000,1.905510986328125,-2.100300546890497,-0.5175645418968051,0.1585155414160341
1761391645731576800,1.915576904296875,-5.242732895943522,-0.5625003197535872,0.15680935855265707
1761391645741643000,1.92564306640625,-7.78384361167848,-0.08094312997907399,-0.05944116347339004
1761391645751709000,1.935708984375,-9.089935562351345,0.6728177935812621,0.12525788986068218
1761391645761775000,1.945775146484375,-9.564038928988575,1.243561552479863,0.4498374518435448
1761391645771841000,1.955841064453125,-9.74997125044465,1.2045446432780473,0.6905050606369972
1761391645781908000,1.965907958984375,-9.90487890356183,0.5300586242236197,1.1743690660491586
1761391645791974000,1.975973876953125,-9.701569330847263,-0.06631444677636027,1.6040961153432727
1761391645802039800,1.986039794921875,-9.436655827134848,-0.14739442794285715,1.419464793483168
1761391645812106000,1.99610595703125,-9.7557720456779,0.1067098777897656,0.7253508946992456
1761391645822172000,2.006171875,-10.862032328879833,0.43913134891204536,-0.4362289785340428
1761391645832238000,2.016238037109375,-11.928948443686961,0.3514366988461464,-0.8847003296561539
1761391645842304000,2.026303955078125,-11.997402971231937,0.17546594556458292,-1.0706990674119443
1761391645852370000,2.036369873046875,-10.926923610985279,-0.05808087143823504,-1.20487760155946
1761391645862437000,2.04643701171875,-8.72184693084657,-0.5432683805391192,-1.0356820415012538
1761391645872503000,2.0565029296875,-6.288938815677166,-1.3231639353744684,-0.5818554104236886
1761391645882569000,2.06656884765625,-4.51422865177989,-2.1741545953914523,-0.1912220070957206
1761391645892635000,2.076634765625,-3.58577232863605,-2.7893118618384003,0.06717495432952418
1761391645902700800,2.08670068359375,-3.020834260341525,-2.9285820931017397,0.25110676788445563
1761391645912767000,2.09676708984375,-2.1926234412789345,-2.5872622260570526,0.12382976588685995
1761391645922833000,2.1068330078125,-1.1929653377085923,-1.9706402938850223,-0.03491097172033041
1761391645932899000,2.116899169921875,-0.4811065233975649,-1.330486533347517,0.0537283022519201
1761391645942966000,2.126966064453125,-0.30644962919354435,-0.9332559785105288,0.1798220949474722
1761391645953032000,2.137031982421875,-0.6695026046186685,-0.6680528442017734,0.4397365482635796
1761391645963098000,2.14709814453125,-0.9443284305363893,-0.4323905328823253,1.0520324339300393
1761391645973163800,2.157163818359375,-0.5732774420946836,-0.20495120244175194,1.4837611784353852
1761391645983230000,2.16722998046875,-0.0307955357581377,0.1565233812181279,1.5973896034419535
1761391645993296000,2.1772958984375,0.7035480820834636,0.2157706295546144,1.6173036797016858
1761391646003362000,2.187362060546875,1.4165963984400034,0.04901106447167694,1.6295839000821113
1761391646013429000,2.197428955078125,1.9881845722734928,-0.19052118361629544,1.6974477682575582
1761391646023495000,2.207494873046875,2.438489130172133,-0.29763635427132246,1.8307640595525503
1761391646033561000,2.21756103515625,3.016633886042237,-0.7023113798953592,2.1257254955261944
1761391646043627000,2.227626953125,3.63940922627747,-1.2207520470395683,2.5471754226014016
1761391646053693200,2.237693115234375,4.2842724796801805,-1.513394392415881,2.8122870792344212
1761391646063758800,2.2477587890625,4.982210320666432,-1.6600018346995113,2.96900616568774
1761391646073824800,2.25782470703125,5.519645465007424,-1.5586837329506873,3.18293094817996
1761391646083891000,2.267890869140625,5.859321071976423,-1.572618588670343,3.3009275052681564
1761391646093958000,2.2779580078125,6.307360023030638,-1.7174796256780622,3.0091996443882585
1761391646104023800,2.28802392578125,6.722351275485754,-1.7455246936842799,2.6348651042312383
1761391646114090000,2.298090087890625,7.137253096091747,-1.631587348859012,2.080369227235019
1761391646124156000,2.308156005859375,7.218474750751256,-1.1561979609992354,1.7430302465200422
1761391646134222000,2.31822216796875,7.273460140392184,-0.7344096688151359,1.4478458154454827
1761391646144288000,2.3282880859375,7.595645683377981,-0.35697036757580936,0.9058438746456057
1761391646154354000,2.33835400390625,8.151391560435295,0.031732853140868246,0.35397918640319254
1761391646164420900,2.3484208984375,8.865518904200195,0.27600371059067547,-0.5476341014679521
1761391646174486800,2.35848681640625,9.350760919967293,0.4264975658535957,-1.4254492747202514
1761391646184553000,2.368552978515625,9.571624269551037,0.7425929022055119,-1.7657757468134163
1761391646194619000,2.378618896484375,9.552033433896302,1.3478256445527077,-1.7770926751196383
1761391646204685000,2.38868505859375,9.466369997397065,1.4065090119287371,-2.0760189230710266
1761391646214751000,2.3987509765625,9.446919446995853,1.3957279440648853,-2.274622510051727
1761391646224817200,2.408817138671875,9.469934411880374,1.2201534966245293,-2.3670623088181015
1761391646234882800,2.4188828125,9.503336915266514,0.8503010703176259,-2.296383675482869
1761391646244950000,2.428949951171875,9.419563822558521,0.4738995146282017,-1.9352298116773365
1761391646255016000,2.439015869140625,8.495708271208406,0.30129867617115375,1.9012144370898603
1761391646265081900,2.449081787109375,6.6726055400639765,0.8632670810051262,7.486448811078072
1761391646275148000,2.45914794921875,4.393483965027332,2.479323829385638,6.858607419624924
1761391646285214000,2.4692138671875,4.132090452134609,2.5127497136473655,5.0138610119491815
1761391646295279900,2.47927978515625,0.975123966294527,3.423274366520345,3.059018445046246
1761391646305346000,2.489345947265625,3.2094314170926808,3.1477520827710626,-0.3387912253499031
1761391646315413000,2.4994130859375,1.403038413208723,3.7414790231764314,-2.0013652486249804
1761391646325479000,2.50947900390625,-4.788298106372356,4.293041477069258,-2.3884695462450383
1761391646335545000,2.519545166015625,-8.348595217490196,3.1847365362972018,-1.361903854265809
1761391646345610800,2.52961083984375,-7.823487055280804,2.6473171740472314,-0.08987783932387829
1761391646355677000,2.539677001953125,-6.847653479412197,3.0165830326378344,0.19377514391094444
1761391646365742800,2.549742919921875,-4.3737569357723,3.0607910076767206,-0.7329694068789482
1761391646375809000,2.55980908203125,-2.1050702455103396,2.0524249892547726,0.09985621250271796
1761391646385875000,2.569875,-1.501450856643915,0.6698376817919314,1.8046145960345863
1761391646395942000,2.57994189453125,-2.769021645742655,-0.49155236795768137,3.261423762397468
1761391646406008000,2.590008056640625,-5.852581534588337,-0.9722202076770364,4.421372965689003
1761391646416074000,2.600073974609375,-10.795509061658382,0.026584274738654493,2.827349039287865
1761391646426140000,2.610139892578125,-14.743982483541965,1.0711788137529046,-0.5827402669668197
1761391646436205800,2.620205810546875,-15.62466291003227,1.5064260147079824,-2.2879624686181543
1761391646446272000,2.63027197265625,-14.913680878555773,1.3684995992690323,-1.9728259673610329
1761391646456338000,2.640337890625,-12.506426844602823,0.4891466219902038,-2.222293918529898
1761391646466404900,2.65040478515625,-10.58549502286911,-1.4792296724855898,-3.461056107904017
1761391646476471000,2.660470947265625,-9.676571083191037,-3.6962662550091743,-4.336534289576113
1761391646486537000,2.670536865234375,-8.978035276311635,-3.9498201603174206,-3.9288603743970394
1761391646496603100,2.68060302734375,-7.3796315273910755,-3.208074741786718,-2.9738112278819084
1761391646506669000,2.6906689453125,-5.498542471224069,-2.6655706236183643,-1.5531639466159044
1761391646516734700,2.700734619140625,-4.246577832058072,-1.8942174178093671,-0.02404956862926483
1761391646526801000,2.71080078125,-4.452078777337074,-1.3383534673303366,1.4117390215367078
1761391646536867800,2.720867919921875,-6.315322380211949,-1.1592623170059173,2.3019028772957624
1761391646546934000,2.73093408203125,-7.612448934140801,-0.3586848433434963,1.4355718786753713
1761391646557000000,2.741,-6.425966528710722,1.5821743525229393,-0.00020118512790650127
1761391646567065900,2.75106591796875,-4.0104911943793295,2.9814886306419965,-0.19941369778718798
1761391646577132000,2.761132080078125,-1.7561802354723215,2.5451667131274935,0.6494945664651691
1761391646587198000,2.771197998046875,-0.5699433292359113,0.994829660500586,1.7239079051598905
1761391646597264100,2.78126416015625,0.632179128396511,0.5095582725085318,2.417914836438
1761391646607329800,2.791329833984375,1.281954703760147,0.5910808098107576,2.05738991818577
1761391646617396700,2.801396728515625,1.4014151959210635,0.20981705491244793,1.6836027827784419
1761391646627463000,2.811462890625,1.330920686981082,-0.06692118049785495,1.9450160232849418
1761391646637528800,2.82152880859375,1.4902596005439757,-0.016333587424457074,2.0980521834418178
1761391646647595000,2.831594970703125,1.6234119334489105,0.12654445907250045,2.358697216054797
1761391646657661000,2.841660888671875,1.7349509849607943,-0.15614698565378785,2.570683139438927
1761391646667727000,2.85172705078125,1.8625562051326034,-1.0735277880318461,2.96851195243001
1761391646677793000,2.86179296875,2.288153022754192,-2.1829995806261895,2.6684812503680586
1761391646687859000,2.87185888671875,3.3513813889592883,-2.794647669908404,2.0326507598571477
1761391646697926100,2.881926025390625,4.333388685026764,-3.577849718943238,1.3740021422080695
1761391646707991800,2.89199169921875,5.91288958055675,-3.967125515383482,0.8480356826689094
1761391646718058000,2.90205810546875,7.452091783446073,-4.344093034392595,0.7504672157771884
1761391646728124000,2.9121240234375,8.447821899917722,-4.453190537971258,0.9525916703604161
1761391646738189800,2.92218994140625,8.808190750825405,-4.305890437248349,1.06040724436976
1761391646748256000,2.932256103515625,8.506063661006092,-3.9732369840010997,1.0178990589860826
1761391646758322000,2.942322021484375,8.45871563437581,-3.5614912893384694,0.7896019792050123
1761391646768388000,2.95238818359375,8.837394048956035,-3.248590292048454,0.396420115236938
1761391646778455000,2.962455078125,8.995154753416776,-2.9880972351267934,0.4463855578240007
1761391646788521000,2.97252099609375,9.054833853831887,-2.6974560004398227,0.38946649670675393
1761391646798587000,2.9825869140625,9.04742445435822,-2.402145458767563,0.20396745210140943
1761391646808652800,2.99265283203125,9.20893252865374,-2.0518863523334265,0.14153729941248894
1761391646818719000,3.002718994140625,9.369252269947529,-1.909885527062416,-0.05385353606678545
1761391646828785000,3.012784912109375,9.576984335279464,-1.80076610391289,-0.24644085843265054
1761391646838851000,3.02285107421875,9.801944014266132,-1.300244685949385,-0.5538119863852858
1761391646848918000,3.03291796875,9.921920054733752,-0.46744200905188915,-0.7668943997692317
1761391646858984000,3.04298388671875,9.700049573934077,0.16381211345419286,-0.37758492025509477
1761391646869050000,3.053050048828125,8.36106423844099,0.33783049055896697,0.5029193459507078
1761391646879116000,3.063115966796875,5.8699248835772275,0.5556628749489784,1.0552340064503252
1761391646889182000,3.073181884765625,3.4621588084489106,1.450180834264308,0.8234387823551893
1761391646899247900,3.083247802734375,0.6815332341521978,3.00950388803184,1.0772570376880466
1761391646909313800,3.093313720703125,-1.8392244293838738,4.385373139286041,1.105707910016179
1761391646919380000,3.1033798828125,-3.4750200435876843,4.742789277867972,0.8366038227461278
1761391646929447000,3.113447021484375,-4.29544327751398,4.117547839780151,0.6324884866066277
1761391646939513000,3.12351318359375,-5.7934939703255885,2.2844774029813704,0.1765587823025882
1761391646949579000,3.1335791015625,-8.378547872683406,-0.37689291940294206,0.7626105119049549
1761391646959645000,3.14364501953125,-12.073016722881793,-2.5163772564947604,2.953550530141592
1761391646969710800,3.1537109375,-16.372742207759618,-3.6393478514790534,5.6189913899004456
1761391646979776800,3.16377685546875,-20.32312234004736,-3.145616239786148,7.921921126025914
1761391646989843000,3.173843017578125,-23.12005022984743,-0.7811915129300206,8.96150149013996
1761391646999910000,3.183909912109375,-24.48909635708332,1.4741801340110599,9.277554813981055
1761391647009975800,3.193975830078125,-24.474422519564627,2.295610791414231,8.75654005856514
1761391647020042000,3.2040419921875,-22.00772144038677,2.3284587296575308,6.654931351685524
1761391647030108000,3.21410791015625,-18.056154728662968,1.1285342935260385,4.5547582305669785
1761391647040174000,3.224174072265625,-14.615870482891797,-0.5727312063887715,1.5006319414764642
1761391647050240000,3.234239990234375,-12.010814241468905,-1.8017182900711892,-2.55922651040107
1761391647060306000,3.244305908203125,-9.094548609104752,-2.596530112878978,-5.524981565338373
1761391647070373000,3.254373046875,-6.590922697633505,-2.918290416190028,-6.276493175601959
1761391647080438800,3.264438720703125,-5.561964849820733,-2.8258301591575146,-6.0285822446167465
1761391647090505000,3.2745048828125,-5.619064455136656,-2.0325287409126758,-5.355988688245415
1761391647100571000,3.28457080078125,-6.249954712766408,-0.8738510919269173,-4.078382827344536
1761391647110637000,3.294636962890625,-6.541280422586202,0.4683394693482667,-2.6428578565508127
1761391647120703000,3.304702880859375,-5.341610034281015,2.296773989974707,-0.9236132670268415
1761391647130769000,3.314768798828125,-3.4201796153753996,3.4370039089262483,0.7247169807098806
1761391647140835000,3.3248349609375,-1.5765519825965164,3.654986442376673,1.8529928424954414
1761391647150902000,3.334902099609375,-0.4215221155285835,3.2683067999094724,1.8345808413617313
1761391647160968000,3.344968017578125,0.8531178813040255,3.1130197920858858,1.2138687172666192
1761391647171033900,3.355033935546875,2.806604649683833,2.6707418887764214,1.1060963248118758
1761391647181099800,3.365099853515625,4.756984684219956,1.6781328269347549,1.337562755344063
1761391647191166000,3.375166015625,6.4268292830199,0.7359326405987143,1.3448293853461741
1761391647201232000,3.38523193359375,7.791480390167236,0.047322097604582086,1.1039727567866444
1761391647211298000,3.395298095703125,8.818606346377729,-0.3110038584318012,0.7962874483183026
1761391647221364000,3.405364013671875,9.392165528023243,-0.4406170208925381,0.5998156126692891
1761391647231431000,3.415430908203125,9.50973918352425,-0.3767825178310275,0.5123945188477635
1761391647241497000,3.4254970703125,9.071976127290725,-0.1671499526400119,0.3976631010353565
1761391647251562800,3.435562744140625,8.346019229522346,0.18048739045578985,0.049376025326550006
1761391647261629000,3.44562890625,7.874888741216063,0.4235567266287282,-0.6017521336898207
1761391647271694800,3.45569482421875,8.032456553453207,0.44903501288685943,-1.519865926517546
1761391647281761000,3.465760986328125,8.621282277813552,0.4247071753054857,-2.587894971002638
1761391647291827000,3.475826904296875,9.287381211468578,0.2807923331066966,-3.5006951675921676
1761391647301894000,3.485893798828125,9.70174410289228,-0.35778709078617393,-4.122576481597125
1761391647311960000,3.4959599609375,10.09143607891798,-0.7397123052679002,-4.259342036563158
1761391647322026000,3.50602587890625,10.297302350378036,-0.9357532752189784,-4.207520956172049
1761391647332092200,3.516092041015625,10.113283169066905,-1.07476777815558,-4.0904648948043585
1761391647342157800,3.52615771484375,10.06745197674036,-0.999400256351754,-3.691463823163509
1761391647352224000,3.53622412109375,9.949238269770145,-0.9190984199509024,-3.486488947585225
1761391647362290000,3.5462900390625,9.854145910668372,-0.8054954216465353,-3.295287745815515
1761391647372355800,3.55635595703125,9.830779063606261,-0.5925217658666894,-3.0986727023035288
1761391647382423000,3.566423095703125,9.610368718487024,-0.2818678168511018,-2.8096938478708267
1761391647392489000,3.576489013671875,9.197598064690828,0.01743869912214577,-2.4051345575809475
1761391647402555000,3.586554931640625,8.91433700338304,0.15129863230716437,-1.486882671456784
1761391647412621000,3.59662109375,9.115223732864855,0.23373211044184863,-0.7349876148335636
1761391647422687000,3.60668701171875,9.09677037680745,0.20005550282206386,-0.5212986869238316
1761391647432753000,3.6167529296875,8.50813871371448,-0.055780302878282964,-0.6155472886778414
1761391647442818800,3.62681884765625,7.652358335202932,-0.057783240198530254,-0.7450628725156188
1761391647452886300,3.63688623046875,7.2546589938104145,0.45943424182627346,-0.767068148900941
1761391647462952400,3.646952392578125,7.473138663128018,1.2693610335163772,-0.4984557176053524
1761391647473018400,3.657018310546875,7.329986329734325,1.6802045186422765,0.14533705702163277
1761391647483084500,3.66708447265625,6.10011720252037,1.6776329145886002,0.4477536313068121
1761391647493150500,3.677150390625,4.017832204791903,1.9424246916174888,0.42170740896761416
1761391647503216400,3.68721630859375,1.4030091871142387,2.2875851597383616,0.7700006221562623
1761391647513282600,3.697282470703125,-1.4856290181338787,2.685448751781881,1.094615876507014
1761391647523348200,3.70734814453125,-4.572075860592722,2.9075808061271906,0.40876930920034643
1761391647533415700,3.717415771484375,-7.252946929195523,2.953531240919232,-0.789979288084805
1761391647543481300,3.7274814453125,-8.889267444056271,1.9043235090211033,-1.5486409162335097
1761391647553547300,3.73754736328125,-9.452547808271646,-0.08678045783042908,-1.687883674968034
1761391647563613400,3.747613525390625,-10.113306549942493,-2.440308454553783,-0.2821396560624242
1761391647573679400,3.757679443359375,-12.511828995907306,-4.513163652896881,2.5458663858294486
1761391647583745500,3.76774560546875,-15.861359204041957,-5.042133166709542,5.331296730059385
1761391647593811500,3.7778115234375,-19.041071774697304,-4.470994197948277,8.088620923745632
1761391647603878400,3.78787841796875,-21.601128013920782,-3.4671757598280903,10.90435522082448
1761391647613944600,3.797944580078125,-22.678523437166213,-1.7244412813842296,12.406494644254446
1761391647624010500,3.808010498046875,-22.99570839538574,-0.2336502408446744,12.541367225080728
1761391647634076400,3.818076416015625,-22.553587728464603,0.8008144242234527,11.516503953105211
1761391647644142300,3.828142333984375,-21.38744083957672,1.161127453290671,9.673761870989203
1761391647654208500,3.83820849609375,-19.483281288945673,1.0612820544429122,6.833093039140105
1761391647664274400,3.8482744140625,-16.901061148709058,0.1398413091495633,3.763121238403022
1761391647674341400,3.85834130859375,-13.77178229573965,-1.2492498272493482,0.8341872631236911
1761391647684407600,3.868407470703125,-10.676339076876639,-3.1578961679056285,-1.5134218649446964
1761391647694473500,3.878473388671875,-8.085348185685277,-4.960266784405708,-3.0558354310959577
1761391647704539600,3.88853955078125,-6.071722882685065,-6.437354768687486,-3.6055016959786412
1761391647714605300,3.898605224609375,-4.308867407232523,-6.679393592768907,-3.3633959441408514
1761391647724671500,3.90867138671875,-2.7389240291208026,-5.77381487186551,-2.288463403877616
1761391647734737400,3.9187373046875,-1.388028475603461,-4.240981034964323,-0.7613742481082677
1761391647744803300,3.92880322265625,-0.08823241020441054,-1.9496952671423553,0.96270667553097
1761391647754870500,3.93887060546875,0.988113796249032,0.22961050046719608,2.702339388567209
1761391647764936400,3.9489365234375,1.8954460828214883,2.1006670421153304,3.719103525239229
1761391647775002400,3.95900244140625,2.071631501767039,3.2265336508020757,3.674750004249811
1761391647785068500,3.969068603515625,2.2732857084900138,3.7170880937635897,2.7050015935137868
1761391647795134500,3.979134521484375,3.2813784629285334,3.9120688140720126,1.3796560763165353
1761391647805200400,3.989200439453125,4.974098325881362,3.7443677303552625,0.24601532649695873
1761391647815266300,3.999266357421875,6.7164750769287345,3.2872508620932694,-0.7389505271151662
1761391647825333200,4.009333251953125,8.031811241286993,2.8726418869540096,-1.782492780597508
1761391647835399400,4.0193994140625,8.914527557519078,2.704760770495236,-2.466261226455867
1761391647845465300,4.02946533203125,9.630269935265183,2.764268898257613,-3.0148584008023143
1761391647855531500,4.039531494140625,10.169484948760271,3.0124045779094097,-3.8515754746645685
1761391647865597400,4.049597412109375,10.40768580211401,2.978430996637046,-4.285007808217406
1761391647875663600,4.05966357421875,10.573105496895312,2.769688585218787,-4.470067146231234
1761391647885729500,4.0697294921875,10.723072771000862,2.5357746154040095,-4.663042371936142
1761391647895795500,4.07979541015625,10.95873796839714,2.359689003571123,-5.050993934035301
1761391647905862400,4.0898623046875,11.302128211975097,2.3244684909775852,-5.177579163509607
1761391647915928300,4.09992822265625,11.580391026604175,2.309602930279076,-5.123367096328735
1761391647925994500,4.109994384765625,11.679928090155125,2.1573975218579173,-4.884302611882984
1761391647936060400,4.120060302734375,11.724391501259802,1.8906017115302383,-4.382819070889055
1761391647946126300,4.130126220703125,11.686465382969379,1.6331309250392019,-3.8603523630991576
1761391647956192500,4.140192626953125,11.430850453478097,1.4507431443221865,-3.4935713070616123
1761391647966258400,4.150258544921875,11.00249176992774,1.3997104378297924,-3.215679371571541
1761391647976324600,4.16032470703125,10.478857187402248,1.366832104448229,-3.0211782514736054
1761391647986391600,4.1703916015625,9.923657253789901,1.3568676136642694,-2.8545360291600224
1761391647996457200,4.180457275390625,9.332858183529973,1.272284373617172,-2.636161573782563
1761391648006523400,4.1905234375,8.74743671465516,1.1044196237713098,-2.3185373473629354
1761391648016589300,4.20058935546875,8.537992000186442,1.1227122363090514,-2.068167332787812
1761391648026655500,4.210655517578125,8.53779092465639,1.0200551410414278,-1.8002739364817737
1761391648036721400,4.220721435546875,8.57996067186594,0.9238431302599608,-1.739943970942497
1761391648046787600,4.23078759765625,8.67087779110968,1.0138540944442151,-1.845298780861497
1761391648056854500,4.2408544921875,8.641630069315433,1.0404849117383361,-1.886987174294889
1761391648066920400,4.25092041015625,8.294827386945485,0.9390988593198358,-1.8851196268573402
1761391648076986600,4.260986572265625,7.584766561967134,0.621640198725462,-1.7002642869830131
1761391648087052300,4.27105224609375,6.815158153998851,0.5821105907611549,-1.5673653443172573
1761391648097118500,4.281118408203125,6.034560149982571,0.6121171680986881,-1.5552635492436586
1761391648107184400,4.291184326171875,4.6368724501520395,0.6528796788588166,-1.4510733991898594
1761391648117250600,4.30125048828125,0.7316618314117193,0.6124734341904521,-0.3509787990108132
1761391648127316500,4.31131640625,-0.6561077009946108,0.7841881374627351,-0.0329652810126543
1761391648137383400,4.321383544921875,-2.8196920947939157,1.7821850298225879,-0.7563524744234978
1761391648147449600,4.33144970703125,-5.008071907153726,1.8623025226324796,0.1975871034145355
1761391648157515500,4.341515625,-5.998494564867019,0.47744244793206453,1.5445497013971208
1761391648167581400,4.35158154296875,-7.722510898837447,-1.7513845256283878,3.592223404471576
1761391648177647400,4.3616474609375,-10.950504393059015,-3.3712139244154096,5.286523522353172
1761391648187713300,4.37171337890625,-15.266317089384794,-3.0347996573299167,7.01622550074458
1761391648197779500,4.381779541015625,-20.48921774213314,-0.938415480165556,9.1162583366096
1761391648207846400,4.391846435546875,-25.938268744957444,1.9810674337446688,11.15907466278076
1761391648217912300,4.401912353515625,-29.997097561526296,4.979458976131677,11.876016479444504
1761391648227978500,4.411978515625,-31.102012275338172,6.54947074330449,11.253859563368557
1761391648238044400,4.42204443359375,-29.59229277204275,6.117087042021751,9.298234029394388
1761391648248110600,4.432110595703125,-25.662231789684295,4.100192508092523,6.432214483189583
1761391648258176300,4.44217626953125,-20.3437442723155,1.355795892779529,3.565931025351584
1761391648268242400,4.452242431640625,-15.69570219337344,-1.8561605127461254,1.2128846746653317
1761391648278309400,4.462309326171875,-12.203664379489421,-4.538662543551624,-0.5882306810766458
1761391648288375300,4.472375244140625,-9.608073301026225,-6.295436361002921,-1.7274644285976886
1761391648298441500,4.48244140625,-8.140720528817177,-8.273953525742888,-1.5905471902012824
1761391648308507400,4.49250732421875,-7.106002217781543,-8.367454231739044,-1.403469205841422
1761391648318573600,4.502573486328125,-6.364472487828135,-7.069017764255404,-0.7724640896603464
1761391648328639500,4.512639404296875,-5.946244153147935,-5.72372134591937,0.32927564737722276
1761391648338705700,4.52270556640625,-5.178913042461872,-3.388464042162895,1.5077821054920553
1761391648348771300,4.532771240234375,-4.432308493462204,-1.1373631313435733,2.9729075570404526
1761391648358838500,4.542838623046875,-4.363651721343397,0.5978320741692558,3.5263434035897254
1761391648368904400,4.552904541015625,-4.95565666026175,1.664995405203104,2.461039984676242
1761391648378970400,4.562970458984375,-4.624755311378836,2.2045209459520874,0.3238043763592839
1761391648389036500,4.57303662109375,-2.4224738149166107,2.117858123151958,-1.6598716324485838
1761391648399102500,4.5831025390625,0.9286936390310525,1.3957633076392113,-2.667105578100681
1761391648409168400,4.59316845703125,3.821477273520827,1.0649712643496692,-3.307335911005735
1761391648419234600,4.603234619140625,6.354604004764557,1.1447726038824766,-3.789281515575945
1761391648429301500,4.613301513671875,8.532318630725145,1.4719193494722247,-4.4608138724565505
1761391648439367400,4.623367431640625,10.08059904308319,1.8924167981281876,-4.9623880143433805
1761391648449433000,4.63343310546875,11.333264523994922,2.308293601246178,-5.008859842661023
1761391648459499000,4.6434990234375,12.287785262721776,2.5777725131779907,-4.853448916196823
1761391648469565000,4.65356494140625,12.9827549015522,2.7591584233760833,-4.402092803418636
1761391648479630800,4.663630859375,13.506860608720778,2.8956840321063995,-3.540833116713166
1761391648489697000,4.673697021484375,13.791817368030546,3.0239421632289885,-2.6783061865508553
1761391648499763000,4.683762939453125,13.846743720960616,2.960531182809174,-1.7965522856101392
1761391648509830000,4.693829833984375,13.722514114701747,2.7132465670287607,-1.3224670391514897
1761391648519896000,4.70389599609375,13.265608551102876,2.4316443788439033,-1.040714336580038
1761391648529962000,4.7139619140625,12.588674919700622,2.077130829835683,-0.894865311448276
1761391648540028200,4.724028076171875,11.865516128218173,1.6047262299403546,-0.8234270919173955
1761391648550093800,4.73409375,11.29803538970351,1.0728362986363469,-1.0135516043663024
1761391648560160000,4.744159912109375,10.943412973493338,0.8135401964142918,-1.374196057344973
1761391648570226000,4.754225830078125,10.645766243958473,0.614285305918008,-1.4279241404011844
1761391648580292900,4.76429296875,10.478590645420551,0.37561917314007875,-1.4484370593369007
1761391648590359000,4.774359130859375,10.486273601138592,0.307952581102401,-1.4943439472481608
1761391648600425000,4.784425048828125,10.63069960772991,0.3461781207308173,-1.4805635514378548
1761391648610491100,4.7944912109375,10.792762977820635,0.39225525064244865,-1.550832727189362
1761391648620557000,4.80455712890625,10.723891101646423,0.4300812695592642,-1.6819574997894464
1761391648630623000,4.814623046875,10.333446845948696,0.4079954022184014,-1.8574708646923304
1761391648640689000,4.82468896484375,9.763290750744938,0.3126169196516275,-2.1631663145177065
1761391648650754800,4.8347548828125,9.097605074065923,0.2575644561238587,-2.4368657667540012
1761391648660822000,4.844822021484375,8.425752106928824,0.23116481723710894,-2.6457828040868043
1761391648670888000,4.854887939453125,7.87157567114532,0.06476181050688028,-2.7242119054183362
1761391648680953900,4.864953857421875,7.457068402814865,-0.1768205019786954,-2.6891864770054816
1761391648691020000,4.87502001953125,7.105609419071674,-0.3519528316747397,-2.6418361122876406
1761391648701086000,4.8850859375,6.518443152356148,-0.43358562441840764,-2.638752174797654
1761391648711152000,4.895152099609375,5.152174088618159,-0.5373032615896314,-2.4721745421528816
1761391648721217800,4.9052177734375,2.376582416835427,-0.7981517808854579,-1.84195955343619
1761391648731285000,4.915284912109375,0.5741770212829113,-0.6460135194163769,-1.334653297638148
1761391648741351000,4.925350830078125,-1.4570920749574898,0.30537410891652106,-1.8945294063679874
1761391648751416800,4.935416748046875,-3.8803608396440743,0.37477870372794564,-1.573874872341752
1761391648761483000,4.94548291015625,-4.819513913369178,-0.29504502260386944,-0.25790727821215986
1761391648771549000,4.955548828125,-4.874667645314336,-1.2300371772572398,2.001012051273137
1761391648781615000,4.965614990234375,-6.7387956298083065,-2.3588509453117847,4.937077631998062
1761391648791681000,4.975680908203125,-11.087184315568209,-2.1037768446989356,7.374040575516223
1761391648801747200,4.985747314453125,-16.53367160538435,-0.21889668915327637,9.333521615874767
1761391648811814100,4.995814208984375,-21.319989351594447,1.9932396637059746,10.760339548599719
1761391648821880000,5.005880126953125,-24.39278585436344,4.194522358389198,11.791943527007103
1761391648831946000,5.015946044921875,-26.55828514187336,5.93290127197206,12.816720289742946
1761391648842012000,5.026011962890625,-28.03829690464735,7.059893962079286,12.759236069023608
1761391648852078000,5.036078125,-27.653941028952598,7.378773449257015,10.77930611487627
1761391648862144000,5.04614404296875,-25.46907770028114,6.374314082884788,7.640979447576403
1761391648872210000,5.0562099609375,-22.05912195727825,4.266709350460768,3.9406297226458786
1761391648882277000,5.066277099609375,-18.593994362151623,2.0854061984889207,0.6294567176952958
1761391648892343000,5.076343017578125,-15.248793123131989,-0.4433895908784121,-1.8843515650942921
1761391648902409000,5.086408935546875,-12.165289348387718,-3.104091512481868,-3.6204753932267426
1761391648912475000,5.096474853515625,-9.698121236220002,-5.2537259991228575,-4.286032182829082
1761391648922540800,5.106540771484375,-8.155677274930477,-6.23896687028408,-4.130702504907548
1761391648932607000,5.11660693359375,-7.30440823636353,-5.9409501383930445,-3.0349326360598203
1761391648942673000,5.1266728515625,-6.221053612452745,-4.702110353738069,-1.570893664573878
1761391648952739800,5.13673974609375,-4.479601575034857,-3.088129388718307,-0.16646321248486637
1761391648962806000,5.146805908203125,-2.2869272803515193,-1.5048048432469368,1.0225722384288907
1761391648972872000,5.156871826171875,-0.4623515540450811,-0.14042265270147472,1.6924843006312846
1761391648982938000,5.166938232421875,0.9502034600496292,1.0438741157852112,1.7017179929226636
1761391648993004000,5.177004150390625,2.13112355517745,1.812600187961012,0.9583841361567378
1761391649003070000,5.187070068359375,2.6294483398795125,1.7583431125946343,-0.7392720141544937
1761391649013136000,5.197135986328125,3.0380016682416198,1.3912304865151643,-2.8581711707919832
1761391649023202000,5.2072021484375,3.792791861784458,1.3768638152495025,-4.490211816376448
1761391649033269000,5.21726904296875,5.067401463478803,1.216715046608448,-5.6738288955032825
1761391649043335000,5.2273349609375,6.47733431237638,0.7330713328834623,-6.701236591264605
1761391649053401000,5.237401123046875,7.967613202142715,0.08863945663534105,-7.624549121779203
1761391649063467000,5.247467041015625,9.137134535899758,-0.47360601157434284,-8.060292654883861
1761391649073533200,5.257533203125,9.998291346752643,-0.6799285754345357,-7.796670944547652
1761391649083599000,5.26759912109375,10.795006372833251,-0.7195547756411135,-7.435413035845756
1761391649093664800,5.277664794921875,11.505359458756447,-0.38278592296428976,-6.472724188232421
1761391649103732000,5.28773193359375,11.960499766248464,-0.09769370070658624,-5.358996053367853
1761391649113798000,5.2977978515625,12.155467042553424,0.07067596645411103,-4.313316787856817
1761391649123863800,5.30786376953125,12.310126858389378,0.41214886863604183,-3.4020457005307074
1761391649133930000,5.317929931640625,12.291569457435607,0.7753494358383118,-2.4616265523925422
1761391649143996000,5.327995849609375,12.02386077004671,0.8538101744171231,-1.5551105506390333
1761391649154062000,5.33806201171875,11.409815848755835,0.6814565887194126,-0.9886109321162104
1761391649164128000,5.3481279296875,10.646353103935718,0.5401080168120562,-0.8364712824076413
1761391649174194200,5.358194091796875,9.99891444708705,0.48787704044580454,-0.8666314428716897
1761391649184261000,5.36826123046875,9.529612927773595,0.32641967342421413,-0.7258110595569014
1761391649194326800,5.378326904296875,9.282125190636515,0.1352296506356448,-0.5199500487938523
1761391649204393000,5.38839306640625,9.247512142416834,0.0612778408486396,-0.4587047219753265
1761391649214459000,5.398458984375,9.290075857380032,0.157144472258538,-0.516472435811162
1761391649224525000,5.408525146484375,9.248852451109885,0.07083112048320472,-0.659227294319868
1761391649234591000,5.418591064453125,9.116609049743413,-0.06830065215751528,-0.8137848188251257
1761391649244657200,5.4286572265625,8.98102861290872,-0.06679477763921023,-0.8499377899631857
1761391649254723000,5.43872314453125,8.930840394416451,-0.10467669146172702,-0.8288546699240803
1761391649264790000,5.4487900390625,8.947617341694235,-0.17453962449990212,-0.8204046753562987
1761391649274856200,5.458856201171875,8.747776906394957,-0.3179115189284086,-0.6095972942322492
1761391649284921900,5.468921875,8.071350639992952,-0.56300315470919,-0.3104454208314419
1761391649294988000,5.478988037109375,6.95787151145339,-0.6305751272659749,-0.23061039822474122
1761391649305054000,5.489053955078125,5.404859394398331,-0.6768310478106141,-0.2603869661986828
1761391649315119900,5.499119873046875,1.8422347171157598,-0.8174331121996045,0.36964594394937156
1761391649325186000,5.50918603515625,0.05928747074902057,-0.8835665763858706,0.8680502236284315
1761391649335253000,5.5192529296875,-2.2353239343643185,-0.292326703555882,-0.13314210377186536
1761391649345319000,5.52931884765625,-4.848130351522564,0.599236789868027,0.019275778356194494
1761391649355385000,5.539385009765625,-5.703504487320781,1.4759791462570429,0.010418372031301259
1761391649365451000,5.549450927734375,-6.100587742641568,1.6277645757004617,0.7235666416309774
1761391649375517000,5.559516845703125,-5.739451414492726,1.0783764701720326,1.647641534820199
1761391649385582800,5.569582763671875,-5.114743644890189,-0.054196504285559055,2.224589189860225
1761391649395649000,5.57964892578125,-5.767272318354249,-1.2936343278989195,2.3108590678200125
1761391649405716000,5.589716064453125,-8.07503020528853,-2.0994535746723413,2.802113475744426
1761391649415782000,5.599781982421875,-11.629950299543141,-2.338538225123286,4.188369388717413
1761391649425848000,5.60984814453125,-15.320344447648525,-1.8069120593219994,6.157819449904561
1761391649435914000,5.6199140625,-19.069320548582077,-0.009650748659670352,7.721020952540636
1761391649445980200,5.629980224609375,-22.77662491495609,2.3128679234243927,8.174038276529311
1761391649456045800,5.6400458984375,-25.747852556085586,4.239588996084034,7.5358911796391
1761391649466112000,5.650112060546875,-26.730211734330652,4.977821145796775,6.55711745866537
1761391649476179000,5.660178955078125,-25.390873347616193,4.231854894700646,5.282157143837213
1761391649486244900,5.670244873046875,-22.170957361388204,2.5076743100792167,3.5134915208011863
1761391649496311000,5.68031103515625,-18.2452405457139,0.24780432880558073,1.772621082663536
1761391649506377000,5.690376953125,-14.447186817878483,-2.2750858897797763,0.6466853542633354
1761391649516443100,5.700443115234375,-11.254791291260718,-4.557828431792557,0.11921177809685468
1761391649526509000,5.710509033203125,-9.275944456174969,-5.863219248458742,-0.0796428610354662
1761391649536574700,5.72057470703125,-8.441537120559811,-5.950998654198647,-0.210315798214823
1761391649546641000,5.730640869140625,-7.70180187280774,-5.153489847391843,-0.37056115909814835
1761391649556707800,5.740707763671875,-6.574125876611471,-3.768550569975376,-0.3253545284107327
1761391649566774000,5.75077392578125,-5.065912686225771,-2.101677388201654,-0.10258023063912987
1761391649576840000,5.76083984375,-3.301622209534049,-0.5538533413089811,-0.034579584341496224
1761391649586905900,5.77090576171875,-1.472808115005493,0.6713745359703898,-0.07546689052507281
1761391649596972000,5.780971923828125,0.4239215778857469,1.4744146734192967,-0.139778473046422
1761391649607038000,5.791037841796875,2.2181202861070632,1.6323884361088274,-0.3133202456153929
1761391649617104100,5.801104248046875,4.123265340644121,1.4614154911145567,-0.6856773482196032
1761391649627171000,5.811171142578125,6.171124921679496,1.212452639923617,-1.0860606679990887
1761391649637236700,5.82123681640625,8.049036516854166,0.898750701514259,-1.4393430677771568
1761391649647303000,5.831302978515625,9.513133502137661,0.6935913362145424,-1.8353946419626472
1761391649657368800,5.841368896484375,10.472364318251609,0.6703470926187932,-2.2106392827019095
1761391649667435000,5.85143505859375,11.232095475327968,1.0312105951756239,-2.3723887645378707
1761391649677501000,5.8615009765625,11.830994265413283,1.6055436838030814,-2.2390341870591044
1761391649687567000,5.871567138671875,12.13477262957096,1.9607539829038083,-1.9347323835492134
1761391649697633000,5.881633056640625,12.186748316001891,1.9960159965515136,-1.7831982985183596
1761391649707700000,5.891699951171875,12.120525493031739,1.8589625645548105,-1.820932109107077
1761391649717766100,5.90176611328125,11.986138065373897,1.5548638824015855,-2.0084642669752237
1761391649727831800,5.911831787109375,11.648928556257486,1.1416719344533979,-2.127841172505915
1761391649737898000,5.92189794921875,11.362143412476778,0.7633285239811987,-2.293628823816776
1761391649747964000,5.9319638671875,11.159967812228203,0.5761915029104798,-2.6472540456831455
1761391649758029800,5.94202978515625,11.050726516264676,0.37737989920228715,-3.029791473779082
1761391649768096000,5.952095947265625,10.922654263103007,0.19537775680199265,-3.3105130797371265
1761391649778163000,5.962162841796875,10.70384901509285,0.11255787316560745,-3.4900849262505766
1761391649788228900,5.972228759765625,10.431457138323783,0.07010090651251376,-3.712715577767789
1761391649798295000,5.982294921875,9.95985786346197,0.059176484655216334,-3.9206872970744966
1761391649808361000,5.99236083984375,9.717010645607113,0.019422128024324775,-3.78188672914952
1761391649818427000,6.002427001953125,9.657831311407685,0.04054346118196845,-3.5960137366652485
1761391649828492800,6.012492919921875,9.347797393986582,0.02422010289058089,-3.5413542179778217
1761391649838559000,6.02255908203125,9.104553285768628,0.02982851735688746,-3.4911928874924776
1761391649848626000,6.0326259765625,9.023108928269147,0.1796755260836333,-3.4160353551775215
1761391649858691800,6.04269189453125,8.89365311179459,0.27823811857923864,-3.263478356839716
1761391649868758000,6.052758056640625,8.624418237751723,0.37110271862894295,-3.155901486957073
1761391649878824000,6.062823974609375,8.35231628383994,0.5238332469027489,-3.074927961839735
1761391649888890000,6.07289013671875,8.143319313138722,0.6321314898625016,-3.051302171580493
1761391649898956000,6.0829560546875,8.028741332322358,0.65880651162453,-2.8919448455780743
1761391649909022000,6.09302197265625,7.7775693537145845,0.5680239785458893,-2.54217103844285
1761391649919089000,6.1030888671875,7.433209388321638,0.35656390566676854,-2.1665768536135555
1761391649929154800,6.11315478515625,7.057385778650641,0.09254172477088868,-1.8399211794763803
1761391649939221000,6.123220947265625,6.297614874085784,-0.22775449733696876,-1.440090671274066
1761391649949287000,6.133286865234375,4.747869649872183,-0.4385922005340457,-1.045024308733642
1761391649959353000,6.14335302734375,2.846051693931222,-0.42147118905894454,-0.7243012395158409
1761391649969419000,6.1534189453125,0.9578957681179046,-0.6792792446803301,0.11350421410501002
1761391649979485000,6.16348486328125,-1.582906904581189,-1.8325697938002645,1.9503128145188091
1761391649989550800,6.17355078125,-4.4292800855517385,-2.8404943520650265,4.379881556132435
1761391649999618000,6.1836181640625,-8.475585520634054,-2.6409873865038156,6.929221755552291
1761391650009684000,6.19368408203125,-14.723463427126406,-0.9031963558115065,8.988604601120949
1761391650019750000,6.20375,-22.385282833635806,1.982931035659462,10.571334395569563
1761391650029815800,6.21381591796875,-29.197485644960402,5.0745232781827445,12.068969493317603
1761391650039882000,6.223882080078125,-34.5787017134428,7.6825576586335895,12.922460299587248
1761391650049948000,6.233947998046875,-36.94828331160545,8.895918718639015,11.855982576197386
1761391650060014000,6.24401416015625,-35.717853043377396,8.787035734593868,9.350060078221558
1761391650070081000,6.2540810546875,-32.012213395345206,6.5418503314286465,6.378036318278312
1761391650080147000,6.26414697265625,-27.118486244773862,3.6590216892421243,2.9344682285308834
1761391650090213000,6.274213134765625,-21.77065806663036,1.279451050376147,-0.07773381254374981
1761391650100278800,6.28427880859375,-17.034141585421562,-1.0095767093859613,-2.1111850751288235
1761391650110345000,6.294344970703125,-13.225193538606167,-3.1687714899241923,-3.3049539843052624
1761391650120411000,6.304410888671875,-10.040844540321826,-4.970194888702035,-4.000191334161162
1761391650130477000,6.31447705078125,-7.315703537359833,-6.078238548189401,-4.338068951797485
1761391650140544000,6.3245439453125,-5.2775072722047565,-6.349768839693069,-4.2247845179229975
1761391650150610000,6.33460986328125,-3.448030914375186,-5.818482281109691,-3.5693297278791665
1761391650160676000,6.344676025390625,-2.05266259740293,-4.686335276979208,-2.5104776770621537
1761391650170742000,6.354741943359375,-0.9765332485705613,-3.2058249170333144,-1.578656845921278
1761391650180808000,6.364807861328125,0.17905425238013267,-1.3086702767282723,-0.9130950878828763
1761391650190873900,6.374873779296875,0.5233265394896268,0.39486462942324574,-0.8003584971494972
1761391650200939800,6.384939697265625,0.426612716665864,1.5382440253816545,-1.3711296555116772
1761391650211006000,6.395005859375,1.4437053546398877,2.399787351334095,-2.2903683607161045
1761391650221073000,6.405072998046875,3.5291432634413242,2.8764409869760272,-2.808428357979655
1761391650231139000,6.41513916015625,5.690695859152078,2.8747739305466413,-2.98371069060564
1761391650241205000,6.425205078125,7.617595064857602,2.6079309200763703,-2.9837779106229543
1761391650251271000,6.43527099609375,9.330902373287081,2.3961415421776473,-2.8398920022577046
1761391650261337000,6.445337158203125,10.660375784069299,2.402522183125466,-2.888779075023532
1761391650271402800,6.45540283203125,11.459652185070514,2.207076475653797,-2.956966768325865
1761391650281469000,6.465468994140625,11.748626947849989,1.92578203824386,-3.2082471757441757
1761391650291536000,6.475535888671875,12.127828509521484,2.069802971165627,-3.9247698902130126
1761391650301601800,6.485601806640625,12.519027967500685,2.198894192111492,-4.287426559796929
1761391650311668000,6.49566796875,12.822173878973722,2.226235203501582,-4.125605181768536
1761391650321734000,6.50573388671875,13.161373100602626,2.0386792263664306,-3.4439690717637537
1761391650331800000,6.515800048828125,13.389241945034264,1.6519291490115224,-2.805900008545816
1761391650341866000,6.525865966796875,13.478046017646788,1.4567876851834356,-2.4866730231046676
1761391650351932200,6.53593212890625,13.237515260040759,1.2829847774602472,-2.26120773268342
1761391650361997800,6.545997802734375,12.813771961331367,0.921141323955357,-1.996403972955793
1761391650372064800,6.556064697265625,12.419724712705612,0.6177307701967656,-1.6606344335146248
1761391650382131000,6.566130859375,12.072268534862994,0.6373785967357456,-1.485744899598509
1761391650392196900,6.57619677734375,11.458190880346297,0.7329130005165934,-1.2801561299055815
1761391650402263000,6.586262939453125,11.06032553473711,0.7784338117197156,-1.1657184343427418
1761391650412329000,6.596328857421875,10.608094977211952,0.8797174266770481,-0.9909814606398344
1761391650422395000,6.606394775390625,10.110655158650875,1.2198249953225255,-0.7431362883672118
1761391650432461000,6.6164609375,9.887902049797773,1.5676453303024172,-0.3448448263004422
1761391650442528000,6.626528076171875,9.822478852772711,1.7128312153503298,0.060331426844000814
1761391650452594200,6.63659423828125,9.667064419177175,1.6710228487990795,0.29108576358407734
1761391650462660400,6.646660400390625,9.309106136542558,1.5578516660407185,0.37564343079850077
1761391650472726300,6.656726318359375,8.708862946110964,1.4851824434101581,0.22321385823264717
1761391650482792200,6.666792236328125,7.95359636722803,1.3988457838244734,0.008526566935330628
1761391650492858000,6.676858154296875,7.193380641505121,1.2322285498216747,-0.11397475422620773
1761391650502924300,6.68692431640625,6.881361103224754,1.0542765595950185,-0.1540410994157195
1761391650512990200,6.696990234375,6.929011327672004,0.9323363794475793,-0.2457026072859764
1761391650523057200,6.70705712890625,6.756548728641867,0.7730743305131793,-0.31511545846909284
1761391650533123300,6.717123291015625,6.349286024612188,0.7331311733119189,-0.4025350909858942
1761391650543189200,6.727189208984375,5.839112396684289,0.960714917191863,-0.5005998900271952
1761391650553255400,6.73725537109375,5.102217925316095,1.354054017548263,-0.29906960194483395
1761391650563321300,6.7473212890625,3.251010797193646,1.795001256775856,0.21628084409907458
1761391650573387300,6.75738720703125,0.6428840622842311,1.9468239494897424,1.5836213364608585
1761391650583453200,6.767453125,-2.9967034431695936,2.3705372914522886,3.6111782803103325
1761391650593520000,6.77752001953125,-7.300228320330381,2.7089561763584613,5.99931289551258
1761391650603586300,6.78758642578125,-13.519044382989406,2.7772908769160507,8.3543872448951
1761391650613652200,6.79765234375,-20.290468609201906,3.789537243902683,9.214396639278531
1761391650623718100,6.80771826171875,-26.771883468890188,4.77434030816853,9.062562986779213
1761391650633784300,6.817784423828125,-30.902428445148466,4.994980370390415,8.689837927645444
1761391650643850200,6.827850341796875,-32.64954333063364,4.7258811054259535,8.359918575537204
1761391650653916200,6.837916259765625,-33.718259772861,4.109025802889466,8.118530908840894
1761391650663983400,6.8479833984375,-34.593775363934036,3.488894255161285,7.520330037891864
1761391650674049000,6.858049072265625,-35.47760051819086,3.2696976697459816,5.525265642976761
1761391650684115200,6.868115234375,-33.60540730066299,3.012909604822099,2.836409420838952
1761391650694181000,6.87818115234375,-28.32962729064226,1.5325018284678458,0.4566398984000086
1761391650704247300,6.888247314453125,-21.960983070087433,-0.3441537387637421,-1.244626551362872
1761391650714313200,6.898313232421875,-16.576764897179604,-2.0173443235233424,-2.5900989107877015
1761391650724379400,6.90837939453125,-12.30424656817913,-3.4423917394444343,-2.952859040746093
1761391650734445300,6.9184453125,-8.191040264734625,-4.129386453872919,-2.645973358222842
1761391650744512300,6.92851220703125,-5.365040009707212,-3.800709210780263,-1.5017013242736459
1761391650754578400,6.938578369140625,-2.9535844324111937,-3.00599851025939,-0.22126666968762873
1761391650764644000,6.94864404296875,-1.1817167984634638,-2.3398439008943734,0.6212091138318181
1761391650774710300,6.958710205078125,-0.07797112843096256,-1.9447116335108876,1.1844465156883002
1761391650784776200,6.968776123046875,1.01461894133687,-0.938322614250332,0.7798214666858315
1761391650794842400,6.97884228515625,2.27582896323204,0.174237718943879,-0.04484188902825117
1761391650804908300,6.988908203125,3.6748166397452353,0.6296497560493648,-0.9271323810636997
1761391650814975200,6.998975341796875,5.07518437243998,1.1812214161619543,-2.1122508046641943
1761391650825041400,7.00904150390625,6.524865878880024,1.7615663124248384,-2.2417811476796863
1761391650835107300,7.019107421875,8.312396945905684,1.886790336548537,-2.3223037141591307
1761391650845173200,7.02917333984375,9.983808063369988,1.7409757982082663,-2.453406128796935
1761391650855239200,7.0392392578125,11.449289781010151,1.7898887360677123,-2.5471415203317997
1761391650865305000,7.04930517578125,12.45378129608631,1.770362490081787,-2.551040865857899
1761391650875371300,7.059371337890625,13.050690373659133,1.6423386061064897,-2.608627377907932
1761391650885437200,7.069437255859375,13.280324474197625,1.551362596282363,-2.7597251173481343
1761391650895504100,7.079504150390625,13.442771290647983,1.4375234511345625,-2.9541981803953647
1761391650905570300,7.0895703125,13.582699985820055,1.3060671084925533,-3.154414755530655
1761391650915636200,7.09963623046875,13.644896622014045,1.0927945062987505,-3.4872532099559903
1761391650925702400,7.109702392578125,13.61411336121559,0.9153250388920307,-3.5271003594368695
1761391650935768000,7.11976806640625,13.344122700369358,0.6297666604273021,-3.3376807803869246
1761391650945834200,7.129834228515625,12.647267393922805,0.24953370988145468,-3.22671192997843
1761391650955900200,7.139900146484375,11.679371625316142,-0.11733195569962263,-3.2750372772082685
1761391650965967000,7.149967041015625,10.617056866824626,-0.40954829421620814,-3.472516536334157
1761391650976033300,7.160033203125,10.036644166022539,-0.5323141845980659,-3.272473271939158
1761391650986099200,7.17009912109375,9.80252736711204,-0.569886046090722,-2.982053571048379
1761391650996165400,7.180165283203125,9.420319609361886,-0.5716673034843057,-2.670233354732394
1761391651006231300,7.190231201171875,8.732336760678887,-0.5229789316283538,-2.3450293407082556
1761391651016297200,7.200297119140625,8.26356131106615,-0.315510960592702,-2.3026813143223523
1761391651026363100,7.210363037109375,8.303181373792887,-0.09456859095599501,-2.2115986292533574
1761391651036430000,7.22043017578125,8.445145958706735,-0.13486764892283826,-1.9380602127976714
1761391651046496300,7.230496337890625,8.478928401321172,-0.2786495489243418,-1.6722775250352917
1761391651056562200,7.240562255859375,8.393360826411843,-0.2257538615716621,-1.635514020783454
1761391651066628000,7.250628173828125,8.02452166880071,-0.3023385040802881,-1.774546643898636
1761391651076694300,7.2606943359375,7.7152300941795104,-0.5210764955405146,-1.9818121146321295
1761391651086760200,7.27076025390625,7.4349465873777865,-0.574851011554338,-2.040202636541426
1761391651096826400,7.280826416015625,7.143264903727173,-0.4955066585414111,-1.9884198423340915
1761391651106892300,7.290892333984375,6.7226143103361125,-0.42251532781701534,-2.0081556394174696
1761391651116959200,7.300959228515625,6.20015637037456,-0.36891127299927173,-2.025050806247443
1761391651127025200,7.311025146484375,5.556605368614196,-0.3154912329789251,-1.9348818750225005
1761391651137091000,7.321091064453125,4.989523274028301,-0.293573342616111,-1.697124381522089
1761391651147157200,7.3311572265625,4.506725144281983,-0.09971665790155529,-1.5350690486073493
1761391651157223200,7.34122314453125,3.6906571829557415,0.20809498036019503,-1.1386018793582915
1761391651167289300,7.351289306640625,2.9100948347747324,0.44752347581274804,-0.7201151860028505
1761391651177355300,7.361355224609375,1.7045207753837108,1.0982694305785,-0.7123872220993042
1761391651187422200,7.371422119140625,-0.18161854991018772,1.9904580701634287,-0.288234758067131
1761391651197488400,7.38148828125,-2.788745752388239,1.9498849444955586,1.501379398842901
1761391651207554300,7.39155419921875,-6.281354059636593,0.9709257839523255,4.4527351954191925
1761391651217620200,7.4016201171875,-12.359950335222482,1.0051493213977665,7.289975221863388
1761391651227686100,7.41168603515625,-20.51517285212278,3.191423174454272,9.651464114463328
1761391651237752300,7.42175244140625,-28.72800935360193,6.317789647108316,11.74800969273448
1761391651247818200,7.431818359375,-35.31865031168461,8.597766377669572,12.88045889468193
1761391651257884200,7.44188427734375,-38.75350434910059,9.635638768821954,11.481167266786098
1761391651267951400,7.451951416015625,-38.6059593337059,9.555909983068704,7.534823842668533
1761391651278017300,7.462017333984375,-35.38071718401908,7.33734312223792,2.9282910012006758
1761391651288083200,7.472083251953125,-29.845044713318345,3.953126216125488,-1.0577452586188911
1761391651298149400,7.4821494140625,-23.47483397409916,0.4800314049793407,-4.317131085447967
1761391651308215000,7.492215087890625,-17.81526390557289,-2.6611294263005254,-6.635465603715181
1761391651318281200,7.50228125,-12.946970471465587,-5.042923440304398,-7.621810636726021
1761391651328347100,7.51234716796875,-9.0523847071141,-6.762885530447959,-7.243840662676096
1761391651338414000,7.5224140625,-6.438475881671905,-7.8449653121173375,-6.352592664942145
1761391651348480300,7.532480224609375,-4.479196501365304,-7.758688127633929,-5.644780495673418
1761391651358546200,7.542546142578125,-2.522164607724547,-7.034139343097806,-4.818635669229924
1761391651368612400,7.5526123046875,-0.46905134394466874,-5.697767404973507,-3.6628275112658737
1761391651378678300,7.56267822265625,1.0523480757504702,-3.6948724625632163,-2.4929618941158056
1761391651388744400,7.572744384765625,1.742812804377079,-1.78937567197904,-1.6757330723166466
1761391651398810000,7.58281005859375,2.1475550500184295,-0.12754811968971044,-1.0911111563216893
1761391651408877000,7.592876953125,2.913753357282281,1.1926980650745331,-0.5106473829194903
1761391651418943200,7.602943115234375,4.016907491162419,1.9625965420305729,-0.1111101585753262
1761391651429009200,7.613009033203125,5.537229637014866,2.4590344900727272,0.08413476562723517
1761391651439075300,7.623075439453125,7.198842998564243,2.6384692662030456,0.15900478623770176
1761391651449141200,7.633141357421875,8.786835828107595,2.3860109010465442,-0.023687603449076413
1761391651459207400,7.64320751953125,10.075684383034705,1.9464026553377507,-0.5966885666899383
1761391651469273300,7.6532734375,11.06465333480835,1.5218297739364206,-1.33233259960562
1761391651479339300,7.66333935546875,11.805693819940089,1.0108151651397348,-2.062447347705811
1761391651489406500,7.673406494140625,12.345521996897459,0.3563900104045868,-2.5750275983840227
1761391651499472400,7.683472412109375,12.77003218832612,-0.1153922198086977,-2.5871818542972207
1761391651509538300,7.693538330078125,13.275090665197371,-0.04332268010433763,-2.8968738264128566
1761391651519604500,7.7036044921875,13.949237296229601,0.34157223437055945,-3.1072143206775187
1761391651529670400,7.71367041015625,14.3859476285398,0.34815117436945436,-2.440316199468821
1761391651539736300,7.723736328125,14.36739139662981,0.0016932868491858243,-1.5733473413363097
1761391651549802200,7.73380224609375,13.654725942111014,-0.2090704012636095,-0.8721763636477291
1761391651559869200,7.743869140625,12.649240739822387,-0.1615730292905122,-0.5246528196573257
1761391651569935400,7.753935302734375,11.724372796559333,0.05009688694700598,-0.5710138810768723
1761391651580001300,7.764001220703125,10.817720893466472,0.16601616283711046,-0.39311902786493297
1761391651590067500,7.7740673828125,10.006203435051441,0.1431228515708819,-0.21873832025378942
1761391651600133400,7.78413330078125,9.322762321451306,0.11756810254305601,-0.09814604758396744
1761391651610199600,7.794199462890625,8.834805201506613,0.2749653805188835,-0.03761500651463866
1761391651620265200,7.80426513671875,8.445816405314206,0.4773201732592657,0.14463117377460002
1761391651630332400,7.81433251953125,7.887244364920258,0.49327067965026944,0.2510303781799972
1761391651640398300,7.8243984375,7.240930328187346,0.5770797569870948,0.02336962354108691
1761391651650464300,7.83446435546875,7.373352008730173,0.700197894872725,0.031724779432266946
1761391651660530400,7.844530517578125,7.96415341707766,0.5710116525871679,0.2571495186474174
1761391651670596400,7.854596435546875,8.604140588876605,0.3237915168777108,0.31090090951398014
1761391651680662300,7.864662353515625,9.010863194680214,0.1522237843280658,0.26020861395709216
1761391651690728400,7.874728515625,9.255067087841033,0.10016480352785438,0.28430589418560265
1761391651700794400,7.88479443359375,9.073521603167057,0.08999558395203203,0.3873344531141221
1761391651710861600,7.894861572265625,8.533141053023934,0.15683365274369715,0.2853638788059354
1761391651720927500,7.904927490234375,7.786227876466512,0.28225228612404313,-0.009118979870527982
1761391651730993200,7.9149931640625,6.429352664017677,0.46192485306560993,-0.09594893939848989
1761391651741059300,7.925059326171875,4.472443519973755,0.5556697065485641,0.20583083482049405
1761391651751125200,7.935125244140625,1.5703788469195366,0.6962190543696284,0.5953995132600888
1761391651761191400,7.94519140625,-1.7341098579615353,1.174910260253772,0.6285445712864398
1761391651771257300,7.95525732421875,-4.456645062339305,1.2156110308893024,0.5336711886975914
1761391651781324300,7.96532421875,-6.271120250391959,-0.6429357924714684,1.99814891692698
1761391651791390500,7.975390380859375,-8.644273861822485,-3.440176986004412,4.462926042304932
1761391651801456400,7.985456298828125,-13.979240804827212,-3.929358971568942,5.770774188995361
1761391651811522300,7.995522216796875,-21.82077497345209,-1.4028336844168603,6.393371834576129
1761391651821588200,8.005588134765626,-29.820132390379904,1.9027485147893428,7.58723558242917
1761391651831654400,8.015654296875,-35.18962762593031,4.457090760280192,8.34260036098957
1761391651841720300,8.02572021484375,-36.4550076269865,5.682015124568343,7.86862851177752
1761391651851786500,8.035786376953125,-34.131778614675994,5.2376446328938,5.4801791315376756
1761391651861853400,8.045853515625,-29.55247280282974,3.5692791667357087,2.0922396977707742
1761391651871919400,8.05591943359375,-24.5592226172328,1.3577253995373844,-1.3024597316503523
1761391651881985500,8.065985595703125,-19.885638100755212,-0.66872124498263,-4.131400131782889
1761391651892051500,8.076051513671874,-16.06255514560342,-2.5245289987683295,-6.1596478343755
1761391651902117400,8.086117431640625,-13.142053483104705,-4.187478285096586,-7.470698868760466
1761391651912183300,8.096183349609374,-10.780354747146367,-5.331442860531807,-7.554208342096209
1761391651922249200,8.106249267578125,-8.874187948346137,-5.797014545667171,-6.572402706080675
1761391651932316400,8.11631640625,-7.34967244245708,-5.537054280447959,-4.956658530780673
1761391651942382300,8.12638232421875,-5.717067733249068,-4.952080555340648,-3.027123131352663
1761391651952448300,8.1364482421875,-4.005651937654614,-3.9014427906394005,-0.9492096267066895
1761391651962514400,8.146514404296875,-2.529527829968929,-2.203090182496607,0.9826748931307345
1761391651972580400,8.156580322265626,-1.2290922976225613,-0.26372049453556534,2.2034996400803326
1761391651982646500,8.166646484375,0.029397943919897078,1.4170456035122274,2.5097826805353165
1761391651992712200,8.176712158203125,0.911747180405259,2.252583696722984,1.6338472566150128
1761391652002778400,8.1867783203125,1.6641133616715669,2.469433719012141,-0.41015721989478915
1761391652012845300,8.19684521484375,3.2722342024862763,2.4620757574647665,-2.1151739986345173
1761391652022911200,8.2069111328125,5.362330166226625,1.976745771153271,-2.7636943132400513
1761391652032977400,8.216977294921875,6.995799383309483,1.2043364804200827,-3.2581703135594724
1761391652043043300,8.227043212890624,8.568891580840944,1.109325077600032,-4.0177421884208915
1761391652053109500,8.237109619140625,10.150776741158962,1.4310326278105376,-4.551829191377759
1761391652063175400,8.247175537109374,11.89433773355484,1.9297751995332537,-4.064762590532005
1761391652073242400,8.257242431640625,13.377543323934077,2.2222813513092694,-3.2958599927455183
1761391652083308500,8.26730859375,14.28439864064455,2.6324194646447894,-2.612175425778329
1761391652093374200,8.277374267578125,14.106501741605996,2.9219132828623056,-1.8757713682755828
1761391652103440400,8.2874404296875,12.918165232741831,2.8085429242700335,-1.3512987274907529
1761391652113506300,8.29750634765625,11.851620873856543,2.8822072954177855,-0.9524210630338639
1761391652123572200,8.307572265625,11.427850687140225,3.030200054579973,-0.5786125195123255
1761391652133638400,8.317638427734375,11.178339335221052,3.0603578769564628,-0.019542028076946733
1761391652143704300,8.327704345703125,10.9355371255517,3.0551304976969957,0.35031814314499493
1761391652153771500,8.337771484375,10.880989542806148,3.07658888078928,0.5171531846169382
1761391652163837400,8.34783740234375,11.003259831690787,2.915167900255322,0.6195315360084176
1761391652173903400,8.3579033203125,11.226951682698726,2.638376911744475,0.5610449333135038
1761391652183969300,8.36796923828125,11.50820491131544,2.532233581796288,0.6188716107949614
1761391652194035200,8.37803515625,11.607357359462975,2.5184397419825193,0.6727936820533126
1761391652204101400,8.388101318359375,11.362108341163395,2.360658725386113,0.7413046159606427
1761391652214167300,8.398167236328124,10.998857212817668,2.215036787008494,0.8637333833426236
1761391652224234200,8.408234130859375,10.630394487303494,2.1188654004983603,0.9337984878893941
1761391652234300400,8.418300537109374,10.388637402772902,1.9946568370275197,0.8695026143938303
1761391652244366300,8.428366455078125,10.229915159803628,1.8749597596317529,0.7936580496627837
1761391652254432500,8.4384326171875,10.040728804987669,1.6486042423725127,0.7466166778288781
1761391652264498400,8.44849853515625,9.86769278998375,1.3847092680528759,0.6398461558930576
1761391652274564400,8.458564453125,9.802877495723962,1.216735504874587,0.6279018894687295
1761391652284630300,8.46863037109375,9.560077624142169,1.2189878138460217,0.8036807003747671
1761391652294696400,8.478696533203125,9.17396350660324,1.260349459543079,1.0157342091023922
1761391652304763400,8.488763427734375,8.702951091718672,1.2278270999923349,1.0841346683725714
1761391652314829300,8.498829345703125,8.004778857454657,1.1738980144713074,1.1002242179080843
1761391652324895500,8.5088955078125,7.056014490297437,1.2123324476100503,0.9950655150830745
1761391652334961400,8.51896142578125,6.024055122581124,1.3545616748094558,0.7141375728979706
1761391652345027300,8.52902734375,5.042325474411249,1.4457196170717477,0.4004345385100692
1761391652355093500,8.539093505859375,3.989346699541807,1.4906965306565165,0.08230813472196459
1761391652365159200,8.5491591796875,2.856099625214934,1.3156716799229382,-0.023916114975325763
1761391652375226400,8.559226318359375,1.474744051504135,0.6529063476700335,0.2808592243304476
1761391652385292300,8.569292236328126,-0.46590427809059615,-0.5823739178724586,1.0347554281756282
1761391652395358200,8.579358154296875,-3.3248850116997954,-1.881510058058053,2.017111537680775
1761391652405424400,8.58942431640625,-8.443408175128697,-2.3529651021435853,3.3169892900139093
1761391652415490300,8.599490234375,-16.508408569312095,-0.5296733877656981,4.959727855223417
1761391652425556500,8.609556396484376,-26.880471269381044,2.8138699645116922,7.0252487651556725
1761391652435622400,8.619622314453125,-36.48434594967365,5.77750788116455,7.879681820711493
1761391652445689300,8.629689453125,-41.32921408452987,7.379150465875863,8.005728121003509
1761391652455754800,8.639754638671874,-41.77323561663627,5.855568441444635,6.842324393343925
1761391652465820700,8.649820556640625,-40.468171255445476,3.6359815899163483,3.567875437417626
1761391652475886800,8.659886962890624,-37.29296885569095,1.7165931982323526,-0.024784093448892236
1761391652485952800,8.669952880859375,-32.26856365337372,-0.6534918194077909,-2.8817037298098205
1761391652496019000,8.68001904296875,-26.727602428615093,-2.7525851824656127,-4.750630931279063
1761391652506084900,8.6900849609375,-21.439816338980197,-4.264565031908452,-5.717662192010879
1761391652516151000,8.700151123046876,-16.744361351478098,-5.103044439268112,-5.772295699474215
1761391652526218000,8.710218017578125,-12.617536272525786,-5.21327007009387,-5.173131536450982
1761391652536284000,8.720283935546876,-9.002170769658685,-4.757481235565245,-4.261831807552277
1761391652546349800,8.730349853515625,-5.735827378776669,-3.6380718401938674,-3.007891192138195
1761391652556415700,8.740415771484376,-2.8206992260098454,-2.5075997835382817,-1.6669003620415925
1761391652566482000,8.75048193359375,-0.6058668755322695,-1.4129421137161553,-1.10601602611728
1761391652576547800,8.7605478515625,1.369087628290057,-0.5905974102079868,-1.4346785830974578
1761391652586614000,8.770614013671874,3.228097539117932,-0.606253134903498,-2.5173408408299087
1761391652596681000,8.780680908203125,5.04310639565587,-0.7668497569099069,-3.8577082783311605
1761391652606747000,8.790746826171874,7.209644963085651,-0.7928715754602104,-5.032269359821081
1761391652616813000,8.80081298828125,9.242572932448983,-0.5719081265028566,-5.336577300810814
1761391652626879000,8.81087890625,10.933879421472549,-0.20123415467999875,-4.706250814543664
1761391652636945000,8.82094482421875,12.18481237950325,-0.010449059430509805,-3.7674174742922184
1761391652647010800,8.8310107421875,12.758081053769589,0.4246890551269054,-2.5434739377349613
1761391652657076700,8.84107666015625,12.697807494592666,0.9558190349090844,-1.0888462801296264
1761391652667144000,8.85114404296875,12.4652133752048,1.160806916099414,-0.12663944387957454
1761391652677209900,8.8612099609375,12.117049925875664,1.1380240064051002,0.34281792358271773
1761391652687275800,8.87127587890625,11.559462804865836,1.1129365460954606,0.7240218380525708
1761391652697342000,8.881342041015625,10.969439395153522,1.241742666489631,0.5869602227494121
1761391652707408000,8.891407958984376,10.658464397490024,1.8348130426824092,0.3531916527546942
1761391652717473800,8.901473876953125,11.065710150384902,2.133857217925042,0.9307857890047132
1761391652727539700,8.911539794921875,11.548449243420361,1.7608602099820971,1.3398615338057278
1761391652737606000,8.92160595703125,11.612224088716506,1.2832111335620284,1.0379065856829286
1761391652747672800,8.9316728515625,11.511447838759421,0.9528365850321948,0.3187966311998665
1761391652757738800,8.94173876953125,11.386945845299959,0.7471588218815625,-0.14905373945720493
1761391652767805000,8.951804931640625,11.143292571759224,0.7400027395818382,-0.2750824310272932
1761391652777870800,8.961870849609374,10.74513847233653,0.7226451428718864,-0.09478497365303337
1761391652787937000,8.97193701171875,10.285649321985245,0.5890481349393725,0.09556183977704495
1761391652798003000,8.9820029296875,9.644701780721544,0.5693235899023711,0.22965921671343967
1761391652808068900,8.99206884765625,8.8897023283422,0.6101313280437142,0.36931093984134494
1761391652818136000,9.002135986328126,7.93114371240139,0.750223762410134,0.164208638491109
1761391652828201700,9.01220166015625,6.875626358965039,1.2498290884420276,0.10435746944472193
1761391652838268000,9.022267822265626,5.845375548732281,1.5832935658112168,0.5625556301373988
1761391652848333800,9.032333740234375,5.379492897951603,1.3768433569833636,0.9149301943555473
1761391652858399700,9.042399658203125,5.359867575505375,1.0942492351517081,1.1513448949448764
1761391652868466000,9.0524658203125,5.430215369451045,0.9635894497148692,1.2243031636498867
1761391652878531800,9.06253173828125,5.420608167672157,0.9679653997767717,1.0383679195843636
1761391652888599000,9.07259912109375,5.5176575060606,0.9618141106054187,0.9873604205984622
1761391652898665000,9.0826650390625,5.339261425328254,0.8993160803120582,1.209274521344155
1761391652908730600,9.092730712890624,4.918686819782853,1.0040167371712625,1.4663644918240606
1761391652918796800,9.102796875,3.578744621956348,1.196698825148493,1.5433809498786926
1761391652928862700,9.11286279296875,0.9913041167229414,1.269573068831861,1.2586843028098345
1761391652938929000,9.122928955078125,-1.416626793578267,1.213120748443529,0.5065909471355379
1761391652948994800,9.132994873046876,-3.4267975722104307,0.6353178648136556,-0.4350892339143902
1761391652959061000,9.14306103515625,-5.41709577563703,0.16717114155851304,-0.993938995271176
1761391652969128000,9.1531279296875,-8.205600120484828,0.059223282939009365,-1.2499544683873653
1761391652979193900,9.16319384765625,-10.856589261043071,0.47571127675790337,-1.5140291831880808
1761391652989260000,9.173260009765626,-11.964898877990246,0.8456177348069847,-1.6472072350561617
1761391652999325700,9.18332568359375,-12.872038272339104,0.5384519201681017,-2.0707780998080967
1761391653009391900,9.193391845703125,-14.258060084295272,0.4756258269641548,-3.290847425280511
1761391653019457800,9.203457763671874,-16.248740565037725,0.7096668572247028,-4.497847425821424
1761391653029524000,9.21352392578125,-17.391840924859046,0.6053133333027363,-4.517850349408388
1761391653039591000,9.2235908203125,-17.763858712506295,0.47677989237010476,-3.570372807191312
1761391653049656800,9.23365673828125,-16.559133378899098,0.6932838777005672,-2.827537547597289
1761391653059723000,9.243722900390624,-13.693444672083855,0.7486530059620737,-1.981248051008582
1761391653069789000,9.253788818359375,-10.82770218925476,0.20749306894429026,-1.1576418031319975
1761391653079854800,9.263854736328126,-8.70248931942582,-0.3683209424233064,-0.9653895579393953
1761391653089920800,9.273920654296875,-7.0316235608845945,-0.8081533157441765,-0.948506227677688
1761391653099986700,9.283986572265626,-5.604576495578884,-1.2253766381002962,-0.9293933847982436
1761391653110054000,9.294053955078125,-3.8858512537539003,-1.6260741383954882,-1.2717140263833104
1761391653120119800,9.304119873046876,-2.0928736117601394,-1.9559312389224766,-1.713399955148995
1761391653130185700,9.314185791015625,-0.8842997860312461,-1.9573356988929211,-1.9127832943305372
1761391653140252000,9.324251953125,0.024579145461320874,-1.595589276021719,-1.8733625535681844
1761391653150317800,9.33431787109375,0.552334607309103,-1.2074318891521543,-1.5730014505080878
1761391653160384000,9.344384033203125,0.8892723137468099,-0.8583579739145935,-1.262052464068681
1761391653170450000,9.354449951171874,1.1093173326849937,-0.5218386755520478,-1.0544790233645587
1761391653180516900,9.364516845703125,1.2366232776492834,-0.31279059571810064,-0.9187553786668926
1761391653190582800,9.374582763671874,1.658210275107622,-0.2382975551938638,-0.6229962895095348
1761391653200648700,9.384648681640625,2.414125673288107,-0.3244301435748115,-0.2757847340777516
1761391653210715000,9.39471484375,3.1272225049614906,-0.3677370050555095,0.007245806409791111
1761391653220780800,9.40478076171875,3.63898077173233,-0.352035760717839,0.11411058250032365
1761391653230847000,9.414846923828126,3.9108080003559587,-0.33195082140322774,0.27022300829738377
1761391653240913000,9.424912841796875,3.8655075539052484,-0.16470712606515733,0.48419710982404646
1761391653250979800,9.434979736328126,3.852266964060068,0.14339516570623964,0.7346168087597936
1761391653261046000,9.4450458984375,3.935039355292916,0.16515055898372083,0.9800393569953739
1761391653271112000,9.45511181640625,3.920117680492997,0.042262540059536696,1.15019828219302
1761391653281177900,9.465177734375,3.9899166083842514,0.08808847168907523,1.190166281574592
1761391653291243800,9.475243896484375,4.427950882774591,0.16102767036743462,1.3115607374727725
1761391653301309700,9.485309814453124,4.821767245253921,-0.062490285378322,1.5374617889627813
1761391653311376000,9.4953759765625,4.800909750664234,-0.28972360838539896,1.5419558855116366
1761391653321441800,9.50544189453125,4.176295504564046,-0.23609321355000137,1.3963207953915
1761391653331509000,9.515509033203125,3.3641923552155495,0.034327436211332676,1.3918280140168964
1761391653341575000,9.525574951171874,2.9162112718284128,0.37282501237690446,1.6374487882383166
1761391653351640800,9.535640869140625,2.667372120082378,0.3790345345415175,1.9144279927976429
1761391653361707000,9.54570703125,2.4187866508364677,0.10798815409727394,1.968631438280642
1761391653371774000,9.55577392578125,1.9444635039687155,0.011033215994015336,1.504005071171373
1761391653381840000,9.56583984375,2.1831156082212924,0.17502068601511417,0.651242286915332
1761391653391905800,9.57590576171875,3.23414441806674,-0.053801513618603344,0.11669131970852613
1761391653401971700,9.5859716796875,3.658274670267105,-0.7697058769933879,-0.26173282784968616
1761391653412038000,9.596037841796875,2.6276994503855704,-0.9117508336670697,-0.7909405343323945
1761391653422104800,9.606104736328126,0.7800707652717829,-0.4055563385032117,-3.355491162365675
1761391653432170800,9.616170654296875,-2.203689025172591,-0.8675457812376319,-2.168870371378213
1761391653442237000,9.62623681640625,-3.860463129997253,0.20078809141293166,-2.246756013482809
1761391653452303400,9.636303466796875,-6.260605870640277,0.6149591865915804,-3.8052602982133625
1761391653462369500,9.64636962890625,-4.246931467801332,0.9712169489186256,-1.346790602416545
1761391653472435500,9.656435546875,-3.2207302252203225,1.1284875317748635,-0.3572925122022629
1761391653482501600,9.666501708984375,-1.9947896696269511,1.7819652495920657,0.5802221466660499
1761391653492568600,9.676568603515625,-0.8244166874766349,1.8222772401057183,1.3915401369862257
1761391653502634500,9.686634521484375,-0.2471756024479866,1.412240249057114,1.643004376538843
1761391653512700700,9.69670068359375,0.2581359724014997,1.061780651614815,1.576686276500672
1761391653522766600,9.7067666015625,0.7089093168556689,0.6384996366549283,1.2172019533425569
1761391653532832500,9.71683251953125,0.858048323443532,0.17724424381610004,0.7912069301836192
1761391653542898400,9.7268984375,0.5808125137746334,0.20307386426255106,0.3338964390456676
1761391653552964400,9.73696435546875,0.3059159607082605,0.5825528181033208,0.23543752612024543
1761391653563031600,9.747031494140625,0.38115152669548985,0.69260970476605,0.7315048872843384
1761391653573097500,9.757097412109376,0.74874389911592,0.6549138150349259,0.7651775859139859
1761391653583163400,9.767163330078125,1.5008353550940752,0.20389920917078852,-0.20188304704278706
1761391653593229600,9.7772294921875,1.984258338740468,-1.1059401844020933,-0.9758496502205729
1761391653603295500,9.78729541015625,1.5543436579197645,-1.5892195948593317,-2.0324033609673378
1761391653613361700,9.797361572265626,1.1659744549304247,-1.6158479279354214,-2.9364485886931417
1761391653623427300,9.80742724609375,0.6664198361724615,-1.4728025620475411,-2.659343127405643
1761391653633494300,9.817494384765626,-0.14791151061952112,-0.9102493430629373,-1.49675583069548
1761391653643560400,9.827560546875,-0.4587999990433454,-0.3550978151695803,-0.4581754374042153
1761391653653626400,9.83762646484375,-0.2500374216198921,0.007222608197294175,0.29133418538719413
1761391653663692500,9.847692626953124,-0.29949557227194307,0.09361340912301093,0.5585967364437878
1761391653673758500,9.857758544921875,-0.5288268904715776,-0.013053067916445433,0.5874937451042235
1761391653683824600,9.86782470703125,-0.6159709209173917,-0.1367562756810337,0.7032887004949152
1761391653693890600,9.877890625,-0.640709640854597,-0.24129173204116522,0.659244976107031
1761391653703957500,9.88795751953125,-0.5698205796390772,-0.29665158101767297,0.40305940712094307
1761391653714023700,9.898023681640625,-0.32351533028483387,-0.3776650362865999,0.13022007884532213
1761391653724089300,9.90808935546875,0.07989712805747985,-0.487303259145841,-0.1325353700503707
1761391653734155500,9.918155517578125,0.3133838123708963,-0.6104347679696976,-0.21521438391134143
1761391653744221400,9.928221435546876,0.30678982093334195,-0.6337908013768494,-0.2089838189586997
1761391653754287400,9.938287353515625,0.3721177408903837,-0.6350674702491611,-0.21249942586421966
1761391653764353500,9.948353515625,0.35215690287947654,-0.6029276802752167,-0.1630190633803606
1761391653774419500,9.95841943359375,0.09031623074114323,-0.5186276410836727,-0.23820742922499774
1761391653784486700,9.968486572265626,-0.239097509932518,-0.3784725167445838,-0.2583504919350147
1761391653794552600,9.978552490234375,-0.7411866156041622,-0.2010981802754104,-0.1669452969133854
1761391653804618500,9.988618408203125,-1.0733037700176238,-0.03216170954480767,-0.045926615525037046
1761391653814684400,9.998684326171874,-1.5145605135858058,-0.11899272851869463,0.11749489117637275
1761391653824750300,10.008750244140625,-1.1997820319861172,0.6263051217965782,-0.45647783970609307
1761391653834816500,10.01881640625,-0.6117968501031399,0.46665414660982785,-0.4625760104507208
1761391653844882400,10.02888232421875,-0.06179740774333477,-0.14955810878276823,-0.3284643309943378
1761391653854949400,10.038949462890624,0.7023620871692895,-0.17080876740850506,-0.23351284166797995
1761391653865015600,10.049015625,1.035070777735114,-0.09532039570398629,-0.23041560630500316
1761391653875081500,10.05908154296875,0.7271452307701111,-0.21144144124388695,-0.4606875663556158
