time,seconds_elapsed,z,y,x
1761391643899540000,0.0835400390625,-0.03882965072989464,-0.10421651601791382,-0.0012877662666141987
1761391643909606000,0.09360595703125,-0.05097631737589836,-0.09186609089374542,0.045522961765527725
1761391643919673000,0.103673095703125,-0.061766915023326874,-0.08565320074558258,0.061886221170425415
1761391643929739000,0.113739013671875,-0.06778469681739807,-0.07195422053337097,0.05565137043595314
1761391643939805000,0.123804931640625,-0.07263937592506409,-0.05703253298997879,0.03433516249060631
1761391643949871000,0.13387109375,-0.07296542078256607,-0.03801855817437172,-0.00010074861347675323
1761391643959936800,0.143936767578125,-0.07187086343765259,-0.02827484905719757,-0.028322799131274223
1761391643970003000,0.1540029296875,-0.07279496639966965,-0.02507616952061653,-0.032235682010650635
1761391643980068900,0.16406884765625,-0.0765066146850586,-0.035525351762771606,-0.02125680074095726
1761391643990135000,0.174135009765625,-0.08224305510520935,-0.060634076595306396,-0.014709094539284706
1761391644000202000,0.184201904296875,-0.0849195346236229,-0.10096871852874756,0.012333441525697708
1761391644010268000,0.194267822265625,-0.0867214947938919,-0.12080657482147217,0.030829548835754395
1761391644020334000,0.204333984375,-0.08996256440877914,-0.1173444613814354,0.04790680110454559
1761391644030400000,0.21439990234375,-0.09646892547607422,-0.11898335069417953,0.04632656276226044
1761391644040466000,0.2244658203125,-0.10342749953269958,-0.14476008713245392,0.029848255217075348
1761391644050531800,0.23453173828125,-0.10455042123794556,-0.1431887000799179,0.0201022420078516
1761391644060598000,0.244597900390625,-0.1168355792760849,-0.1274520754814148,0.0047216895036399364
1761391644070665000,0.2546650390625,-0.11899178475141525,-0.12494344264268875,-0.016406355425715446
1761391644080731000,0.26473095703125,-0.11290405690670013,-0.13918869197368622,-0.04550405591726303
1761391644090797000,0.274797119140625,-0.10354144871234894,-0.16120290756225586,-0.08718918263912201
1761391644100863000,0.284863037109375,-0.09619379043579102,-0.18864677846431732,-0.13610771298408508
1761391644110929000,0.294928955078125,-0.09530670940876007,-0.20800349116325378,-0.18968641757965088
1761391644120995000,0.3049951171875,-0.08787036687135696,-0.19565920531749725,-0.2365330159664154
1761391644131060700,0.315060791015625,-0.06624510139226913,-0.18292704224586487,-0.2674112021923065
1761391644141128000,0.3251279296875,-0.04637312889099121,-0.15264901518821716,-0.24955418705940247
1761391644151193900,0.33519384765625,-0.03210379183292389,-0.09270542860031128,-0.18166247010231018
1761391644161259800,0.345259765625,-0.022278059273958206,-0.0576196126639843,-0.07069973647594452
1761391644171326000,0.355325927734375,-0.016980040818452835,-0.08192281424999237,0.05118153989315033
1761391644181392000,0.365391845703125,-0.015375218354165554,-0.13379427790641785,0.14418524503707886
1761391644191458000,0.3754580078125,0.01141409669071436,-0.16624735295772552,0.20039518177509308
1761391644201524000,0.38552392578125,0.054081398993730545,-0.1639098972082138,0.2312108874320984
1761391644211590100,0.395590087890625,0.08345776051282883,-0.1475258320569992,0.24116210639476776
1761391644221657000,0.405656982421875,0.09989798069000244,-0.15632252395153046,0.22378844022750854
1761391644231722800,0.41572265625,0.11332149803638458,-0.18731556832790375,0.18775661289691925
1761391644241789000,0.425788818359375,0.11993572115898132,-0.18588198721408844,0.16046853363513947
1761391644251854800,0.435854736328125,0.11624385416507721,-0.18095675110816956,0.1313536912202835
1761391644261921000,0.445921142578125,0.09421445429325104,-0.15946024656295776,0.11569695174694061
1761391644271987000,0.455987060546875,0.06968403607606888,-0.1184719055891037,0.12656307220458984
1761391644282053000,0.46605322265625,0.05603453516960144,-0.07925260066986084,0.14755836129188538
1761391644292120000,0.4761201171875,0.03509863466024399,-0.043297506868839264,0.17056840658187866
1761391644302186000,0.48618603515625,0.03306291624903679,-0.029650405049324036,0.2062867283821106
1761391644312252200,0.496252197265625,0.02732611820101738,-0.04626401513814926,0.23755574226379395
1761391644322317800,0.50631787109375,0.04515358433127403,-0.0834803655743599,0.26187360286712646
1761391644332383700,0.5163837890625,0.0657268539071083,-0.07110925763845444,0.2751224637031555
1761391644342450000,0.526449951171875,0.06826724112033844,-0.04481799900531769,0.24936090409755707
1761391644352515800,0.536515869140625,0.052660927176475525,-0.04458284378051758,0.19456252455711365
1761391644362582000,0.54658203125,0.02030405029654503,-0.06492753326892853,0.13363365828990936
1761391644372649000,0.55664892578125,-0.021835781633853912,-0.077378049492836,0.08991807699203491
1761391644382715000,0.56671484375,-0.09384819120168686,-0.0534554049372673,0.09687238931655884
1761391644392781000,0.576781005859375,-0.199205681681633,-0.03549402952194214,0.09620419144630432
1761391644402847000,0.586846923828125,-0.3221627473831177,-0.05528610944747925,0.1254025548696518
1761391644412913000,0.596912841796875,-0.45356112718582153,-0.14045479893684387,0.16728487610816956
1761391644422978800,0.606978759765625,-0.5791518092155457,-0.23020492494106293,0.19837407767772675
1761391644433045000,0.617044921875,-0.6587042808532715,-0.2916341722011566,0.21222814917564392
1761391644443112000,0.62711181640625,-0.7418425679206848,-0.37612056732177734,0.20237472653388977
1761391644453177900,0.637177734375,-0.83790522813797,-0.5366985201835632,0.11844025552272797
1761391644463243800,0.647243896484375,-0.9008693099021912,-0.740254819393158,0.03095194511115551
1761391644473309700,0.657309814453125,-0.8432305455207825,-0.7437938451766968,-0.1912967413663864
1761391644483375900,0.6673759765625,-0.5109303593635559,-0.5007020831108093,-0.6102932095527649
1761391644493441800,0.67744189453125,-0.17809540033340454,-0.025303572416305542,-0.9519259333610535
1761391644503508000,0.687508056640625,0.038051024079322815,0.5827211737632751,-1.1338621377944946
1761391644513575000,0.697574951171875,0.22721949219703674,1.0594185590744019,-1.1164838075637817
1761391644523640800,0.707640869140625,0.36001747846603394,1.5534863471984863,-1.0201737880706787
1761391644533707000,0.71770703125,0.3360760509967804,1.9011194705963135,-0.9512076377868652
1761391644543773000,0.72777294921875,0.25384214520454407,1.9530729055404663,-0.9251142144203186
1761391644553838800,0.7378388671875,0.18013398349285126,1.8381742238998413,-0.9477261304855347
1761391644563904800,0.74790478515625,0.14582687616348267,1.4820427894592285,-1.0045031309127808
1761391644573970700,0.757970703125,0.135247141122818,0.9414975643157959,-1.0574291944503784
1761391644584038000,0.768037841796875,0.14519910514354706,0.4671027958393097,-1.0652554035186768
1761391644594103800,0.778103759765625,0.17768575251102448,0.17335720360279083,-0.9812088012695312
1761391644604169700,0.788169677734375,0.2151591032743454,0.012769122608006,-0.8055884838104248
1761391644614236000,0.79823583984375,0.23172691464424133,0.11392377316951752,-0.5970441102981567
1761391644624301800,0.8083017578125,0.2529677748680115,0.1617533415555954,-0.314430296421051
1761391644634367700,0.81836767578125,0.2822287380695343,0.13470050692558289,-0.001870197243988514
1761391644644433700,0.82843359375,0.28906747698783875,0.1281813532114029,0.25023022294044495
1761391644654499800,0.838499755859375,0.2656981647014618,0.10914994031190872,0.4176592528820038
1761391644664566800,0.84856689453125,0.23180995881557465,0.030946221202611923,0.49739938974380493
1761391644674632700,0.8586328125,0.17738167941570282,-0.07976973056793213,0.5175572037696838
1761391644684699000,0.868698974609375,0.11126738041639328,-0.20976927876472473,0.47859567403793335
1761391644694764800,0.878764892578125,0.04300237447023392,-0.22798238694667816,0.35810375213623047
1761391644704831000,0.8888310546875,-0.006005383096635342,-0.16525721549987793,0.17543168365955353
1761391644714897000,0.89889697265625,-0.09960663318634033,-0.25586071610450745,0.1537693738937378
1761391644724962800,0.908962890625,-0.15901510417461395,-0.2720538079738617,0.12452413141727448
1761391644735030000,0.919030029296875,-0.1862681359052658,-0.17996832728385925,0.08762003481388092
1761391644745095700,0.929095703125,-0.21991345286369324,-0.053823187947273254,0.07851042598485947
1761391644755161900,0.939161865234375,-0.2368755340576172,0.05005582422018051,0.06513891369104385
1761391644765227800,0.949227783203125,-0.2414894551038742,0.06188718229532242,0.04177819937467575
1761391644775294000,0.9592939453125,-0.3279406726360321,-0.054450683295726776,0.022516271099448204
1761391644785360000,0.96935986328125,-0.4761139154434204,-0.16616016626358032,0.027392521500587463
1761391644795425800,0.97942578125,-0.5826200246810913,-0.22113493084907532,0.07691822946071625
1761391644805492000,0.989491943359375,-0.6260554194450378,-0.21879693865776062,0.14955595135688782
1761391644815559000,0.999558837890625,-0.6049628257751465,-0.17652355134487152,0.23365652561187744
1761391644825624800,1.009624755859375,-0.5551340579986572,-0.12200519442558289,0.3108668625354767
1761391644835690800,1.019690673828125,-0.4746120870113373,-0.02384996972978115,0.41075634956359863
1761391644845756700,1.029756591796875,-0.37692174315452576,0.12713341414928436,0.5298907160758972
1761391644855822800,1.03982275390625,-0.29868170619010925,0.16899141669273376,0.5931533575057983
1761391644865888800,1.049888671875,-0.2683008909225464,0.09036239236593246,0.6001617312431335
1761391644875955000,1.059954833984375,-0.26554885506629944,-0.24287742376327515,0.4658825397491455
1761391644886022000,1.07002197265625,-0.30773600935935974,-0.5204973220825195,0.32525724172592163
1761391644896087800,1.080087890625,-0.3566715717315674,-0.5779123902320862,0.20430313050746918
1761391644906154000,1.090154052734375,-0.40002936124801636,-0.5304798483848572,0.12051595002412796
1761391644916219600,1.1002197265625,-0.43393152952194214,-0.4007510542869568,0.08465010672807693
1761391644926285800,1.110285888671875,-0.4722751975059509,-0.2723480761051178,0.07848009467124939
1761391644936351700,1.120351806640625,-0.5103137493133545,-0.2043008804321289,0.08668879419565201
1761391644946418000,1.13041796875,-0.5317623019218445,-0.1396545022726059,0.1170903742313385
1761391644956484900,1.14048486328125,-0.5467904210090637,-0.15476523339748383,0.11834555864334106
1761391644966550800,1.15055078125,-0.5387862920761108,-0.3091620206832886,0.09809461981058121
1761391644976617000,1.160616943359375,-0.524878978729248,-0.5169223546981812,0.06408578902482986
1761391644986683000,1.170682861328125,-0.5054938197135925,-0.7011209726333618,0.015790428966283798
1761391644996748800,1.180748779296875,-0.46753212809562683,-0.8950074315071106,-0.02147507667541504
1761391645006814700,1.190814697265625,-0.41602152585983276,-1.0347813367843628,-0.017647847533226013
1761391645016880600,1.200880615234375,-0.37691935896873474,-1.057978630065918,0.023004023358225822
1761391645026946800,1.21094677734375,-0.37060821056365967,-1.0198770761489868,0.07578308880329132
1761391645037013800,1.221013671875,-0.38045167922973633,-0.9557223320007324,0.10192906111478806
1761391645047079700,1.23107958984375,-0.39700987935066223,-0.8651929497718811,0.11853520572185516
1761391645057145900,1.241145751953125,-0.3962828516960144,-0.793647825717926,0.12814591825008392
1761391645067211800,1.251211669921875,-0.38604408502578735,-0.7186840772628784,0.13965529203414917
1761391645077278000,1.26127783203125,-0.3768109381198883,-0.6586806774139404,0.13870090246200562
1761391645087343900,1.27134375,-0.37601467967033386,-0.6551128029823303,0.11098245531320572
1761391645097409800,1.281409912109375,-0.3687513470649719,-0.6809005737304688,0.06641001999378204
1761391645107476700,1.291476806640625,-0.34296876192092896,-0.6936964988708496,0.04023035243153572
1761391645117542700,1.301542724609375,-0.31392961740493774,-0.6622868776321411,0.03445935994386673
1761391645127608800,1.31160888671875,-0.3403061032295227,-0.569485604763031,0.05327592417597771
1761391645137674800,1.3216748046875,-0.41823863983154297,-0.45426711440086365,0.07908405363559723
1761391645147741000,1.331740966796875,-0.4846043586730957,-0.3756910562515259,0.10209083557128906
1761391645157806800,1.341806884765625,-0.530247688293457,-0.3225587010383606,0.11352087557315826
1761391645167873000,1.351873046875,-0.5572201609611511,-0.2694188058376312,0.11482875794172287
1761391645177939000,1.36193896484375,-0.5696185827255249,-0.21282561123371124,0.12306666374206543
1761391645188006000,1.372005859375,-0.578723669052124,-0.18359315395355225,0.14976218342781067
1761391645198071800,1.38207177734375,-0.5880269408226013,-0.1456972360610962,0.21254651248455048
1761391645208137700,1.3921376953125,-0.5846689939498901,-0.11110702902078629,0.29641449451446533
1761391645218204000,1.402203857421875,-0.569040834903717,-0.09481477737426758,0.3679920434951782
1761391645228269800,1.412269775390625,-0.5408696532249451,-0.09485206007957458,0.40927502512931824
1761391645238335700,1.422335693359375,-0.49225887656211853,-0.1429813802242279,0.41689443588256836
1761391645248402000,1.43240185546875,-0.4277997314929962,-0.2256389856338501,0.39643070101737976
1761391645258468900,1.44246875,-0.3593525290489197,-0.29179784655570984,0.34431445598602295
1761391645268534800,1.45253466796875,-0.29813310503959656,-0.3310331404209137,0.26748624444007874
1761391645278601000,1.46260107421875,-0.2513917088508606,-0.3493860065937042,0.16655918955802917
1761391645288666600,1.47266650390625,-0.21986573934555054,-0.34717586636543274,0.03846326470375061
1761391645298732800,1.48273291015625,-0.19757337868213654,-0.3211118280887604,-0.11321122944355011
1761391645308798700,1.492798828125,-0.2457965612411499,-0.2742553651332855,-0.28986507654190063
1761391645318865000,1.502864990234375,-0.37156128883361816,-0.1858517825603485,-0.46306630969047546
1761391645328930800,1.512930908203125,-0.5143147110939026,-0.02340083196759224,-0.5965388417243958
1761391645338997800,1.522997802734375,-0.6328151822090149,0.1924600601196289,-0.6732103824615479
1761391645349064000,1.53306396484375,-0.7059605121612549,0.40483996272087097,-0.696792721748352
1761391645359129900,1.5431298828125,-0.7353138327598572,0.5320122241973877,-0.6901037693023682
1761391645369196000,1.553196044921875,-0.7304788827896118,0.6123771071434021,-0.6782063841819763
1761391645379261700,1.56326171875,-0.6993097066879272,0.7010918855667114,-0.669509768486023
1761391645389328000,1.573327880859375,-0.6466323733329773,0.7690011262893677,-0.6594600677490234
1761391645399393800,1.583393798828125,-0.5971106290817261,0.7808035016059875,-0.6307629346847534
1761391645409460700,1.593460693359375,-0.5637319087982178,0.7280593514442444,-0.5833722949028015
1761391645419527000,1.60352685546875,-0.49509528279304504,0.4465102553367615,-0.5693230032920837
1761391645429592800,1.6135927734375,-0.3951779901981354,0.04519050940871239,-0.5601452589035034
1761391645439659000,1.623658935546875,-0.3115644156932831,-0.18999086320400238,-0.5380630493164062
1761391645449725000,1.633724853515625,-0.27612999081611633,-0.2551616132259369,-0.49827489256858826
1761391645459790800,1.643790771484375,-0.3040248453617096,-0.2295856773853302,-0.49573439359664917
1761391645469857000,1.65385693359375,-0.3913339078426361,-0.12462889403104782,-0.5076019763946533
1761391645479923000,1.6639228515625,-0.4331092834472656,-0.06716464459896088,-0.4248519539833069
1761391645489990000,1.673989990234375,-0.46331191062927246,0.02679886296391487,-0.3368232846260071
1761391645500056000,1.68405615234375,-0.49689021706581116,0.11277894675731659,-0.2276402860879898
1761391645510122000,1.6941220703125,-0.5144972205162048,0.22803948819637299,-0.11812631040811539
1761391645520188000,1.70418798828125,-0.5112538933753967,0.3635345697402954,-0.02710949257016182
1761391645530253800,1.71425390625,-0.4904537796974182,0.48702272772789,0.04283417388796806
1761391645540320000,1.724320068359375,-0.45693501830101013,0.5615907907485962,0.07310862094163895
1761391645550386000,1.734385986328125,-0.42694491147994995,0.5488805770874023,0.05398260056972504
1761391645560452900,1.744452880859375,-0.39381521940231323,0.4271327555179596,-0.02554822526872158
1761391645570519000,1.75451904296875,-0.35004591941833496,0.19244809448719025,-0.16914533078670502
1761391645580585000,1.7645849609375,-0.27840036153793335,-0.15084244310855865,-0.339130163192749
1761391645590651100,1.774651123046875,-0.1794133186340332,-0.4965130090713501,-0.4721987247467041
1761391645600716800,1.784716796875,-0.09115899354219437,-0.7305592894554138,-0.5344728827476501
1761391645610783000,1.794782958984375,-0.017962543293833733,-0.8608185052871704,-0.5182459950447083
1761391645620849000,1.804848876953125,0.027271633967757225,-0.8937894105911255,-0.4583570659160614
1761391645630915800,1.814915771484375,0.011438341811299324,-0.823066771030426,-0.4359116852283478
1761391645640982000,1.82498193359375,-0.07753398269414902,-0.7422377467155457,-0.48981720209121704
1761391645651048000,1.8350478515625,-0.28658121824264526,-0.48355531692504883,-0.5015377998352051
1761391645661113900,1.84511376953125,-0.6125009655952454,-0.04199208319187164,-0.4373807907104492
1761391645671180000,1.855179931640625,-0.9513304233551025,0.38324815034866333,-0.3620586097240448
1761391645681246000,1.865245849609375,-1.2319227457046509,0.5926460027694702,-0.37773969769477844
1761391645691311900,1.875311767578125,-1.458752155303955,0.5759721994400024,-0.537479817867279
1761391645701377800,1.885377685546875,-1.609292984008789,0.29435864090919495,-0.7946122288703918
1761391645711444700,1.89544482421875,-1.6918262243270874,-0.18343855440616608,-0.9434581398963928
1761391645721511000,1.905510986328125,-1.7502037286758423,-0.5763675570487976,-0.8165274262428284
1761391645731576800,1.915576904296875,-1.7750459909439087,-0.6502998471260071,-0.4408339560031891
1761391645741643000,1.92564306640625,-1.676223635673523,-0.3724912703037262,0.029177170246839523
1761391645751709000,1.935708984375,-1.4781326055526733,0.10242119431495667,0.4310116767883301
1761391645761775000,1.945775146484375,-1.1770086288452148,0.45576655864715576,0.6441522836685181
1761391645771841000,1.955841064453125,-0.7959057092666626,0.30443376302719116,0.5560935139656067
1761391645781908000,1.965907958984375,-0.4034510850906372,-0.18553954362869263,0.24901722371578217
1761391645791974000,1.975973876953125,-0.09154989570379257,-0.47525471448898315,-0.09492708742618561
1761391645802039800,1.986039794921875,0.10826427489519119,-0.6078198552131653,-0.40816932916641235
1761391645812106000,1.99610595703125,0.14463159441947937,-0.778198778629303,-0.5937181711196899
1761391645822172000,2.006171875,0.11911976337432861,-0.7058767676353455,-0.5581944584846497
1761391645832238000,2.016238037109375,0.09747971594333649,-0.4371204674243927,-0.3573417365550995
1761391645842304000,2.026303955078125,0.07534538209438324,-0.05892070010304451,-0.13987421989440918
1761391645852370000,2.036369873046875,0.058043356984853745,0.2107725739479065,-0.05989363417029381
1761391645862437000,2.04643701171875,0.05228336900472641,0.22050635516643524,-0.18753427267074585
1761391645872503000,2.0565029296875,0.03321779891848564,-0.02084367536008358,-0.44024908542633057
1761391645882569000,2.06656884765625,-0.017379973083734512,-0.4588623642921448,-0.7077784538269043
1761391645892635000,2.076634765625,-0.09586092829704285,-1.005392074584961,-0.9414673447608948
1761391645902700800,2.08670068359375,-0.1798046976327896,-1.6568537950515747,-1.1411888599395752
1761391645912767000,2.09676708984375,-0.24869000911712646,-2.3526804447174072,-1.3230329751968384
1761391645922833000,2.1068330078125,-0.34457409381866455,-2.9588561058044434,-1.46766996383667
1761391645932899000,2.116899169921875,-0.413199245929718,-3.4947688579559326,-1.5447211265563965
1761391645942966000,2.126966064453125,-0.40989407896995544,-3.8064615726470947,-1.5405447483062744
1761391645953032000,2.137031982421875,-0.3173803985118866,-3.710111379623413,-1.4345160722732544
1761391645963098000,2.14709814453125,-0.1522841453552246,-3.3772664070129395,-1.3082448244094849
1761391645973163800,2.157163818359375,0.020212262868881226,-2.9319636821746826,-1.1727757453918457
1761391645983230000,2.16722998046875,0.17930424213409424,-2.426848888397217,-1.0391016006469727
1761391645993296000,2.1772958984375,0.3139086663722992,-1.833175778388977,-0.897083044052124
1761391646003362000,2.187362060546875,0.3737961947917938,-1.138214111328125,-0.7479681372642517
1761391646013429000,2.197428955078125,0.3452382981777191,-0.4452127516269684,-0.5627953410148621
1761391646023495000,2.207494873046875,0.29870033264160156,0.14474815130233765,-0.33871176838874817
1761391646033561000,2.21756103515625,0.2865014374256134,0.6635348200798035,-0.09119971841573715
1761391646043627000,2.227626953125,0.2905574440956116,1.1179412603378296,0.16655315458774567
1761391646053693200,2.237693115234375,0.28880932927131653,1.5258632898330688,0.4294827878475189
1761391646063758800,2.2477587890625,0.3010934889316559,1.8988158702850342,0.6783844232559204
1761391646073824800,2.25782470703125,0.33153635263442993,2.2190165519714355,0.9212610125541687
1761391646083891000,2.267890869140625,0.3547593653202057,2.4922776222229004,1.1364492177963257
1761391646093958000,2.2779580078125,0.36673933267593384,2.7549266815185547,1.3334693908691406
1761391646104023800,2.28802392578125,0.3626555800437927,2.9713003635406494,1.5115700960159302
1761391646114090000,2.298090087890625,0.3641136586666107,3.1758408546447754,1.691497564315796
1761391646124156000,2.308156005859375,0.3898182511329651,3.3866701126098633,1.86958909034729
1761391646134222000,2.31822216796875,0.4421248733997345,3.576352834701538,2.0287299156188965
1761391646144288000,2.3282880859375,0.5144891738891602,3.7425436973571777,2.138550281524658
1761391646154354000,2.33835400390625,0.5677191019058228,3.839378595352173,2.1896016597747803
1761391646164420900,2.3484208984375,0.5757858753204346,3.8377654552459717,2.1842715740203857
1761391646174486800,2.35848681640625,0.5598180890083313,3.755645990371704,2.123807907104492
1761391646184553000,2.368552978515625,0.5509735345840454,3.6439335346221924,2.034444808959961
1761391646194619000,2.378618896484375,0.5097898840904236,3.485214948654175,1.9144930839538574
1761391646204685000,2.38868505859375,0.4219069480895996,3.233292579650879,1.7539949417114258
1761391646214751000,2.3987509765625,0.254475861787796,2.834740400314331,1.5149227380752563
1761391646224817200,2.408817138671875,-0.046071842312812805,2.2655653953552246,1.1904255151748657
1761391646234882800,2.4188828125,-0.49243494868278503,1.616994857788086,0.82669597864151
1761391646244950000,2.428949951171875,-0.8540816903114319,0.678414523601532,0.5059259533882141
1761391646255016000,2.439015869140625,-0.8855738043785095,-0.8112570643424988,0.20285186171531677
1761391646265081900,2.449081787109375,-0.7754128575325012,-0.02685803733766079,-0.6262636184692383
1761391646275148000,2.45914794921875,-0.5460448861122131,-0.270160436630249,-1.151320219039917
1761391646285214000,2.4692138671875,-0.08374523371458054,0.797909677028656,-1.152226448059082
1761391646295279900,2.47927978515625,0.16691415011882782,0.9433707594871521,-1.1592128276824951
1761391646305346000,2.489345947265625,0.3042067587375641,0.8298010230064392,-1.1639279127120972
1761391646315413000,2.4994130859375,0.1135457381606102,0.8709511160850525,-1.0016605854034424
1761391646325479000,2.50947900390625,-0.14767272770404816,1.3476670980453491,-0.6832515001296997
1761391646335545000,2.519545166015625,-0.09444519132375717,2.2531070709228516,-0.4686853587627411
1761391646345610800,2.52961083984375,0.08958654850721359,3.3116893768310547,-0.6093809604644775
1761391646355677000,2.539677001953125,0.07196760922670364,3.3235416412353516,-1.2692652940750122
1761391646365742800,2.549742919921875,-0.15959958732128143,2.2821075916290283,-2.1865715980529785
1761391646375809000,2.55980908203125,-0.41977283358573914,0.6953805088996887,-2.9246115684509277
1761391646385875000,2.569875,-0.43447303771972656,-0.9959039092063904,-3.3590877056121826
1761391646395942000,2.57994189453125,-0.0025253556668758392,-2.818065881729126,-3.463672637939453
1761391646406008000,2.590008056640625,0.844353199005127,-4.372811317443848,-3.083258867263794
1761391646416074000,2.600073974609375,1.8264572620391846,-4.528709888458252,-2.1583080291748047
1761391646426140000,2.610139892578125,2.604041576385498,-3.8540031909942627,-1.0154531002044678
1761391646436205800,2.620205810546875,2.932352066040039,-2.866929531097412,-0.09543580561876297
1761391646446272000,2.63027197265625,2.5078468322753906,-2.596096992492676,0.2656337320804596
1761391646456338000,2.640337890625,1.3092296123504639,-2.6626882553100586,0.06573900580406189
1761391646466404900,2.65040478515625,0.03527763485908508,-2.431091070175171,-0.2502823770046234
1761391646476471000,2.660470947265625,-0.7036622166633606,-2.0254504680633545,-0.5198962688446045
1761391646486537000,2.670536865234375,-1.0551737546920776,-1.844482421875,-0.7770193815231323
1761391646496603100,2.68060302734375,-1.3028403520584106,-2.131403684616089,-1.1432242393493652
1761391646506669000,2.6906689453125,-1.432418942451477,-2.4539270401000977,-1.5715135335922241
1761391646516734700,2.700734619140625,-1.2776013612747192,-2.603705406188965,-1.8805222511291504
1761391646526801000,2.71080078125,-0.8346913456916809,-2.3983638286590576,-1.8922966718673706
1761391646536867800,2.720867919921875,-0.2935096323490143,-1.6432421207427979,-1.6318069696426392
1761391646546934000,2.73093408203125,0.0551842525601387,-0.8544208407402039,-1.4222326278686523
1761391646557000000,2.741,-0.05915723368525505,-0.1960166096687317,-1.4117895364761353
1761391646567065900,2.75106591796875,-0.33480212092399597,0.2879817485809326,-1.4259275197982788
1761391646577132000,2.761132080078125,-0.3599628806114197,0.10572246462106705,-1.3602384328842163
1761391646587198000,2.771197998046875,-0.19742262363433838,-0.3872358500957489,-1.1813677549362183
1761391646597264100,2.78126416015625,-0.12909017503261566,-0.905730664730072,-0.9194706678390503
1761391646607329800,2.791329833984375,-0.13169899582862854,-1.2944369316101074,-0.6519937515258789
1761391646617396700,2.801396728515625,-0.09903106838464737,-1.483891487121582,-0.4659016728401184
1761391646627463000,2.811462890625,-0.03172316402196884,-1.2942692041397095,-0.42172080278396606
1761391646637528800,2.82152880859375,0.05330198258161545,-0.7658002376556396,-0.5113665461540222
1761391646647595000,2.831594970703125,0.0916108563542366,-0.15303584933280945,-0.619606077671051
1761391646657661000,2.841660888671875,0.16275107860565186,0.49304965138435364,-0.6288554668426514
1761391646667727000,2.85172705078125,0.19180239737033844,1.0496902465820312,-0.48001033067703247
1761391646677793000,2.86179296875,0.25583329796791077,1.3347986936569214,-0.29726237058639526
1761391646687859000,2.87185888671875,0.20996475219726562,1.5392229557037354,0.01734793744981289
1761391646697926100,2.881926025390625,0.1972135305404663,1.4772461652755737,0.226325124502182
1761391646707991800,2.89199169921875,0.22018758952617645,1.2558718919754028,0.3881281614303589
1761391646718058000,2.90205810546875,0.3006795048713684,0.934619665145874,0.5037820935249329
1761391646728124000,2.9121240234375,0.45236581563949585,0.5637915730476379,0.6292513608932495
1761391646738189800,2.92218994140625,0.6619052290916443,0.23517751693725586,0.8200266361236572
1761391646748256000,2.932256103515625,0.8988195657730103,0.053606174886226654,0.965648889541626
1761391646758322000,2.942322021484375,1.1002205610275269,-0.025315267965197563,1.066957950592041
1761391646768388000,2.95238818359375,1.2787716388702393,-0.12369807064533234,1.1608017683029175
1761391646778455000,2.962455078125,1.4375413656234741,-0.20806781947612762,1.2354323863983154
1761391646788521000,2.97252099609375,1.5727766752243042,-0.25744304060935974,1.3076077699661255
1761391646798587000,2.9825869140625,1.6670273542404175,-0.2696312665939331,1.329889178276062
1761391646808652800,2.99265283203125,1.6922787427902222,-0.26502835750579834,1.3107428550720215
1761391646818719000,3.002718994140625,1.6359307765960693,-0.20915816724300385,1.256834864616394
1761391646828785000,3.012784912109375,1.529485821723938,-0.09334035962820053,1.1274951696395874
1761391646838851000,3.02285107421875,1.3784384727478027,0.09080684185028076,0.9187980890274048
1761391646848918000,3.03291796875,1.2548892498016357,0.23055002093315125,0.6313269734382629
1761391646858984000,3.04298388671875,1.213921308517456,0.31800955533981323,0.35767093300819397
1761391646869050000,3.053050048828125,1.2450486421585083,0.3611001670360565,0.1994689702987671
1761391646879116000,3.063115966796875,1.242622971534729,0.5783560872077942,0.10858087986707687
1761391646889182000,3.073181884765625,1.3013293743133545,1.0866246223449707,0.14726251363754272
1761391646899247900,3.083247802734375,1.4799007177352905,1.7516639232635498,0.31738629937171936
1761391646909313800,3.093313720703125,1.6732335090637207,2.443899154663086,0.42210114002227783
1761391646919380000,3.1033798828125,1.7063384056091309,2.9084692001342773,0.22031927108764648
1761391646929447000,3.113447021484375,1.4890763759613037,3.1521358489990234,-0.24014277756214142
1761391646939513000,3.12351318359375,1.1210582256317139,3.0728297233581543,-0.7289635539054871
1761391646949579000,3.1335791015625,0.789521336555481,2.590522050857544,-1.0368014574050903
1761391646959645000,3.14364501953125,0.4897269010543823,1.7966283559799194,-1.038818597793579
1761391646969710800,3.1537109375,0.3340452015399933,0.9331696033477783,-0.8005442023277283
1761391646979776800,3.16377685546875,0.47910410165786743,0.345925509929657,-0.4866262376308441
1761391646989843000,3.173843017578125,0.9507734775543213,0.18865013122558594,-0.12979602813720703
1761391646999910000,3.183909912109375,1.5324269533157349,0.26506632566452026,0.35190534591674805
1761391647009975800,3.193975830078125,2.0271732807159424,0.1570260226726532,0.8606396317481995
1761391647020042000,3.2040419921875,2.3549160957336426,-0.2550755441188812,1.2121046781539917
1761391647030108000,3.21410791015625,2.465230941772461,-0.9143041372299194,1.4399845600128174
1761391647040174000,3.224174072265625,2.147857904434204,-1.5057648420333862,1.5964444875717163
1761391647050240000,3.234239990234375,1.5057907104492188,-1.7230453491210938,1.4309909343719482
1761391647060306000,3.244305908203125,0.7685526609420776,-1.492432951927185,0.8280442953109741
1761391647070373000,3.254373046875,0.053856801241636276,-0.9876073002815247,0.06192833557724953
1761391647080438800,3.264438720703125,-0.6166126132011414,-0.5115057229995728,-0.5687654614448547
1761391647090505000,3.2745048828125,-1.1568892002105713,-0.2095581293106079,-0.8744409084320068
1761391647100571000,3.28457080078125,-1.5080761909484863,-0.0052034081891179085,-0.8523553013801575
1761391647110637000,3.294636962890625,-1.5602896213531494,0.12063680589199066,-0.675620973110199
1761391647120703000,3.304702880859375,-1.3911200761795044,0.15579372644424438,-0.3732190430164337
1761391647130769000,3.314768798828125,-1.0469493865966797,-0.04541772976517677,-0.044487640261650085
1761391647140835000,3.3248349609375,-0.7077654600143433,-0.17472751438617706,0.34161001443862915
1761391647150902000,3.334902099609375,-0.4835168123245239,-0.07870126515626907,0.6679626107215881
1761391647160968000,3.344968017578125,-0.3606787621974945,0.15195965766906738,0.8668707013130188
1761391647171033900,3.355033935546875,-0.28162238001823425,0.3460921347141266,0.9010878801345825
1761391647181099800,3.365099853515625,-0.26830896735191345,0.49354761838912964,0.7893512845039368
1761391647191166000,3.375166015625,-0.3152756094932556,0.6577271223068237,0.571799099445343
1761391647201232000,3.38523193359375,-0.4246806502342224,0.8067011833190918,0.2818849980831146
1761391647211298000,3.395298095703125,-0.5349812507629395,0.906643271446228,-0.0356515608727932
1761391647221364000,3.405364013671875,-0.5990744829177856,0.9545796513557434,-0.32576221227645874
1761391647231431000,3.415430908203125,-0.5979979634284973,0.8637836575508118,-0.4653490483760834
1761391647241497000,3.4254970703125,-0.5059100985527039,0.6299229264259338,-0.3989410102367401
1761391647251562800,3.435562744140625,-0.3137562870979309,0.281385213136673,-0.1663915067911148
1761391647261629000,3.44562890625,-0.09089711308479309,-0.07761899381875992,0.1724448800086975
1761391647271694800,3.45569482421875,0.09218578785657883,-0.40262776613235474,0.44258594512939453
1761391647281761000,3.465760986328125,0.2332363873720169,-0.6827009320259094,0.5888153314590454
1761391647291827000,3.475826904296875,0.293622761964798,-0.9029244184494019,0.6213550567626953
1761391647301894000,3.485893798828125,0.30392441153526306,-0.9564435482025146,0.5578032732009888
1761391647311960000,3.4959599609375,0.2966457009315491,-0.9304822683334351,0.4567733407020569
1761391647322026000,3.50602587890625,0.3025624752044678,-0.9775879979133606,0.3821161389350891
1761391647332092200,3.516092041015625,0.31690412759780884,-1.0106312036514282,0.32952579855918884
1761391647342157800,3.52615771484375,0.32558658719062805,-1.062725305557251,0.2808762192726135
1761391647352224000,3.53622412109375,0.3047839105129242,-1.1071527004241943,0.23174436390399933
1761391647362290000,3.5462900390625,0.24601274728775024,-1.1321501731872559,0.17465578019618988
1761391647372355800,3.55635595703125,0.16285166144371033,-1.1432381868362427,0.13385224342346191
1761391647382423000,3.566423095703125,0.09301798790693283,-1.134247064590454,0.10594498366117477
1761391647392489000,3.576489013671875,0.09886100888252258,-1.0884932279586792,0.10024360567331314
1761391647402555000,3.586554931640625,0.1533636599779129,-1.0921995639801025,0.09332924336194992
1761391647412621000,3.59662109375,0.1994425356388092,-1.192341685295105,0.08786890655755997
1761391647422687000,3.60668701171875,0.17372412979602814,-1.294686198234558,0.12324100732803345
1761391647432753000,3.6167529296875,0.05836481973528862,-1.2082219123840332,0.18839915096759796
1761391647442818800,3.62681884765625,-0.09998966753482819,-0.8625595569610596,0.18167786300182343
1761391647452886300,3.63688623046875,-0.22294467687606812,-0.3444080054759979,0.02002151869237423
1761391647462952400,3.646952392578125,-0.28136032819747925,0.15685294568538666,-0.23740069568157196
1761391647473018400,3.657018310546875,-0.27416330575942993,0.5400214195251465,-0.43895524740219116
1761391647483084500,3.66708447265625,-0.23251226544380188,0.8039699792861938,-0.5136369466781616
1761391647493150500,3.677150390625,-0.17853665351867676,1.0530085563659668,-0.5052012801170349
1761391647503216400,3.68721630859375,-0.018280405551195145,1.1618926525115967,-0.3152582347393036
1761391647513282600,3.697282470703125,0.10950984060764313,1.1928977966308594,0.10461628437042236
1761391647523348200,3.70734814453125,0.18020132184028625,1.4550037384033203,0.6093606948852539
1761391647533415700,3.717415771484375,0.11550486087799072,2.010442018508911,0.8752533793449402
1761391647543481300,3.7274814453125,-0.17516478896141052,2.5552022457122803,0.6816713809967041
1761391647553547300,3.73754736328125,-0.5630457997322083,2.7985475063323975,0.05911962315440178
1761391647563613400,3.747613525390625,-0.8126311302185059,2.7322607040405273,-0.5975850224494934
1761391647573679400,3.757679443359375,-0.9152913093566895,2.414379119873047,-0.9766836166381836
1761391647583745500,3.76774560546875,-0.923677384853363,1.83078134059906,-1.0183013677597046
1761391647593811500,3.7778115234375,-0.6504586338996887,1.3127985000610352,-0.8126286864280701
1761391647603878400,3.78787841796875,-0.0858386904001236,0.9059186577796936,-0.5525432825088501
1761391647613944600,3.797944580078125,0.6051763892173767,0.5317140817642212,-0.2370564043521881
1761391647624010500,3.808010498046875,1.306074857711792,0.0509682334959507,0.09864597767591476
1761391647634076400,3.818076416015625,2.010364055633545,-0.5418536067008972,0.5211522579193115
1761391647644142300,3.828142333984375,2.5738983154296875,-1.1568877696990967,0.9786431193351746
1761391647654208500,3.83820849609375,2.864342451095581,-1.4969617128372192,1.411635160446167
1761391647664274400,3.8482744140625,2.8354132175445557,-1.702604055404663,1.6112101078033447
1761391647674341400,3.85834130859375,2.501042127609253,-1.5686203241348267,1.5583604574203491
1761391647684407600,3.868407470703125,1.8713105916976929,-1.1930195093154907,1.2521443367004395
1761391647694473500,3.878473388671875,1.0720202922821045,-0.6402377486228943,0.8115937113761902
1761391647704539600,3.88853955078125,0.2071121633052826,-0.10361643135547638,0.2922709584236145
1761391647714605300,3.898605224609375,-0.5667418837547302,0.3795211911201477,-0.22309105098247528
1761391647724671500,3.90867138671875,-1.1358119249343872,0.8242997527122498,-0.6499680876731873
1761391647734737400,3.9187373046875,-1.4130464792251587,1.13483464717865,-0.9217991232872009
1761391647744803300,3.92880322265625,-1.3594324588775635,1.189017653465271,-0.9942251443862915
1761391647754870500,3.93887060546875,-1.059972882270813,0.9409852027893066,-0.8796424865722656
1761391647764936400,3.9489365234375,-0.6497688293457031,0.4701383113861084,-0.5459625124931335
1761391647775002400,3.95900244140625,-0.24974824488162994,0.03656649589538574,-0.043025389313697815
1761391647785068500,3.969068603515625,0.07244789600372314,-0.22042375802993774,0.4806298613548279
1761391647795134500,3.979134521484375,0.34614646434783936,-0.3721349835395813,0.811458170413971
1761391647805200400,3.989200439453125,0.5593889951705933,-0.3578718900680542,0.9137014746665955
1761391647815266300,3.999266357421875,0.6727905869483948,-0.2316541224718094,0.8638949990272522
1761391647825333200,4.009333251953125,0.707667350769043,-0.032268837094306946,0.7192773818969727
1761391647835399400,4.0193994140625,0.696871280670166,0.13589923083782196,0.5790505409240723
1761391647845465300,4.02946533203125,0.6679855585098267,0.2101185917854309,0.47807860374450684
1761391647855531500,4.039531494140625,0.633173406124115,0.18903198838233948,0.46184349060058594
1761391647865597400,4.049597412109375,0.6132193803787231,0.07689613103866577,0.5051491856575012
1761391647875663600,4.05966357421875,0.5870914459228516,-0.12007010728120804,0.5850884914398193
1761391647885729500,4.0697294921875,0.513029158115387,-0.3517129421234131,0.6580577492713928
1761391647895795500,4.07979541015625,0.40716826915740967,-0.45838624238967896,0.6230517625808716
1761391647905862400,4.0898623046875,0.3163536787033081,-0.4206966459751129,0.4958134591579437
1761391647915928300,4.09992822265625,0.23403498530387878,-0.2856147885322571,0.2911432683467865
1761391647925994500,4.109994384765625,0.17191489040851593,-0.08382388949394226,0.04610848054289818
1761391647936060400,4.120060302734375,0.15514710545539856,0.08430285006761551,-0.19844038784503937
1761391647946126300,4.130126220703125,0.15026846528053284,0.174252450466156,-0.40136685967445374
1761391647956192500,4.140192626953125,0.1427837610244751,0.18090660870075226,-0.535106360912323
1761391647966258400,4.150258544921875,0.12942908704280853,0.11672496795654297,-0.6047887802124023
1761391647976324600,4.16032470703125,0.1139814481139183,0.03395569324493408,-0.6087397336959839
1761391647986391600,4.1703916015625,0.10293571650981903,-0.06805270165205002,-0.5697449445724487
1761391647996457200,4.180457275390625,0.10169114917516708,-0.1475459337234497,-0.5279849767684937
1761391648006523400,4.1905234375,0.10889233648777008,-0.23421718180179596,-0.49813708662986755
1761391648016589300,4.20058935546875,0.159911647439003,-0.1954396814107895,-0.4533421993255615
1761391648026655500,4.210655517578125,0.20582188665866852,-0.192111536860466,-0.4697113335132599
1761391648036721400,4.220721435546875,0.2309868037700653,-0.23077291250228882,-0.5008449554443359
1761391648046787600,4.23078759765625,0.24126102030277252,-0.29340729117393494,-0.5305213928222656
1761391648056854500,4.2408544921875,0.228049173951149,-0.431501179933548,-0.5766811370849609
1761391648066920400,4.25092041015625,0.2197273224592209,-0.45271167159080505,-0.562036395072937
1761391648076986600,4.260986572265625,0.2064073383808136,-0.4232574701309204,-0.5475580096244812
1761391648087052300,4.27105224609375,0.16424895823001862,-0.4387272298336029,-0.5567235350608826
1761391648097118500,4.281118408203125,0.0950440913438797,-0.5313198566436768,-0.5941605567932129
1761391648107184400,4.291184326171875,0.08497095108032227,-0.37487083673477173,-0.3562859296798706
1761391648117250600,4.30125048828125,0.06565867364406586,-0.10553780943155289,-0.211978480219841
1761391648127316500,4.31131640625,-0.03271663188934326,0.37814897298812866,-0.10456494241952896
1761391648137383400,4.321383544921875,-0.09629351645708084,1.0759007930755615,-0.14043013751506805
1761391648147449600,4.33144970703125,-0.1422940343618393,1.6753644943237305,-0.5143936276435852
1761391648157515500,4.341515625,-0.2339688092470169,1.7576706409454346,-1.1232175827026367
1761391648167581400,4.35158154296875,-0.4278266727924347,1.1983897686004639,-1.6951875686645508
1761391648177647400,4.3616474609375,-0.5844200253486633,0.35169798135757446,-2.0689902305603027
1761391648187713300,4.37171337890625,-0.5006556510925293,-0.366668701171875,-2.178417921066284
1761391648197779500,4.381779541015625,-0.11639555543661118,-0.7785385251045227,-1.9212027788162231
1761391648207846400,4.391846435546875,0.5176951289176941,-0.7783321142196655,-1.3154606819152832
1761391648217912300,4.401912353515625,1.3425896167755127,-0.5503564476966858,-0.5038833618164062
1761391648227978500,4.411978515625,2.0654335021972656,-0.26738762855529785,0.3490176498889923
1761391648238044400,4.42204443359375,2.562774896621704,-0.02591412514448166,1.0096219778060913
1761391648248110600,4.432110595703125,2.7419357299804688,0.12373848259449005,1.2491499185562134
1761391648258176300,4.44217626953125,2.5878896713256836,0.20622164011001587,1.1650608777999878
1761391648268242400,4.452242431640625,2.145951986312866,0.1319306492805481,0.8560526967048645
1761391648278309400,4.462309326171875,1.4784061908721924,-0.15774565935134888,0.3936409652233124
1761391648288375300,4.472375244140625,0.7929727435112,-0.338476300239563,0.018548574298620224
1761391648298441500,4.48244140625,0.09110318124294281,-0.67349773645401,-0.34932661056518555
1761391648308507400,4.49250732421875,-0.5074412226676941,-0.9258931875228882,-0.6260913610458374
1761391648318573600,4.502573486328125,-0.8907313942909241,-0.9679543375968933,-0.8327574729919434
1761391648328639500,4.512639404296875,-1.0606530904769897,-0.8891884088516235,-1.017868161201477
1761391648338705700,4.52270556640625,-0.9347337484359741,-0.7704851627349854,-1.1548843383789062
1761391648348771300,4.532771240234375,-0.5719228386878967,-0.7824574112892151,-1.0987279415130615
1761391648358838500,4.542838623046875,-0.18758802115917206,-0.7751172780990601,-0.6774149537086487
1761391648368904400,4.552904541015625,0.02615516260266304,-0.44966351985931396,-0.02206161431968212
1761391648378970400,4.562970458984375,0.06370526552200317,-0.006646242458373308,0.5877935290336609
1761391648389036500,4.57303662109375,0.04004467651247978,0.33455023169517517,0.9142704010009766
1761391648399102500,4.5831025390625,0.011893300339579582,0.5415623188018799,1.1787484884262085
1761391648409168400,4.59316845703125,-0.05628255754709244,0.6243767738342285,1.351085901260376
1761391648419234600,4.603234619140625,-0.1464463323354721,0.5470231771469116,1.4683696031570435
1761391648429301500,4.613301513671875,-0.2856611907482147,0.3933507800102234,1.5283583402633667
1761391648439367400,4.623367431640625,-0.4407687485218048,0.2983367443084717,1.525897741317749
1761391648449433000,4.63343310546875,-0.5647433996200562,0.25502920150756836,1.4793390035629272
1761391648459499000,4.6434990234375,-0.6473526358604431,0.22352425754070282,1.361625075340271
1761391648469565000,4.65356494140625,-0.6926553845405579,0.17951925098896027,1.2199889421463013
1761391648479630800,4.663630859375,-0.6003102660179138,0.14027512073516846,1.0367599725723267
1761391648489697000,4.673697021484375,-0.42853134870529175,0.20425063371658325,0.7351799011230469
1761391648499763000,4.683762939453125,-0.23412463068962097,0.377558171749115,0.3805871605873108
1761391648509830000,4.693829833984375,-0.013536865822970867,0.5665866732597351,0.016392696648836136
1761391648519896000,4.70389599609375,0.1972263604402542,0.7218530774116516,-0.26158806681632996
1761391648529962000,4.7139619140625,0.3725387752056122,0.7683588266372681,-0.40973785519599915
1761391648540028200,4.724028076171875,0.5168569087982178,0.6580847501754761,-0.4106866717338562
1761391648550093800,4.73409375,0.637732744216919,0.4062133729457855,-0.3155931532382965
1761391648560160000,4.744159912109375,0.7190260887145996,0.0995778888463974,-0.19906076788902283
1761391648570226000,4.754225830078125,0.7701156735420227,-0.19530168175697327,-0.08487400412559509
1761391648580292900,4.76429296875,0.820111870765686,-0.4321160912513733,-0.026814399287104607
1761391648590359000,4.774359130859375,0.8748316168785095,-0.634458065032959,-0.04357793182134628
1761391648600425000,4.784425048828125,0.9266917109489441,-0.8034384250640869,-0.12568770349025726
1761391648610491100,4.7944912109375,0.98050856590271,-0.9334174394607544,-0.24588121473789215
1761391648620557000,4.80455712890625,1.0121372938156128,-1.022947072982788,-0.3659515380859375
1761391648630623000,4.814623046875,1.0315698385238647,-1.097304105758667,-0.4549706280231476
1761391648640689000,4.82468896484375,1.0419825315475464,-1.1194045543670654,-0.4839070737361908
1761391648650754800,4.8347548828125,1.0403838157653809,-1.0568006038665771,-0.45838040113449097
1761391648660822000,4.844822021484375,1.0103639364242554,-0.9535629749298096,-0.43157827854156494
1761391648670888000,4.854887939453125,0.9024898409843445,-0.8593355417251587,-0.4219866394996643
1761391648680953900,4.864953857421875,0.7467201352119446,-0.7786499857902527,-0.4380126893520355
1761391648691020000,4.87502001953125,0.5521900653839111,-0.7700445055961609,-0.4782634377479553
1761391648701086000,4.8850859375,0.3319509029388428,-0.8414522409439087,-0.5263463854789734
1761391648711152000,4.895152099609375,0.14783300459384918,-0.7387178540229797,-0.3698870539665222
1761391648721217800,4.9052177734375,0.048792675137519836,-0.39338773488998413,-0.11907722800970078
1761391648731285000,4.915284912109375,-0.10498064011335373,-0.10879860073328018,0.13765949010849
1761391648741351000,4.925350830078125,-0.3355679512023926,0.45118191838264465,0.39380723237991333
1761391648751416800,4.935416748046875,-0.6397994756698608,1.2503728866577148,0.29103875160217285
1761391648761483000,4.94548291015625,-0.9756157994270325,1.971379280090332,-0.42494118213653564
1761391648771549000,4.955548828125,-1.2209563255310059,2.394118309020996,-1.4209773540496826
1761391648781615000,4.965614990234375,-1.2796294689178467,2.4834036827087402,-2.1429903507232666
1761391648791681000,4.975680908203125,-1.116346836090088,2.1738641262054443,-2.330981731414795
1761391648801747200,4.985747314453125,-0.7968360185623169,1.5507808923721313,-2.0049943923950195
1761391648811814100,4.995814208984375,-0.31060782074928284,0.8337876200675964,-1.4816211462020874
1761391648821880000,5.005880126953125,0.4266190528869629,0.17680537700653076,-0.9326755404472351
1761391648831946000,5.015946044921875,1.360263466835022,-0.25154808163642883,-0.32985204458236694
1761391648842012000,5.026011962890625,2.2914228439331055,-0.5819877982139587,0.2723473310470581
1761391648852078000,5.036078125,2.978015661239624,-0.7833176851272583,0.7782254219055176
1761391648862144000,5.04614404296875,3.291538715362549,-1.013875961303711,1.1685400009155273
1761391648872210000,5.0562099609375,3.2413547039031982,-1.1400256156921387,1.402187705039978
1761391648882277000,5.066277099609375,2.8290627002716064,-1.0356703996658325,1.4344829320907593
1761391648892343000,5.076343017578125,2.084742307662964,-0.7186694741249084,1.1998270750045776
1761391648902409000,5.086408935546875,1.1266425848007202,-0.27071505784988403,0.7233607769012451
1761391648912475000,5.096474853515625,0.09384243935346603,0.19826333224773407,0.16518539190292358
1761391648922540800,5.106540771484375,-0.7952862977981567,0.6493189930915833,-0.31494396924972534
1761391648932607000,5.11660693359375,-1.4373574256896973,1.0009028911590576,-0.6474481225013733
1761391648942673000,5.1266728515625,-1.819565773010254,1.2073328495025635,-0.8896561861038208
1761391648952739800,5.13673974609375,-1.9453914165496826,1.2620009183883667,-1.0668704509735107
1761391648962806000,5.146805908203125,-1.872666358947754,1.1827276945114136,-1.1419329643249512
1761391648972872000,5.156871826171875,-1.6697337627410889,1.0319690704345703,-1.0893073081970215
1761391648982938000,5.166938232421875,-1.299587607383728,0.6835419535636902,-0.9116550087928772
1761391648993004000,5.177004150390625,-0.9719390273094177,0.43107858300209045,-0.6941365003585815
1761391649003070000,5.187070068359375,-0.7745344638824463,0.44784635305404663,-0.4121617078781128
1761391649013136000,5.197135986328125,-0.6652073860168457,0.5420154929161072,-0.06616595387458801
1761391649023202000,5.2072021484375,-0.5718482732772827,0.5623840689659119,0.24141277372837067
1761391649033269000,5.21726904296875,-0.5190468430519104,0.531360924243927,0.4843529760837555
1761391649043335000,5.2273349609375,-0.5847034454345703,0.3928135335445404,0.6746591925621033
1761391649053401000,5.237401123046875,-0.7718099355697632,0.12297005951404572,0.8596155047416687
1761391649063467000,5.247467041015625,-0.9722434282302856,0.07148468494415283,0.9207112193107605
1761391649073533200,5.257533203125,-1.147965431213379,-0.127761572599411,1.0401630401611328
1761391649083599000,5.26759912109375,-1.308734655380249,-0.30379778146743774,1.084957242012024
1761391649093664800,5.277664794921875,-1.3709485530853271,-0.41643697023391724,1.0768362283706665
1761391649103732000,5.28773193359375,-1.3379095792770386,-0.48553457856178284,1.0201812982559204
1761391649113798000,5.2977978515625,-1.2228310108184814,-0.49721625447273254,0.8926785588264465
1761391649123863800,5.30786376953125,-1.036026954650879,-0.44686493277549744,0.6878441572189331
1761391649133930000,5.317929931640625,-0.7912829518318176,-0.3191235065460205,0.4296184778213501
1761391649143996000,5.327995849609375,-0.5148558616638184,-0.18641743063926697,0.21007411181926727
1761391649154062000,5.33806201171875,-0.2724674344062805,-0.09466353803873062,0.09267719089984894
1761391649164128000,5.3481279296875,-0.07348675280809402,-0.0916852280497551,0.07815007120370865
1761391649174194200,5.358194091796875,0.0957946851849556,-0.1459577977657318,0.1356346607208252
1761391649184261000,5.36826123046875,0.25629666447639465,-0.2320723682641983,0.22696439921855927
1761391649194326800,5.378326904296875,0.3893465995788574,-0.31498828530311584,0.30506986379623413
1761391649204393000,5.38839306640625,0.47695392370224,-0.39036139845848083,0.33656182885169983
1761391649214459000,5.398458984375,0.5024850964546204,-0.49590617418289185,0.3490901589393616
1761391649224525000,5.408525146484375,0.5049675107002258,-0.5930096507072449,0.348174124956131
1761391649234591000,5.418591064453125,0.5148047208786011,-0.6706504225730896,0.3146713078022003
1761391649244657200,5.4286572265625,0.5218029618263245,-0.69101482629776,0.24805790185928345
1761391649254723000,5.43872314453125,0.523556113243103,-0.7098050117492676,0.12743882834911346
1761391649264790000,5.4487900390625,0.5241844058036804,-0.7731935977935791,-0.04163534566760063
1761391649274856200,5.458856201171875,0.5125269293785095,-0.8732932806015015,-0.21624471247196198
1761391649284921900,5.468921875,0.49269813299179077,-0.9813259243965149,-0.35281142592430115
1761391649294988000,5.478988037109375,0.4440741539001465,-1.1581779718399048,-0.4397476613521576
1761391649305054000,5.489053955078125,0.37376296520233154,-1.1271343231201172,-0.2850790023803711
1761391649315119900,5.499119873046875,0.3261413872241974,-1.0885344743728638,-0.12228263169527054
1761391649325186000,5.50918603515625,0.1787058711051941,-0.9138944149017334,0.15491914749145508
1761391649335253000,5.5192529296875,0.03650691360235214,-0.5145864486694336,0.50154709815979
1761391649345319000,5.52931884765625,-0.0866331160068512,0.16309909522533417,0.7332400679588318
1761391649355385000,5.539385009765625,-0.07484010607004166,1.0329210758209229,0.7644243836402893
1761391649365451000,5.549450927734375,0.042032890021800995,1.9223638772964478,0.48235058784484863
1761391649375517000,5.559516845703125,0.16178379952907562,2.3859474658966064,-0.04499100521206856
1761391649385582800,5.569582763671875,0.171617329120636,2.335655450820923,-0.6383166313171387
1761391649395649000,5.57964892578125,0.052017707377672195,1.8772296905517578,-1.0930538177490234
1761391649405716000,5.589716064453125,-0.10113722085952759,1.1115082502365112,-1.2790169715881348
1761391649415782000,5.599781982421875,-0.21058116853237152,0.11834307014942169,-1.281750202178955
1761391649425848000,5.60984814453125,-0.12684930860996246,-0.7394019365310669,-1.1711920499801636
1761391649435914000,5.6199140625,0.20231446623802185,-1.1483663320541382,-0.936702311038971
1761391649445980200,5.629980224609375,0.6469296216964722,-1.1045223474502563,-0.5153809785842896
1761391649456045800,5.6400458984375,1.1382734775543213,-0.8987217545509338,0.039811138063669205
1761391649466112000,5.650112060546875,1.6184018850326538,-0.6931366920471191,0.5669931173324585
1761391649476179000,5.660178955078125,1.9057167768478394,-0.5473049283027649,0.8984232544898987
1761391649486244900,5.670244873046875,1.9183670282363892,-0.4454960525035858,0.975608229637146
1761391649496311000,5.68031103515625,1.6835719347000122,-0.4577511250972748,0.8174889087677002
1761391649506377000,5.690376953125,1.2390350103378296,-0.6192516684532166,0.4661177694797516
1761391649516443100,5.700443115234375,0.674048900604248,-0.8359328508377075,0.0591135136783123
1761391649526509000,5.710509033203125,0.07705007493495941,-0.9416965246200562,-0.28298574686050415
1761391649536574700,5.72057470703125,-0.5064349174499512,-0.8486512303352356,-0.5522590279579163
1761391649546641000,5.730640869140625,-1.0113118886947632,-0.5436214804649353,-0.763149619102478
1761391649556707800,5.740707763671875,-1.3663815259933472,-0.08104689419269562,-0.9153050780296326
1761391649566774000,5.75077392578125,-1.5522992610931396,0.4211803078651428,-0.965831458568573
1761391649576840000,5.76083984375,-1.6158512830734253,0.9087076783180237,-0.8551392555236816
1761391649586905900,5.77090576171875,-1.5768860578536987,1.2773510217666626,-0.6101914048194885
1761391649596972000,5.780971923828125,-1.4797353744506836,1.4745333194732666,-0.2756890654563904
1761391649607038000,5.791037841796875,-1.3835880756378174,1.5340019464492798,0.09032250195741653
1761391649617104100,5.801104248046875,-1.294228196144104,1.4812031984329224,0.3974558115005493
1761391649627171000,5.811171142578125,-1.2217566967010498,1.351629376411438,0.6246744394302368
1761391649637236700,5.82123681640625,-1.1702293157577515,1.1711986064910889,0.7771433591842651
1761391649647303000,5.831302978515625,-1.1614004373550415,1.004607081413269,0.8584769368171692
1761391649657368800,5.841368896484375,-1.1607708930969238,0.8740350008010864,0.8689351677894592
1761391649667435000,5.85143505859375,-1.0914947986602783,0.8179507851600647,0.7808980345726013
1761391649677501000,5.8615009765625,-0.9186345934867859,0.8262401819229126,0.6402154564857483
1761391649687567000,5.871567138671875,-0.6640677452087402,0.845814049243927,0.4924009442329407
1761391649697633000,5.881633056640625,-0.36910027265548706,0.8263365030288696,0.38278546929359436
1761391649707700000,5.891699951171875,-0.10122343897819519,0.6655229926109314,0.3291097581386566
1761391649717766100,5.90176611328125,0.12283416092395782,0.40605437755584717,0.3445880711078644
1761391649727831800,5.911831787109375,0.31184056401252747,0.12389616668224335,0.40159285068511963
1761391649737898000,5.92189794921875,0.45047301054000854,-0.1667202264070511,0.4827428162097931
1761391649747964000,5.9319638671875,0.5630658268928528,-0.4312268793582916,0.5331791043281555
1761391649758029800,5.94202978515625,0.6305087804794312,-0.6028310656547546,0.5148559808731079
1761391649768096000,5.952095947265625,0.656965970993042,-0.6682689189910889,0.4182889759540558
1761391649778163000,5.962162841796875,0.6560948491096497,-0.5847543478012085,0.27323484420776367
1761391649788228900,5.972228759765625,0.6281108260154724,-0.43146514892578125,0.12861917912960052
1761391649798295000,5.982294921875,0.5973273515701294,-0.2691683769226074,-0.01019542571157217
1761391649808361000,5.99236083984375,0.5560829639434814,-0.15687242150306702,-0.12138357013463974
1761391649818427000,6.002427001953125,0.5015302300453186,-0.10329228639602661,-0.1869463473558426
1761391649828492800,6.012492919921875,0.44921788573265076,-0.07377686351537704,-0.21585078537464142
1761391649838559000,6.02255908203125,0.4047186076641083,-0.039847128093242645,-0.23213708400726318
1761391649848626000,6.0326259765625,0.3702853322029114,-0.012786773033440113,-0.24130627512931824
1761391649858691800,6.04269189453125,0.3404347598552704,-0.008219984360039234,-0.22261114418506622
1761391649868758000,6.052758056640625,0.31721627712249756,0.005097240209579468,-0.18782222270965576
1761391649878824000,6.062823974609375,0.29738932847976685,0.04685959964990616,-0.147324338555336
1761391649888890000,6.07289013671875,0.30298325419425964,0.08776487410068512,-0.11969088762998581
1761391649898956000,6.0829560546875,0.33318910002708435,0.15168286859989166,-0.13531672954559326
1761391649909022000,6.09302197265625,0.40463435649871826,0.1628839075565338,-0.15201088786125183
1761391649919089000,6.1030888671875,0.4884549677371979,0.1641470491886139,-0.21870949864387512
1761391649929154800,6.11315478515625,0.5443664193153381,0.1939244121313095,-0.3286726474761963
1761391649939221000,6.123220947265625,0.5895530581474304,0.2358849197626114,-0.39722880721092224
1761391649949287000,6.133286865234375,0.6464256048202515,0.27980172634124756,-0.38561755418777466
1761391649959353000,6.14335302734375,0.730607807636261,0.290305495262146,-0.40031182765960693
1761391649969419000,6.1534189453125,0.7266014814376831,0.24027755856513977,-0.5770047903060913
1761391649979485000,6.16348486328125,0.547210693359375,-0.07423056662082672,-1.0488938093185425
1761391649989550800,6.17355078125,0.3436487019062042,-0.5599384307861328,-1.7015330791473389
1761391649999618000,6.1836181640625,0.328155517578125,-0.9697480201721191,-2.145446300506592
1761391650009684000,6.19368408203125,0.560104250907898,-1.2862507104873657,-2.1181483268737793
1761391650019750000,6.20375,1.0293372869491577,-1.6815277338027954,-1.5957382917404175
1761391650029815800,6.21381591796875,1.7191435098648071,-2.0218594074249268,-0.6955872774124146
1761391650039882000,6.223882080078125,2.497252941131592,-1.8794041872024536,0.2209838181734085
1761391650049948000,6.233947998046875,3.2245399951934814,-1.4341332912445068,0.8379355669021606
1761391650060014000,6.24401416015625,3.716639518737793,-0.8555023074150085,1.2577928304672241
1761391650070081000,6.2540810546875,3.805542230606079,-0.46066731214523315,1.456060528755188
1761391650080147000,6.26414697265625,3.568432569503784,-0.2317420095205307,1.4889543056488037
1761391650090213000,6.274213134765625,3.1009926795959473,-0.10561373084783554,1.3643962144851685
1761391650100278800,6.28427880859375,2.481788158416748,-0.0202703345566988,1.1256544589996338
1761391650110345000,6.294344970703125,1.7674270868301392,0.07986947894096375,0.7739264965057373
1761391650120411000,6.304410888671875,0.9900551438331604,0.17435283958911896,0.3233875334262848
1761391650130477000,6.31447705078125,0.2045775204896927,0.270695298910141,-0.14545126259326935
1761391650140544000,6.3245439453125,-0.5084314346313477,0.31478366255760193,-0.5785097479820251
1761391650150610000,6.33460986328125,-1.0719932317733765,0.24160009622573853,-0.8993885517120361
1761391650160676000,6.344676025390625,-1.4555944204330444,0.0878312885761261,-1.054335355758667
1761391650170742000,6.354741943359375,-1.6412230730056763,-0.10062091052532196,-1.0763304233551025
1761391650180808000,6.364807861328125,-1.668290376663208,-0.21425268054008484,-0.9434078335762024
1761391650190873900,6.374873779296875,-1.5471172332763672,-0.102562315762043,-0.589836835861206
1761391650200939800,6.384939697265625,-1.3605668544769287,0.17679156363010406,-0.15313005447387695
1761391650211006000,6.395005859375,-1.2262976169586182,0.5467389822006226,0.1955021172761917
1761391650221073000,6.405072998046875,-1.01506507396698,0.7101782560348511,0.5180737972259521
1761391650231139000,6.41513916015625,-0.7709206342697144,0.615581750869751,0.7841237187385559
1761391650241205000,6.425205078125,-0.5220116972923279,0.43103960156440735,1.0139436721801758
1761391650251271000,6.43527099609375,-0.30890393257141113,0.09931201487779617,1.2034296989440918
1761391650261337000,6.445337158203125,-0.1492932289838791,-0.263244092464447,1.364197015762329
1761391650271402800,6.45540283203125,-0.05601990595459938,-0.5437265634536743,1.5228183269500732
1761391650281469000,6.465468994140625,-0.07503647357225418,-0.6775847673416138,1.6014947891235352
1761391650291536000,6.475535888671875,-0.20076121389865875,-0.5528572797775269,1.5421947240829468
1761391650301601800,6.485601806640625,-0.3358953595161438,-0.21690455079078674,1.3401966094970703
1761391650311668000,6.49566796875,-0.3991468846797943,0.09135758131742477,1.0310078859329224
1761391650321734000,6.50573388671875,-0.41973018646240234,0.3377164900302887,0.6791999936103821
1761391650331800000,6.515800048828125,-0.43265682458877563,0.4668097198009491,0.3564597964286804
1761391650341866000,6.525865966796875,-0.4487364590167999,0.4696187973022461,0.0902523472905159
1761391650351932200,6.53593212890625,-0.47399622201919556,0.3692382872104645,-0.09900791198015213
1761391650361997800,6.545997802734375,-0.5136736035346985,0.18419119715690613,-0.2429158240556717
1761391650372064800,6.556064697265625,-0.5679672956466675,-0.06145460531115532,-0.340998113155365
1761391650382131000,6.566130859375,-0.5884630084037781,-0.32289552688598633,-0.35497304797172546
1761391650392196900,6.57619677734375,-0.576525866985321,-0.6042728424072266,-0.3350246846675873
1761391650402263000,6.586262939453125,-0.5551438927650452,-0.8381234407424927,-0.33726173639297485
1761391650412329000,6.596328857421875,-0.4971970021724701,-0.9338566660881042,-0.37636587023735046
1761391650422395000,6.606394775390625,-0.3695024251937866,-0.913111686706543,-0.4576719105243683
1761391650432461000,6.6164609375,-0.18676483631134033,-0.8508887887001038,-0.5996169447898865
1761391650442528000,6.626528076171875,0.014638579450547695,-0.759717583656311,-0.7525153756141663
1761391650452594200,6.63659423828125,0.21465234458446503,-0.6825703978538513,-0.8405490517616272
1761391650462660400,6.646660400390625,0.37737226486206055,-0.667337954044342,-0.8280409574508667
1761391650472726300,6.656726318359375,0.4910459816455841,-0.7016118764877319,-0.6962959170341492
1761391650482792200,6.666792236328125,0.5650248527526855,-0.7391038537025452,-0.4626445174217224
1761391650492858000,6.676858154296875,0.6159160137176514,-0.7511345744132996,-0.2126580774784088
1761391650502924300,6.68692431640625,0.6156662106513977,-0.6852655410766602,-0.018002834171056747
1761391650512990200,6.696990234375,0.5220646262168884,-0.5080161094665527,0.06814602762460709
1761391650523057200,6.70705712890625,0.2856366038322449,-0.2383670210838318,0.041366610676050186
1761391650533123300,6.717123291015625,-0.08126955479383469,0.2089603990316391,-0.10263979434967041
1761391650543189200,6.727189208984375,-0.48898857831954956,0.8157182335853577,-0.3807736933231354
1761391650553255400,6.73725537109375,-0.8231703639030457,1.5031641721725464,-0.7744143009185791
1761391650563321300,6.7473212890625,-1.0253351926803589,2.25584077835083,-1.3935468196868896
1761391650573387300,6.75738720703125,-1.133009433746338,3.0012757778167725,-2.209364891052246
1761391650583453200,6.767453125,-1.013917088508606,3.2745461463928223,-3.087476968765259
1761391650593520000,6.77752001953125,-0.6453695297241211,3.0337610244750977,-3.638939619064331
1761391650603586300,6.78758642578125,-0.17435060441493988,2.299211263656616,-3.542975664138794
1761391650613652200,6.79765234375,0.20293180644512177,1.1420403718948364,-2.7679998874664307
1761391650623718100,6.80771826171875,0.463144987821579,-0.08734878152608871,-1.703331470489502
1761391650633784300,6.817784423828125,0.7645299434661865,-0.9677001237869263,-0.8834903240203857
1761391650643850200,6.827850341796875,1.1028501987457275,-1.2263550758361816,-0.47895562648773193
1761391650653916200,6.837916259765625,1.4377375841140747,-1.0978469848632812,-0.2210243195295334
1761391650663983400,6.8479833984375,1.6814777851104736,-0.7254365682601929,0.2798931300640106
1761391650674049000,6.858049072265625,1.7239964008331299,-0.16307969391345978,0.9038287401199341
1761391650684115200,6.868115234375,1.5639530420303345,0.4439884126186371,1.3414521217346191
1761391650694181000,6.87818115234375,1.2256240844726562,0.9908573627471924,1.441040277481079
1761391650704247300,6.888247314453125,0.6982482075691223,1.336374282836914,1.3601586818695068
1761391650714313200,6.898313232421875,0.08017732948064804,1.4510388374328613,1.2293462753295898
1761391650724379400,6.90837939453125,-0.5450178384780884,1.382093906402588,1.006217122077942
1761391650734445300,6.9184453125,-1.0202555656433105,1.1173027753829956,0.7465532422065735
1761391650744512300,6.92851220703125,-1.3449091911315918,0.6998938918113708,0.4878615438938141
1761391650754578400,6.938578369140625,-1.5744402408599854,0.1561635285615921,0.303212970495224
1761391650764644000,6.94864404296875,-1.6878536939620972,-0.4265475869178772,0.28703638911247253
1761391650774710300,6.958710205078125,-1.737459659576416,-0.8653688430786133,0.3961893320083618
1761391650784776200,6.968776123046875,-1.7897210121154785,-0.980155348777771,0.4925813674926758
1761391650794842400,6.97884228515625,-1.836647868156433,-0.8610413074493408,0.583672821521759
1761391650804908300,6.988908203125,-1.8579713106155396,-0.5950477123260498,0.6601928472518921
1761391650814975200,6.998975341796875,-1.8067680597305298,-0.18075767159461975,0.6950576901435852
1761391650825041400,7.00904150390625,-1.7111166715621948,0.17406140267848969,0.6918083429336548
1761391650835107300,7.019107421875,-1.5584275722503662,0.35091936588287354,0.6971109509468079
1761391650845173200,7.02917333984375,-1.4045554399490356,0.3572233319282532,0.7106015086174011
1761391650855239200,7.0392392578125,-1.2653629779815674,0.24124225974082947,0.7214846014976501
1761391650865305000,7.04930517578125,-1.09511137008667,0.01396834384649992,0.7628312110900879
1761391650875371300,7.059371337890625,-0.8927693963050842,-0.2640725374221802,0.8470816016197205
1761391650885437200,7.069437255859375,-0.7158580422401428,-0.5290349721908569,0.9076919555664062
1761391650895504100,7.079504150390625,-0.579841136932373,-0.7602102756500244,0.9061241149902344
1761391650905570300,7.0895703125,-0.46459949016571045,-0.8861426115036011,0.7816287875175476
1761391650915636200,7.09963623046875,-0.3818928003311157,-0.7596487402915955,0.5073900818824768
1761391650925702400,7.109702392578125,-0.2963089346885681,-0.47070053219795227,0.1266339272260666
1761391650935768000,7.11976806640625,-0.18997229635715485,-0.22418831288814545,-0.19960178434848785
1761391650945834200,7.129834228515625,-0.1435355693101883,-0.07527206838130951,-0.4068833291530609
1761391650955900200,7.139900146484375,-0.155909925699234,-0.029677661135792732,-0.45059800148010254
1761391650965967000,7.149967041015625,-0.18477380275726318,-0.08966563642024994,-0.37336260080337524
1761391650976033300,7.160033203125,-0.2193795144557953,-0.2957633137702942,-0.22187329828739166
1761391650986099200,7.17009912109375,-0.24412588775157928,-0.5775777101516724,-0.04599547013640404
1761391650996165400,7.180165283203125,-0.2425982654094696,-0.7753255367279053,0.12648598849773407
1761391651006231300,7.190231201171875,-0.24105815589427948,-0.8232651352882385,0.28411558270454407
1761391651016297200,7.200297119140625,-0.23022091388702393,-0.7985089421272278,0.3908587694168091
1761391651026363100,7.210363037109375,-0.20679441094398499,-0.7785805463790894,0.4017747938632965
1761391651036430000,7.22043017578125,-0.16838736832141876,-0.7076516151428223,0.29454249143600464
1761391651046496300,7.230496337890625,-0.10491306334733963,-0.5184832811355591,0.13339729607105255
1761391651056562200,7.240562255859375,-0.045149415731430054,-0.3408205509185791,0.025552935898303986
1761391651066628000,7.250628173828125,-0.028172029182314873,-0.2681750953197479,-0.023234311491250992
1761391651076694300,7.2606943359375,-0.036771707236766815,-0.25893089175224304,-0.028281550854444504
1761391651086760200,7.27076025390625,-0.04105992987751961,-0.28816574811935425,-0.00337859895080328
1761391651096826400,7.280826416015625,-0.059569425880908966,-0.30732008814811707,0.06364937871694565
1761391651106892300,7.290892333984375,-0.10524982959032059,-0.3025045692920685,0.1732107549905777
1761391651116959200,7.300959228515625,-0.15735282003879547,-0.30656638741493225,0.31711381673812866
1761391651127025200,7.311025146484375,-0.20523113012313843,-0.3096841275691986,0.43873903155326843
1761391651137091000,7.321091064453125,-0.25670409202575684,-0.26422905921936035,0.4713967442512512
1761391651147157200,7.3311572265625,-0.28501617908477783,-0.09765126556158066,0.38971439003944397
1761391651157223200,7.34122314453125,-0.2743086516857147,0.134332075715065,0.18218930065631866
1761391651167289300,7.351289306640625,-0.2706795632839203,0.565813422203064,-0.1352296769618988
1761391651177355300,7.361355224609375,-0.21426233649253845,1.1084661483764648,-0.5736320614814758
1761391651187422200,7.371422119140625,-0.12339741736650467,1.424522876739502,-1.1761034727096558
1761391651197488400,7.38148828125,-0.06331443786621094,0.9302102327346802,-1.9381569623947144
1761391651207554300,7.39155419921875,0.006838823668658733,-0.2821938693523407,-2.5038187503814697
1761391651217620200,7.4016201171875,0.2300967276096344,-1.5995646715164185,-2.5535688400268555
1761391651227686100,7.41168603515625,0.7070087194442749,-2.7621960639953613,-1.9973329305648804
1761391651237752300,7.42175244140625,1.459462285041809,-3.76358962059021,-1.0177478790283203
1761391651247818200,7.431818359375,2.3698995113372803,-4.113384246826172,0.015023939311504364
1761391651257884200,7.44188427734375,3.0871071815490723,-3.5578041076660156,0.8359565138816833
1761391651267951400,7.451951416015625,3.4543235301971436,-2.465718984603882,1.340997576713562
1761391651278017300,7.462017333984375,3.394505023956299,-1.234047532081604,1.4617552757263184
1761391651288083200,7.472083251953125,2.9561572074890137,-0.23365899920463562,1.2737199068069458
1761391651298149400,7.4821494140625,2.2504162788391113,0.40210390090942383,0.9446617960929871
1761391651308215000,7.492215087890625,1.3870562314987183,0.7473347783088684,0.5399712920188904
1761391651318281200,7.50228125,0.4993843734264374,0.794818639755249,0.09095446020364761
1761391651328347100,7.51234716796875,-0.3394969701766968,0.615655779838562,-0.33638036251068115
1761391651338414000,7.5224140625,-1.1539788246154785,0.37937992811203003,-0.6863673329353333
1761391651348480300,7.532480224609375,-1.9301183223724365,0.14398527145385742,-0.9423714280128479
1761391651358546200,7.542546142578125,-2.5476021766662598,-0.006496262736618519,-1.114612340927124
1761391651368612400,7.5526123046875,-2.932561159133911,0.008593207225203514,-1.211280345916748
1761391651378678300,7.56267822265625,-3.1140596866607666,0.13216745853424072,-1.151536226272583
1761391651388744400,7.572744384765625,-3.1508848667144775,0.2924913465976715,-0.8776633143424988
1761391651398810000,7.58281005859375,-3.0289602279663086,0.43472591042518616,-0.4664710462093353
1761391651408877000,7.592876953125,-2.7348215579986572,0.6047290563583374,0.001809083390980959
1761391651418943200,7.602943115234375,-2.324432849884033,0.806786060333252,0.4304894804954529
1761391651429009200,7.613009033203125,-1.8711971044540405,1.0040702819824219,0.7681676745414734
1761391651439075300,7.623075439453125,-1.4080311059951782,1.1408092975616455,1.0102264881134033
1761391651449141200,7.633141357421875,-1.0203113555908203,1.1966243982315063,1.1933352947235107
1761391651459207400,7.64320751953125,-0.7405065298080444,1.1810204982757568,1.3474382162094116
1761391651469273300,7.6532734375,-0.5765215754508972,1.1107462644577026,1.4797334671020508
1761391651479339300,7.66333935546875,-0.49824434518814087,0.9651329517364502,1.5960363149642944
1761391651489406500,7.673406494140625,-0.48401400446891785,0.7795425653457642,1.6590334177017212
1761391651499472400,7.683472412109375,-0.5312389731407166,0.5125220417976379,1.6242127418518066
1761391651509538300,7.693538330078125,-0.6532782912254333,0.2472301721572876,1.4152203798294067
1761391651519604500,7.7036044921875,-0.768190860748291,0.10744251310825348,1.0576105117797852
1761391651529670400,7.71367041015625,-0.8066908717155457,0.02476893737912178,0.6005332469940186
1761391651539736300,7.723736328125,-0.7729243636131287,-0.040289029479026794,0.14559711515903473
1761391651549802200,7.73380224609375,-0.6896430253982544,-0.11602932959794998,-0.21954597532749176
1761391651559869200,7.743869140625,-0.6113276481628418,-0.22385528683662415,-0.4564896821975708
1761391651569935400,7.753935302734375,-0.528595507144928,-0.34905529022216797,-0.5800758004188538
1761391651580001300,7.764001220703125,-0.42170652747154236,-0.505568265914917,-0.6154345870018005
1761391651590067500,7.7740673828125,-0.32302364706993103,-0.6512913703918457,-0.581181526184082
1761391651600133400,7.78413330078125,-0.21993675827980042,-0.751247763633728,-0.5052283406257629
1761391651610199600,7.794199462890625,-0.10654760897159576,-0.7895740866661072,-0.424640029668808
1761391651620265200,7.80426513671875,0.008196622133255005,-0.7673652768135071,-0.31888681650161743
1761391651630332400,7.81433251953125,0.09338235855102539,-0.6908854246139526,-0.13916073739528656
1761391651640398300,7.8243984375,0.17056629061698914,-0.6252126097679138,0.027845950797200203
1761391651650464300,7.83446435546875,0.2555277645587921,-0.6172521710395813,0.12121424823999405
1761391651660530400,7.844530517578125,0.354159414768219,-0.6704084277153015,0.14405634999275208
1761391651670596400,7.854596435546875,0.4288152754306793,-0.7133165001869202,0.1140955239534378
1761391651680662300,7.864662353515625,0.48326724767684937,-0.7866654396057129,0.039330560714006424
1761391651690728400,7.874728515625,0.5382412672042847,-0.8795791268348694,-0.049837928265333176
1761391651700794400,7.88479443359375,0.5969845056533813,-0.9684431552886963,-0.10255827009677887
1761391651710861600,7.894861572265625,0.6366355419158936,-1.028458833694458,-0.10598523169755936
1761391651720927500,7.904927490234375,0.6446933150291443,-1.0395811796188354,-0.041472796350717545
1761391651730993200,7.9149931640625,0.6601527333259583,-1.0568194389343262,0.07132246345281601
1761391651741059300,7.925059326171875,0.6712760925292969,-0.9303255677223206,0.2569575309753418
1761391651751125200,7.935125244140625,0.6870747208595276,-0.5210533738136292,0.4851006865501404
1761391651761191400,7.94519140625,0.6233422160148621,0.11152462661266327,0.5689274668693542
1761391651771257300,7.95525732421875,0.5400595664978027,0.6048770546913147,0.21289639174938202
1761391651781324300,7.96532421875,0.4577186107635498,0.6331310868263245,-0.6339354515075684
1761391651791390500,7.975390380859375,0.4398927390575409,0.3804553747177124,-1.4741811752319336
1761391651801456400,7.985456298828125,0.5726102590560913,0.19782322645187378,-1.8155946731567383
1761391651811522300,7.995522216796875,0.9677847027778625,-0.03740685433149338,-1.447779655456543
1761391651821588200,8.005588134765626,1.5689154863357544,-0.3974425494670868,-0.48396533727645874
1761391651831654400,8.015654296875,2.2793939113616943,-0.6117503046989441,0.5431942939758301
1761391651841720300,8.02572021484375,2.922661781311035,-0.5078473091125488,1.3030829429626465
1761391651851786500,8.035786376953125,3.2575483322143555,-0.2472338229417801,1.6512198448181152
1761391651861853400,8.045853515625,3.2879321575164795,-0.06383541971445084,1.7519676685333252
1761391651871919400,8.05591943359375,3.006370782852173,0.004798238165676594,1.6684184074401855
1761391651881985500,8.065985595703125,2.4519598484039307,0.09585100412368774,1.4492267370224
1761391651892051500,8.076051513671874,1.7076741456985474,0.30663037300109863,1.1262617111206055
1761391651902117400,8.086117431640625,0.8898881077766418,0.6118972301483154,0.7050760984420776
1761391651912183300,8.096183349609374,0.1544012874364853,0.9376854300498962,0.25801604986190796
1761391651922249200,8.106249267578125,-0.44189250469207764,1.086202621459961,-0.12434042245149612
1761391651932316400,8.11631640625,-0.9339197874069214,0.9735834002494812,-0.43035414814949036
1761391651942382300,8.12638232421875,-1.2616515159606934,0.6178997755050659,-0.6353910565376282
1761391651952448300,8.1364482421875,-1.3362058401107788,0.10785619169473648,-0.7150506973266602
1761391651962514400,8.146514404296875,-1.182713270187378,-0.40789368748664856,-0.6367536783218384
1761391651972580400,8.156580322265626,-0.8729820251464844,-0.8300574421882629,-0.3934110701084137
1761391651982646500,8.166646484375,-0.5132752656936646,-1.033717155456543,-0.027905024588108063
1761391651992712200,8.176712158203125,-0.2638039290904999,-0.8596782684326172,0.405611515045166
1761391652002778400,8.1867783203125,-0.17408795654773712,-0.4160999655723572,0.772556483745575
1761391652012845300,8.19684521484375,-0.16869425773620605,-0.033538222312927246,1.0392006635665894
1761391652022911200,8.2069111328125,-0.19093096256256104,0.05856376141309738,1.339338779449463
1761391652032977400,8.216977294921875,-0.2991541028022766,-0.0935639888048172,1.606667399406433
1761391652043043300,8.227043212890624,-0.5326087474822998,-0.25297001004219055,1.7173265218734741
1761391652053109500,8.237109619140625,-0.7362116575241089,-0.225921630859375,1.6055406332015991
1761391652063175400,8.247175537109374,-0.8672173619270325,-0.05810505896806717,1.2859046459197998
1761391652073242400,8.257242431640625,-0.9679828882217407,0.15043988823890686,0.8098795413970947
1761391652083308500,8.26730859375,-0.9916045665740967,0.34599849581718445,0.3834894001483917
1761391652093374200,8.277374267578125,-0.9754924178123474,0.3815072178840637,0.11055455356836319
1761391652103440400,8.2874404296875,-0.9404845833778381,0.3665538728237152,0.0181622002273798
1761391652113506300,8.29750634765625,-0.8894810676574707,0.3115377724170685,0.0048021855764091015
1761391652123572200,8.307572265625,-0.7854980230331421,0.20123401284217834,0.014794345945119858
1761391652133638400,8.317638427734375,-0.6592867970466614,0.06517205387353897,0.04344037175178528
1761391652143704300,8.327704345703125,-0.5137908458709717,-0.04045742750167847,0.0752699002623558
1761391652153771500,8.337771484375,-0.3694210946559906,-0.16321823000907898,0.10515483468770981
1761391652163837400,8.34783740234375,-0.2568362057209015,-0.29935944080352783,0.10829490423202515
1761391652173903400,8.3579033203125,-0.1496250480413437,-0.3606736660003662,0.028457066044211388
1761391652183969300,8.36796923828125,-0.055859435349702835,-0.3379873037338257,-0.12637056410312653
1761391652194035200,8.37803515625,0.017898941412568092,-0.27081361413002014,-0.2832014858722687
1761391652204101400,8.388101318359375,0.08815690129995346,-0.2249234914779663,-0.4141486883163452
1761391652214167300,8.398167236328124,0.1527702510356903,-0.21968907117843628,-0.49252793192863464
1761391652224234200,8.408234130859375,0.20497535169124603,-0.25210168957710266,-0.527015209197998
1761391652234300400,8.418300537109374,0.2402651607990265,-0.30400457978248596,-0.540317714214325
1761391652244366300,8.428366455078125,0.2591162919998169,-0.35257071256637573,-0.5389963388442993
1761391652254432500,8.4384326171875,0.2587448060512543,-0.4097684919834137,-0.5181613564491272
1761391652264498400,8.44849853515625,0.25544917583465576,-0.4691600203514099,-0.5062429308891296
1761391652274564400,8.458564453125,0.26943954825401306,-0.4722287654876709,-0.5339030623435974
1761391652284630300,8.46863037109375,0.29884815216064453,-0.4111142158508301,-0.5979568958282471
1761391652294696400,8.478696533203125,0.35829150676727295,-0.2946954369544983,-0.6659950613975525
1761391652304763400,8.488763427734375,0.41291287541389465,-0.17617811262607574,-0.6753828525543213
1761391652314829300,8.498829345703125,0.4434955418109894,-0.07596442103385925,-0.574917733669281
1761391652324895500,8.5088955078125,0.4535994827747345,0.00685638003051281,-0.35358381271362305
1761391652334961400,8.51896142578125,0.4553680717945099,0.08268855512142181,-0.09175620228052139
1761391652345027300,8.52902734375,0.43459266424179077,0.25104671716690063,0.12839233875274658
1761391652355093500,8.539093505859375,0.40092232823371887,0.5919148325920105,0.18633660674095154
1761391652365159200,8.5491591796875,0.3364705741405487,1.0535913705825806,-0.09386495500802994
1761391652375226400,8.559226318359375,0.15233004093170166,1.5463446378707886,-0.7896666526794434
1761391652385292300,8.569292236328126,-0.16098961234092712,1.72329580783844,-1.7737059593200684
1761391652395358200,8.579358154296875,-0.4715062081813812,1.3113987445831299,-2.729688882827759
1761391652405424400,8.58942431640625,-0.5236488580703735,0.5453729629516602,-3.252824068069458
1761391652415490300,8.599490234375,-0.16082753241062164,-0.3388191759586334,-3.08624005317688
1761391652425556500,8.609556396484376,0.45840567350387573,-1.0424875020980835,-2.133812189102173
1761391652435622400,8.619622314453125,1.2376327514648438,-1.4539868831634521,-0.9767778515815735
1761391652445689300,8.629689453125,2.0481011867523193,-1.3536678552627563,-0.1419377475976944
1761391652455754800,8.639754638671874,2.592296838760376,-0.7917728424072266,0.43014413118362427
1761391652465820700,8.649820556640625,2.7108590602874756,0.03952854126691818,0.782045841217041
1761391652475886800,8.659886962890624,2.5111982822418213,0.7682298421859741,0.9458028078079224
1761391652485952800,8.669952880859375,2.0683181285858154,1.1956976652145386,0.9996581673622131
1761391652496019000,8.68001904296875,1.494045376777649,1.2933493852615356,1.0053669214248657
1761391652506084900,8.6900849609375,0.8870478868484497,1.1732906103134155,0.9466354846954346
1761391652516151000,8.700151123046876,0.3205263912677765,1.0312786102294922,0.7549962401390076
1761391652526218000,8.710218017578125,-0.1335819810628891,0.8696427941322327,0.4853532910346985
1761391652536284000,8.720283935546876,-0.514072835445404,0.6225826740264893,0.22524286806583405
1761391652546349800,8.730349853515625,-0.7478355169296265,0.22452399134635925,0.08647573739290237
1761391652556415700,8.740415771484376,-0.9044451117515564,-0.2863922715187073,0.2134653776884079
1761391652566482000,8.75048193359375,-1.050195574760437,-0.7372846007347107,0.4934825599193573
1761391652576547800,8.7605478515625,-1.253370761871338,-0.9899629354476929,0.799950897693634
1761391652586614000,8.770614013671874,-1.5204391479492188,-1.028913140296936,1.032538890838623
1761391652596681000,8.780680908203125,-1.904012680053711,-0.8121504187583923,1.0834866762161255
1761391652606747000,8.790746826171874,-2.3219141960144043,-0.4488990902900696,0.9930457472801208
1761391652616813000,8.80081298828125,-2.618757724761963,-0.14794592559337616,0.8353047966957092
1761391652626879000,8.81087890625,-2.8379623889923096,0.06901521235704422,0.5960842967033386
1761391652636945000,8.82094482421875,-2.9202191829681396,0.2667706608772278,0.33359676599502563
1761391652647010800,8.8310107421875,-2.834502696990967,0.43366342782974243,0.11868219077587128
1761391652657076700,8.84107666015625,-2.64896559715271,0.4713932275772095,0.008733853697776794
1761391652667144000,8.85114404296875,-2.437974452972412,0.3109319806098938,0.033678777515888214
1761391652677209900,8.8612099609375,-2.2176380157470703,0.011117294430732727,0.16702671349048615
1761391652687275800,8.87127587890625,-2.043612480163574,-0.30433401465415955,0.3616756498813629
1761391652697342000,8.881342041015625,-1.9171597957611084,-0.4602799117565155,0.5211798548698425
1761391652707408000,8.891407958984376,-1.7300524711608887,-0.5909053087234497,0.5597786903381348
1761391652717473800,8.901473876953125,-1.5059890747070312,-0.7865086197853088,0.5170557498931885
1761391652727539700,8.911539794921875,-1.3332552909851074,-0.9905869364738464,0.4248824715614319
1761391652737606000,8.92160595703125,-1.2669298648834229,-1.128393530845642,0.3089854121208191
1761391652747672800,8.9316728515625,-1.2730580568313599,-1.1844768524169922,0.15141591429710388
1761391652757738800,8.94173876953125,-1.300686001777649,-1.1453046798706055,-0.04714537411928177
1761391652767805000,8.951804931640625,-1.3089861869812012,-1.0742130279541016,-0.28110846877098083
1761391652777870800,8.961870849609374,-1.295340657234192,-1.0082614421844482,-0.5178565382957458
1761391652787937000,8.97193701171875,-1.2592315673828125,-0.8898650407791138,-0.7606266140937805
1761391652798003000,8.9820029296875,-1.2116347551345825,-0.7194544076919556,-0.9692195057868958
1761391652808068900,8.99206884765625,-1.1872711181640625,-0.5508671998977661,-1.066990613937378
1761391652818136000,9.002135986328126,-1.1641649007797241,-0.4014585614204407,-1.0301947593688965
1761391652828201700,9.01220166015625,-1.0942857265472412,-0.3043215870857239,-0.8502350449562073
1761391652838268000,9.022267822265626,-0.9773332476615906,-0.3995943069458008,-0.5569256544113159
1761391652848333800,9.032333740234375,-0.8635613918304443,-0.6146804094314575,-0.24995790421962738
1761391652858399700,9.042399658203125,-0.7314856648445129,-0.82789546251297,-0.007260306738317013
1761391652868466000,9.0524658203125,-0.6250571012496948,-0.9244376420974731,0.14853668212890625
1761391652878531800,9.06253173828125,-0.5087453722953796,-0.9018902778625488,0.19584135711193085
1761391652888599000,9.07259912109375,-0.33181121945381165,-0.7589977383613586,0.09185333549976349
1761391652898665000,9.0826650390625,-0.1024043932557106,-0.5116398334503174,-0.1448923647403717
1761391652908730600,9.092730712890624,0.1622454673051834,-0.3106371760368347,-0.3700900375843048
1761391652918796800,9.102796875,0.39799007773399353,-0.13776393234729767,-0.4118864834308624
1761391652928862700,9.11286279296875,0.5719715356826782,-0.14129222929477692,-0.24111905694007874
1761391652938929000,9.122928955078125,0.6305205821990967,-0.5036610960960388,0.0830230787396431
1761391652948994800,9.132994873046876,0.5957087278366089,-1.1216801404953003,0.4373662769794464
1761391652959061000,9.14306103515625,0.5659111738204956,-1.767269253730774,0.7857138514518738
1761391652969128000,9.1531279296875,0.5932965278625488,-2.2099435329437256,1.052502989768982
1761391652979193900,9.16319384765625,0.6265040040016174,-2.3365519046783447,0.898889422416687
1761391652989260000,9.173260009765626,0.6859275102615356,-2.0472705364227295,0.4363560974597931
1761391652999325700,9.18332568359375,0.6791183352470398,-1.4904221296310425,-0.09415917843580246
1761391653009391900,9.193391845703125,0.4684169888496399,-0.6392324566841125,-0.44824838638305664
1761391653019457800,9.203457763671874,0.21925191581249237,0.18944579362869263,-0.5372102856636047
1761391653029524000,9.21352392578125,0.033111993223428726,0.8917932510375977,-0.40807944536209106
1761391653039591000,9.2235908203125,-0.060401447117328644,1.5672069787979126,-0.2270476222038269
1761391653049656800,9.23365673828125,-0.03169737383723259,2.021514654159546,-0.1827440857887268
1761391653059723000,9.243722900390624,0.08124808967113495,2.1530416011810303,-0.221751406788826
1761391653069789000,9.253788818359375,0.18236753344535828,1.924910068511963,-0.1857321858406067
1761391653079854800,9.263854736328126,0.22406411170959473,1.4192001819610596,-0.026069557294249535
1761391653089920800,9.273920654296875,0.23123247921466827,0.7836688756942749,0.19890619814395905
1761391653099986700,9.283986572265626,0.17227914929389954,0.10615593940019608,0.3718942403793335
1761391653110054000,9.294053955078125,0.026401009410619736,-0.49834102392196655,0.4366958439350128
1761391653120119800,9.304119873046876,-0.155907541513443,-0.8824958801269531,0.37898993492126465
1761391653130185700,9.314185791015625,-0.32121217250823975,-1.0038654804229736,0.22925516963005066
1761391653140252000,9.324251953125,-0.43921124935150146,-0.9271312952041626,0.05219198018312454
1761391653150317800,9.33431787109375,-0.5013288259506226,-0.6775990724563599,-0.12375269830226898
1761391653160384000,9.344384033203125,-0.536348819732666,-0.3429635763168335,-0.2563168704509735
1761391653170450000,9.354449951171874,-0.571017861366272,-0.047307275235652924,-0.2717735767364502
1761391653180516900,9.364516845703125,-0.596261203289032,0.13577093183994293,-0.21904431283473969
1761391653190582800,9.374582763671874,-0.6027108430862427,0.19722601771354675,-0.14647366106510162
1761391653200648700,9.384648681640625,-0.5928454399108887,0.1873432844877243,-0.10377173870801926
1761391653210715000,9.39471484375,-0.585403561592102,0.14443936944007874,-0.07808656245470047
1761391653220780800,9.40478076171875,-0.5856406092643738,0.07899698615074158,-0.038273103535175323
1761391653230847000,9.414846923828126,-0.5754824280738831,-0.0019613858312368393,0.028564725071191788
1761391653240913000,9.424912841796875,-0.5409830808639526,-0.07933447510004044,0.12070050835609436
1761391653250979800,9.434979736328126,-0.4915618896484375,-0.19814491271972656,0.2384689748287201
1761391653261046000,9.4450458984375,-0.43604403734207153,-0.2814041078090668,0.3513275980949402
1761391653271112000,9.45511181640625,-0.3856734335422516,-0.2985718846321106,0.4299984276294708
1761391653281177900,9.465177734375,-0.3407381772994995,-0.2814592123031616,0.4037146270275116
1761391653291243800,9.475243896484375,-0.30480605363845825,-0.26883748173713684,0.28951969742774963
1761391653301309700,9.485309814453124,-0.28245946764945984,-0.3057555556297302,0.1697525680065155
1761391653311376000,9.4953759765625,-0.2893697917461395,-0.35140690207481384,0.12172386795282364
1761391653321441800,9.50544189453125,-0.27621591091156006,-0.348256379365921,0.18081727623939514
1761391653331509000,9.515509033203125,-0.2084476351737976,-0.35451921820640564,0.28495582938194275
1761391653341575000,9.525574951171874,-0.09120701998472214,-0.40991562604904175,0.4076748490333557
1761391653351640800,9.535640869140625,0.0592452697455883,-0.44020360708236694,0.5104600191116333
1761391653361707000,9.54570703125,0.18763813376426697,-0.3690871000289917,0.6356959939002991
1761391653371774000,9.55577392578125,0.2463020384311676,-0.28560277819633484,0.6848823428153992
1761391653381840000,9.56583984375,0.22997047007083893,-0.442351371049881,0.48596715927124023
1761391653391905800,9.57590576171875,0.13921929895877838,-0.868047297000885,0.040453966706991196
1761391653401971700,9.5859716796875,-0.008260445669293404,-1.3409819602966309,-0.47791436314582825
1761391653412038000,9.596037841796875,-0.13762903213500977,-1.7113592624664307,-0.8903459906578064
1761391653422104800,9.606104736328126,-0.48366978764533997,-1.900376319885254,-0.9386048316955566
1761391653432170800,9.616170654296875,-0.6312354207038879,-1.5946847200393677,-0.8123962879180908
1761391653442237000,9.62623681640625,-0.890338659286499,-0.988821268081665,-0.3957085609436035
1761391653452303400,9.636303466796875,-0.9791313409805298,-0.42428311705589294,-0.2794075012207031
1761391653462369500,9.64636962890625,-0.9110196828842163,0.2014039307832718,-0.21138449013233185
1761391653472435500,9.656435546875,-0.7323923110961914,0.6900931000709534,-0.27450886368751526
1761391653482501600,9.666501708984375,-0.49660348892211914,1.0229527950286865,-0.39313164353370667
1761391653492568600,9.676568603515625,-0.30420100688934326,1.1301846504211426,-0.4505296051502228
1761391653502634500,9.686634521484375,-0.17370106279850006,1.0522669553756714,-0.4253062605857849
1761391653512700700,9.69670068359375,-0.13073283433914185,0.8050649762153625,-0.33950161933898926
1761391653522766600,9.7067666015625,-0.16181781888008118,0.4699569046497345,-0.20193110406398773
1761391653532832500,9.71683251953125,-0.20285508036613464,0.19862951338291168,-0.02056119777262211
1761391653542898400,9.7268984375,-0.1859927475452423,0.00888409186154604,0.1577126681804657
1761391653552964400,9.73696435546875,-0.0646355077624321,-0.13791149854660034,0.28752315044403076
1761391653563031600,9.747031494140625,0.1352435201406479,-0.24609948694705963,0.3199487328529358
1761391653573097500,9.757097412109376,0.2815970778465271,-0.3932279646396637,0.2808379828929901
1761391653583163400,9.767163330078125,0.2555931806564331,-0.4461399018764496,0.19010807573795319
1761391653593229600,9.7772294921875,0.11732440441846848,-0.40062522888183594,0.0624907948076725
1761391653603295500,9.78729541015625,-0.10259810090065002,-0.25256386399269104,-0.07353867590427399
1761391653613361700,9.797361572265626,-0.31086382269859314,0.0010551968589425087,-0.2002396136522293
1761391653623427300,9.80742724609375,-0.4223767817020416,0.2966216206550598,-0.2953088581562042
1761391653633494300,9.817494384765626,-0.4455745816230774,0.49976494908332825,-0.35317280888557434
1761391653643560400,9.827560546875,-0.39313560724258423,0.5918442606925964,-0.3870607316493988
1761391653653626400,9.83762646484375,-0.31927943229675293,0.5984264612197876,-0.3623206615447998
1761391653663692500,9.847692626953124,-0.2553451955318451,0.5450274348258972,-0.28456753492355347
1761391653673758500,9.857758544921875,-0.18403854966163635,0.42296692728996277,-0.17324800789356232
1761391653683824600,9.86782470703125,-0.11393696069717407,0.26596799492836,-0.03080216608941555
1761391653693890600,9.877890625,-0.05083395913243294,0.12055100500583649,0.12537969648838043
1761391653703957500,9.88795751953125,-0.0000589294359087944,-0.0019884957000613213,0.26406434178352356
1761391653714023700,9.898023681640625,0.018512697890400887,-0.07258392870426178,0.32268592715263367
1761391653724089300,9.90808935546875,0.016082564368844032,-0.07672594487667084,0.2951006293296814
1761391653734155500,9.918155517578125,0.01811949722468853,-0.048023562878370285,0.22044770419597626
1761391653744221400,9.928221435546876,0.007475108373910189,-0.04470979422330856,0.13421481847763062
1761391653754287400,9.938287353515625,0.010489044710993767,-0.044752322137355804,0.05171945318579674
1761391653764353500,9.948353515625,0.0006249626167118549,-0.046862877905368805,-0.01059824787080288
1761391653774419500,9.95841943359375,-0.020511940121650696,-0.031639184802770615,-0.047973696142435074
1761391653784486700,9.968486572265626,-0.03998763859272003,0.006378772668540478,-0.03497587516903877
1761391653794552600,9.978552490234375,-0.06415917724370956,0.02219989337027073,0.045661117881536484
1761391653804618500,9.988618408203125,-0.04946305602788925,-0.17910099029541016,0.5334051847457886
1761391653814684400,9.998684326171874,-0.10115241259336472,-0.274495929479599,0.6185134053230286
1761391653824750300,10.008750244140625,-0.07889344543218613,-0.091865673661232,0.6447862982749939
1761391653834816500,10.01881640625,-0.05815301835536957,-0.03711427375674248,0.4978463351726532
1761391653844882400,10.02888232421875,-0.037006717175245285,0.09048362821340561,0.24631504714488983
1761391653854949400,10.038949462890624,0.001815000083297491,0.25724416971206665,-0.07363829016685486
1761391653865015600,10.049015625,0.02318500354886055,0.4113929867744446,-0.34420666098594666
1761391653875081500,10.05908154296875,0.0169314406812191,0.480920672416687,-0.45871445536613464
