time,seconds_elapsed,z,y,x
1761391719269788700,0.07478857421875,-0.23206804968714712,0.014314082561898976,-0.04613846817743033
1761391719279854800,0.084854736328125,0.06432780300378799,-0.005637439631391316,-0.01832351913265884
1761391719289921800,0.094921875,-0.09620996495485305,-0.010840670830290763,0.0169001717986539
1761391719299987700,0.10498779296875,-0.07913958768844603,0.002751691594626754,-0.04057593867946416
1761391719310054000,0.115053955078125,-0.015266542714834212,-0.009782704476267098,0.00757017952594906
1761391719320119800,0.125119873046875,-0.08707447234094143,-0.004379073600750416,0.012747143772430717
1761391719330185700,0.135185791015625,-0.07121931608319282,0.005803078521881252,-0.033458069498278196
1761391719340251600,0.145251708984375,-0.06015256314575672,-0.004267722180765122,-0.004226896980032324
1761391719350317800,0.15531787109375,-0.05639233382940292,-0.0076813848154619335,-0.01648059467971325
1761391719360383700,0.1653837890625,-0.07000994029343127,-0.0076268416166305536,-0.025796668024919926
1761391719370450700,0.17545068359375,-0.06312193434536456,-0.018724446350056677,-0.004362944449856877
1761391719380516900,0.185516845703125,-0.0473959574252367,-0.013082494940329342,-0.02388904430530965
1761391719390582800,0.195582763671875,-0.07836334261894226,-0.004889379476755857,-0.017210699052549898
1761391719400649000,0.20564892578125,-0.053960722768306726,-0.002810198582522571,-0.0016779796821996568
1761391719410715000,0.21571484375,-0.06098609136044979,0.0001362118666060269,-0.0009551818329840898
1761391719420780500,0.225780517578125,-0.07744272064268588,0.0017966558921150863,-0.0007762085368856787
1761391719430846700,0.2358466796875,-0.043314825591444964,-0.00983887337660417,-0.006067592943273485
1761391719440912600,0.24591259765625,-0.07189853051900863,-0.011021306360512972,-0.012434424561448394
1761391719450978800,0.255978759765625,-0.07953004831075668,-0.014358414893969893,-0.0008812763465568423
1761391719461045800,0.266045654296875,-0.046913726866245266,-0.013189517245069145,-0.005648783009313047
1761391719471111700,0.276111572265625,-0.07265723993182181,-0.0016140110678970812,0.0028501287341117856
1761391719481177900,0.286177734375,-0.062331660750508305,0.004384955352265387,-0.005116320100426674
1761391719491243800,0.296243896484375,-0.06697334907650947,0.012626841861009597,-0.0007080386715009808
1761391719501310000,0.30631005859375,-0.059935705524683,0.005325779866334051,-0.0022310104550793764
1761391719511375600,0.316375732421875,-0.05335924974381923,-0.008134864204004406,-0.003639087154716253
1761391719521441500,0.326441650390625,-0.07071662725806235,-0.004214676819276064,-0.009092420657165349
1761391719531507500,0.336507568359375,-0.0785007052630186,-0.005145272200275212,-0.006566957300156355
1761391719541574400,0.346574462890625,-0.06773088944554329,-0.011885448909178375,-0.009291486893221736
1761391719551640300,0.356640380859375,-0.08193301779925823,-0.005927563418075442,-0.004704524429142475
1761391719561706200,0.366706298828125,-0.07353986798524856,-0.0012239888370037077,0.0025969576906412837
1761391719571772400,0.3767724609375,-0.07082593285143375,-0.010213771103601901,-0.00012373597752302884
1761391719581838300,0.38683837890625,-0.0679699588984251,-0.01687154849236831,-0.007299765086732805
1761391719591904500,0.396904541015625,-0.07454758372306823,-0.00215677617508918,-0.004691701480187475
1761391719601970400,0.406970458984375,-0.06421908193230629,-0.0033762897663749754,0.0051013782596215605
1761391719612036400,0.417036376953125,-0.06586334200799465,-0.0025014614269137383,0.0011767521617934108
1761391719622102300,0.427102294921875,-0.06631108577549458,-0.006333367739990353,0.007840703563019634
1761391719632169500,0.43716943359375,-0.06032207449376583,-0.004964746267907321,0.008607194423489272
1761391719642235400,0.4472353515625,-0.058085693743824954,0.0012435703203082084,0.009244542478956282
1761391719652301300,0.45730126953125,-0.04657470417022705,0.0006556508971378207,0.01287307170704007
1761391719662367200,0.4673671875,-0.05197743999660015,-0.002714300459995866,0.007298413379862904
1761391719672433400,0.477433349609375,-0.06261749195456505,-0.010808668256830424,0.009252798850648105
1761391719682499300,0.487499267578125,-0.06666004534363747,-0.016102719544339925,0.0020316519580781457
1761391719692565500,0.4975654296875,-0.06995031906068325,-0.018456223867926745,-0.0027132410140708087
1761391719702631400,0.50763134765625,-0.07040156995952129,-0.013896350340172647,-0.02350435583665967
1761391719712697300,0.517697265625,-0.061570028728246684,0.0013790150019340217,-0.02092018456235528
1761391719722764500,0.5277646484375,-0.07204290742576122,-0.01273907006382942,-0.022994104759581385
1761391719732830200,0.537830322265625,-0.06694236941635608,-0.019484854529611764,-0.017992752808332443
1761391719742896400,0.547896484375,-0.07291676765084266,-0.008331318357866256,-0.008976283464208245
1761391719752962300,0.55796240234375,-0.06856032600700855,-0.002609561443887651,-0.022816483170352876
1761391719763028500,0.568028564453125,-0.06511340042352676,0.007916947137005626,-0.019721951221115887
1761391719773094400,0.578094482421875,-0.0522410593688488,0.021660718997661022,0.0029307927548885343
1761391719783160600,0.58816064453125,-0.05928279457390308,0.020799663455225527,0.011838102636113762
1761391719793226500,0.5982265625,-0.0548117866396904,0.010399247205723076,0.010794840660877525
1761391719803293400,0.60829345703125,-0.062309448918700217,0.0005954086098819971,-0.002714519655704498
1761391719813359400,0.618359375,-0.07204056933820248,-0.006793660461809486,-0.01735208028461784
1761391719823425300,0.62842529296875,-0.08311141392886638,-0.009735924458783119,-0.030469372543692586
1761391719833491200,0.6384912109375,-0.08086334274113177,0.0007797522008419036,-0.030034999714419242
1761391719843557400,0.648557373046875,-0.0780085378319025,-0.007647464279551058,-0.01926419751625508
1761391719853623300,0.658623291015625,-0.06871463978588581,-0.007775255377683788,-0.012169563080184161
1761391719863689500,0.668689453125,-0.07049275537431239,-0.0034331345201469954,-0.009529606498032807
1761391719873755400,0.67875537109375,-0.061946460825204844,0.0018690087422728538,-0.006210398947447538
1761391719883821600,0.688821533203125,-0.06029460196495056,0.021061364865023642,-0.0013271934831514953
1761391719893888500,0.698888427734375,-0.07182020458579064,0.03690718703884631,0.012696509563736616
1761391719903954200,0.7089541015625,-0.07481938640177249,0.039261915205139664,0.010542838661186396
1761391719914020400,0.719020263671875,-0.05731938554644584,0.026313494973257183,0.019096476266533137
1761391719924086300,0.729086181640625,-0.06436521240472794,0.0025861988346092403,0.0007328808518126607
1761391719934152400,0.73915234375,-0.053446343505382535,-0.022847718558833,-0.01425086286626756
1761391719944218400,0.74921826171875,-0.06063128657341003,-0.024905217344220725,-0.02350037378128618
1761391719954284500,0.759284423828125,-0.06795476132929325,-0.02878627829495817,-0.024656704209558664
1761391719964350500,0.7693505859375,-0.06929974619746208,-0.025795097122341393,-0.017825579547882078
1761391719974416400,0.77941650390625,-0.07183832476437091,-0.017058924290630967,-0.014152480525709688
1761391719984483600,0.789483642578125,-0.06061199735105037,-0.017785777260456232,-0.006486220214143395
1761391719994549200,0.79954931640625,-0.04460428088009357,-0.007029076652880758,0.01621376043707132
1761391720004615400,0.809615478515625,-0.058226563519239424,-0.002566964411176741,0.02419686814546585
1761391720014681300,0.819681396484375,-0.05000643218457698,-0.015503876868356019,0.019468524449318646
1761391720024747300,0.829747314453125,-0.06543196485340595,-0.005061192379705607,0.01853624856788665
1761391720034813400,0.8398134765625,-0.0808452225625515,-0.013884842565469444,0.001038293539173901
1761391720044879400,0.84987939453125,-0.06872106952667235,-0.016449962079431862,-0.014749898429587483
1761391720054945500,0.859945556640625,-0.06587561696767806,-0.0049793958477675915,-0.020001571880094705
1761391720065012500,0.870012451171875,-0.057494742113351816,-0.003416530445218086,-0.019076419859193266
1761391720075078400,0.880078369140625,-0.057498249244689936,-0.008157605758775026,0.012708200001530348
1761391720085144300,0.890144287109375,-0.05091477920114994,-0.0005531586370430886,0.0236726616082713
1761391720095210200,0.900210205078125,-0.05345803394317627,0.005263820546027273,0.016183255700953303
1761391720105276400,0.9102763671875,-0.07619067475497722,0.005839483275823295,0.0019319909758865833
1761391720115342300,0.92034228515625,-0.08201368182003498,0.015420564232766627,-0.013284757780469954
1761391720125408500,0.930408447265625,-0.08889058185219764,0.017950922960601745,-0.013458799173124134
1761391720135474400,0.940474365234375,-0.058958969447016715,0.016023060170561074,0.008840345592238008
1761391720145540400,0.950540283203125,-0.056716158956289286,0.007384886086918413,0.014368497896566986
1761391720155607600,0.960607666015625,-0.05896130753457546,0.005845785152446478,0.012943835388310253
1761391720165673500,0.970673583984375,-0.0655389323592186,0.0075209152904339134,0.004530665699578822
1761391720175739400,0.980739501953125,-0.06928279506266116,0.0076142743960022925,-0.004455481571517884
1761391720185805300,0.990805419921875,-0.07855214318931102,0.00880605973014608,0.0033968028314411637
1761391720195871200,1.000871337890625,-0.06373509780764579,0.0124317576803267,0.0010472805632278323
1761391720205937400,1.0109375,-0.06088730716109275,0.0030761743086390194,-0.005601875127665698
1761391720216003300,1.02100341796875,-0.06776596075892448,-0.005518891285639256,-0.005367883708700537
1761391720226069500,1.031069580078125,-0.06252046132087707,-0.013451620513666421,-0.008466434245929121
1761391720236135400,1.041135498046875,-0.07253215224742889,-0.004838763534370809,-0.013586553738638757
1761391720246202400,1.051202392578125,-0.06698854664564133,0.0017327786093577742,-0.008574716925993561
1761391720256268300,1.061268310546875,-0.06728080759048462,-0.009603932109568267,-0.017953334113396703
1761391720266334200,1.071334228515625,-0.06591945610940456,-0.008087335267849266,-0.01393828978575766
1761391720276400400,1.081400390625,-0.06052198098003864,-0.011612988643348216,-0.00638283290490508
1761391720286466300,1.09146630859375,-0.060818918099999425,-0.01619511053552851,-0.013530987626500427
1761391720296532500,1.101532470703125,-0.053635144075751304,-0.022975290461257097,-0.018027604926005004
1761391720306598400,1.111598388671875,-0.057680035552382464,-0.012617160717211662,-0.00879741976596415
1761391720316664600,1.12166455078125,-0.06471534101665019,-0.01274696110934019,-0.015786584533564744
1761391720326731500,1.1317314453125,-0.06995265714824199,-0.002467212097439915,-0.018888678734749555
1761391720336797400,1.14179736328125,-0.06336509545147419,0.00010643778285011649,-0.01721179503109306
1761391720346863400,1.15186328125,-0.05512625941634178,0.016263974520657212,-0.004165668312087655
1761391720356929300,1.16192919921875,-0.07128712062239646,0.007082249878533184,-0.0011071209916844963
1761391720366995500,1.171995361328125,-0.07203881577253342,0.006465524485986679,0.005459580580145121
1761391720377061400,1.182061279296875,-0.07518412806093693,0.010808120267558842,0.0016448080649599432
1761391720387127300,1.192127197265625,-0.0656084904640913,-0.0044756658430211245,-0.007560900240950286
1761391720397193500,1.202193359375,-0.062165656533837314,-0.00033774405438452955,-0.011284596939198673
1761391720407259400,1.21225927734375,-0.07099193706810474,0.01243203167496249,0.0057890317302197215
1761391720417326300,1.222326416015625,-0.06694763011336326,0.007743179738987237,0.005564721455052495
1761391720427392500,1.232392578125,-0.06634615708887577,0.004568568290863186,0.010742854745313524
1761391720437458200,1.242458251953125,-0.06992869175076484,0.0029060601724311707,0.01679872071817517
1761391720447524400,1.2525244140625,-0.056762920707464214,-0.0006329458749853074,0.010538199018687008
1761391720457590300,1.26259033203125,-0.06874328135848044,0.0021098317608237264,0.013923055684007703
1761391720467656400,1.272656494140625,-0.061116439741849896,0.005700403598695993,0.015545505786687135
1761391720477722400,1.282722412109375,-0.05424480040669441,0.0011559833684004843,0.02164152110684663
1761391720487788500,1.29278857421875,-0.06366846231222152,-0.007238536418788135,0.014057057327218353
1761391720497854500,1.3028544921875,-0.05737666869163513,-0.01976031047012657,0.01230133623369038
1761391720507921400,1.31292138671875,-0.06066518884301185,-0.011784052627626806,0.0015062398444861172
1761391720517987600,1.322987548828125,-0.058715223819017406,-0.01774531738590449,0.015129326201230286
1761391720528053200,1.33305322265625,-0.07172901917099953,-0.015258651669323444,0.0124850953027606
1761391720538119200,1.343119140625,-0.07008008292019367,-0.013151596387475728,0.001023717024549842
1761391720548185000,1.35318505859375,-0.06767477534413337,-0.011884499061107634,0.0004612243035808205
1761391720558251300,1.363251220703125,-0.07454875276684761,-0.011663604585733263,-0.011869593752920626
1761391720568317200,1.373317138671875,-0.07019874086380004,-0.005085815364308655,-0.010949483233317733
1761391720578383000,1.383383056640625,-0.05117196883261203,0.05025956669542938,-0.025771606648899614
1761391720588449300,1.39344921875,-0.04578618414103985,0.018333145477529615,-0.01785056785866618
1761391720598516200,1.40351611328125,-0.07031506071984768,0.003600782704632729,0.009268325213342905
1761391720608582100,1.41358203125,-0.06101765554249286,-0.03338626463739201,0.02025591196734458
1761391720618648000,1.42364794921875,-0.09841828865408897,-0.10743145179627463,0.010060352373868226
1761391720628714000,1.4337138671875,-0.05187631770968437,-0.12743538003023713,0.011325184677913784
1761391720638780200,1.4437802734375,-0.05739595791399479,-0.00774860483277589,-0.02914480940904468
1761391720648846000,1.45384619140625,-0.09195698368549346,0.05667420124439522,-0.05079995718244463
1761391720658912300,1.463912353515625,-0.05976911678612232,0.07686767896739766,-0.0431894821787253
1761391720668978200,1.473978271484375,-0.07187631868720054,0.029392409228254108,-0.00881922973897308
1761391720679044400,1.48404443359375,-0.07500175723135472,0.01557571826186031,0.004603694403171539
1761391720689111300,1.494111328125,-0.030255437532067296,0.005282470447570085,0.004439261089079082
1761391720699177200,1.50417724609375,-0.034893034204840655,0.016992818518169223,-0.008186448260769247
1761391720709243100,1.5142431640625,-0.06572422579824924,-0.001108637095335871,-0.008113931013830006
1761391720719309000,1.52430908203125,-0.05630524006783962,-0.009077624946832657,0.0004383548846468329
1761391720729375200,1.534375244140625,-0.05765490111112594,-0.007795823241677134,0.004087634639814495
1761391720739441200,1.544441162109375,-0.08040975375473498,-0.0238893730988726,0.021255407866090537
1761391720749507000,1.554507080078125,-0.056177229773998257,-0.024219847162254154,0.021102445794083175
1761391720759573200,1.5645732421875,-0.06261047769188881,-0.021093659699428825,-0.0010528700537979602
1761391720769639200,1.57463916015625,-0.06546294451355934,-0.014522281952481716,-0.0028424934169277547
1761391720779706000,1.5847060546875,-0.08178571828305721,0.012952822412364184,-0.005099040172062814
1761391720789772300,1.594772216796875,-0.07745207299292087,0.03574853678932413,-0.010032989442907272
1761391720799838000,1.604837890625,-0.0849362912684679,0.04030327748423442,-0.011354447305016219
1761391720809904000,1.614904052734375,-0.07148059736788273,0.03438323978548869,-0.006845299317501485
1761391720819970000,1.624969970703125,-0.0726759446322918,0.011063117941934614,-0.019465346111543474
1761391720830036200,1.6350361328125,-0.062352119016647334,-0.012167279791552573,-0.01773337121978402
1761391720840102100,1.64510205078125,-0.06638122840225696,-0.022363369107991457,-0.002337137710675597
1761391720850168300,1.655168212890625,-0.06218143862485885,-0.02807546314448118,0.001585844419337809
1761391720860234200,1.665234130859375,-0.06218436123430728,-0.006445468078646809,0.0005805398343130946
1761391720870301200,1.67530126953125,-0.07401040810644627,0.00987661157110706,-0.009013765930384396
1761391720880367400,1.685367431640625,-0.06951426573097705,0.008016553320270032,0.005052132290415466
1761391720890433000,1.69543310546875,-0.06636953796446322,0.0031813882487826046,0.00120820674598217
1761391720900499200,1.705499267578125,-0.0296060337126255,-0.008313746168557554,0.0009366597956046461
1761391720910565000,1.715565185546875,0.41471009742617604,-0.03596360431211069,-0.03130622522663325
1761391720920631300,1.72563134765625,-1.182967675307393,-0.00989180914023891,0.11690119959954172
1761391720930697200,1.735697265625,0.6098825409144163,0.0006279591726139187,-0.04685425176396966
1761391720940763100,1.74576318359375,0.1640378850340843,-0.02583692697007209,-0.027432562131062148
1761391720950829300,1.755829345703125,-0.6726806501328945,0.07636562946308403,0.03619655455145985
1761391720960896300,1.765896240234375,0.45421150220930573,-0.0032703817064873874,-0.08446695672366768
1761391720970962200,1.775962158203125,-0.2576484811455011,0.00950748599776998,0.05582742995563894
1761391720981028000,1.786028076171875,-0.17830606436133384,0.020815664741955696,0.0027907266970723867
1761391720991094000,1.796093994140625,0.19168752398192881,-0.01648810213273391,-0.02727324338350445
1761391721001160200,1.80616015625,-0.2878963198930025,-0.011333495848532766,0.052276276812702416
1761391721011226000,1.81622607421875,0.02947802341878414,0.005028861012682319,-0.05863441366776824
1761391721021292300,1.826292236328125,-0.04493044409453869,-0.002433912616036832,-0.0030661826375871894
1761391721031358200,1.836358154296875,-0.1632926196247339,0.014506572926696389,0.02033632025979459
1761391721041424400,1.84642431640625,0.006668225717544555,0.016010986140277236,-0.013909502082690596
1761391721051490000,1.856489990234375,-0.10917290690243243,0.017704967109207062,0.014193141329661011
1761391721061557000,1.866556884765625,-0.07176818213760852,-0.00009642784548923372,-0.004686221587471663
1761391721071623200,1.876623046875,-0.024363456884026528,-0.03071540146032348,-0.006566336245648562
1761391721081689000,1.886689208984375,-0.10083587118983268,-0.06079013039693236,0.007860759970359503
1761391721091755300,1.89675537109375,-0.03529460074305534,-0.06038118426986038,-0.006660699998214841
1761391721101821200,1.9068212890625,-0.06867723038494586,-0.04217877076622099,-0.005633841168507933
1761391721111887000,1.91688720703125,-0.08468494685590267,0.02378514553941786,-0.026814649428427217
1761391721121953300,1.926953369140625,-0.049072366204857824,0.030571280281897633,-0.042998526183888316
1761391721132019200,1.937019287109375,-0.08080021437704563,0.005737301542982459,-0.0195127654498443
1761391721142085000,1.947085205078125,-0.04639116429686546,-0.0036256431512534616,0.0032546178817749022
1761391721152152000,1.957152099609375,-0.06929097836911678,-0.004460212545562535,0.011433065499179065
1761391721162218000,1.967218017578125,-0.07796294512450695,-0.0011091668182983993,0.014422748834453523
1761391721172284200,1.9772841796875,-0.04684066163003445,-0.006854761265590786,-0.002497187110595405
1761391721182350000,1.98735009765625,-0.08259294301271439,0.006618230829667299,0.0018079992700368165
1761391721192416300,1.997416259765625,-0.07315992875695228,0.010217004240304231,0.0020495529409497973
1761391721202482200,2.007482177734375,-0.058034840339422224,0.007084423569310456,-0.003261705209687352
1761391721212548400,2.01754833984375,-0.08930033169686794,0.00289221431016922,0.004708871810697019
1761391721222614300,2.0276142578125,-0.06608662936985492,0.00024148060567677018,-0.006569441518187523
1761391721232680200,2.03768017578125,-0.07040799970030784,-0.0029610417626798153,-0.0004840206572785973
1761391721242747100,2.0477470703125,-0.06994505836367607,-0.0036840770739130675,-0.000021736907772719858
1761391721252813000,2.05781298828125,-0.0669417848944664,-0.007685732197016477,-0.0023338132424280044
1761391721262879200,2.067879150390625,-0.06482873826324939,-0.001886489600036293,-0.0002969371199607849
1761391721272945200,2.077945068359375,-0.06630933220982552,0.0026082645359449086,0.004160809473879635
1761391721283011000,2.088010986328125,-0.0643494303137064,-0.0035032223479822275,0.009538009000197053
1761391721293077200,2.0980771484375,-0.06297405030727386,-0.011004793617129326,-0.00238934282194823
1761391721303143200,2.10814306640625,-0.07312602648735046,-0.01712557805236429,-0.00893763195425272
1761391721313209000,2.118208984375,-0.06980068145692347,-0.023400694532785562,-0.011930091768503188
1761391721323275000,2.12827490234375,-0.06528057368397712,-0.01091780945342034,-0.008618190741539002
1761391721333341200,2.138341064453125,-0.07003390569090842,0.00017694573579356073,-0.00013608400244265794
1761391721343408000,2.148408203125,-0.0668541066110134,-0.0019204466685652732,-0.008157002970576286
1761391721353474000,2.15847412109375,-0.0636778146624565,-0.009632007426582276,-0.00778053434100002
1761391721363540200,2.168540283203125,-0.060199324896931646,-0.01186900923103094,-0.0009857596343383192
1761391721373606100,2.178606201171875,-0.0506026445120573,-0.013620675203949212,-0.00673705317005515
1761391721383672300,2.18867236328125,-0.050290509822964666,-0.01830329832853749,0.002793137849867344
1761391721393738200,2.19873828125,-0.05357902997434139,-0.006137607705872505,0.0035308044746518133
1761391721403804200,2.20880419921875,-0.05462064798176288,0.00273046614350751,0.003742657127045095
1761391721413870000,2.2188701171875,-0.0652338119328022,0.013366736975498497,-0.002600939746014774
1761391721423936300,2.228936279296875,-0.06254267315268516,-0.0011447313220240174,0.0013751973433420062
1761391721434003200,2.239003173828125,-0.05999591127932071,0.0007498502529226243,-0.005397365531511604
1761391721444069000,2.249069091796875,-0.0716641372412443,-0.006078059538360684,0.0008778422804549336
1761391721454135300,2.25913525390625,-0.06118892045617103,-0.007385726337134838,0.004247574441879987
1761391721464201200,2.269201171875,-0.06253156723678112,0.010257665044255553,-0.004237674102373421
1761391721474267100,2.27926708984375,-0.07285071667730808,0.005233023548964411,-0.01194671410974115
1761391721484333300,2.289333251953125,-0.06925356896817683,0.0027652634622529148,-0.013844400957226752
1761391721494399000,2.29939892578125,-0.06580781242847442,0.006792728880047798,0.001140913663432002
1761391721504465200,2.309465087890625,-0.05458849927783012,0.0042222208049148315,0.005323642708174884
1761391721514531000,2.319531005859375,-0.059680853980779644,0.003927566973585635,0.006946421604417264
1761391721524597500,2.329597412109375,-0.06237491537034511,0.0057643356803804635,0.00423314405772835
1761391721534664400,2.33966455078125,-0.06791969001591205,0.00007134820315986871,-0.012112353000231087
1761391721544730400,2.34973046875,-0.06627367637455463,0.0007120389931835234,-0.013941102797351777
1761391721554796500,2.359796630859375,-0.07315116092860698,0.004715557279810309,-0.005562785226292908
1761391721564862500,2.369862548828125,-0.06567746404707431,0.0024251447876915333,0.010892748077400028
1761391721574928400,2.379928466796875,-0.05878770453333854,0.01039420570442453,0.007203647768497467
1761391721584994300,2.389994384765625,-0.059088733306527134,0.0009548347731120883,0.011009981248900293
1761391721595060200,2.400060302734375,-0.05818856959640979,-0.00004720014259219169,0.00549110822957009
1761391721605126400,2.41012646484375,-0.07793196546435356,-0.0006574227291159332,-0.0007424158651381731
1761391721615193300,2.420193359375,-0.0825660550057888,0.0004796184767968952,-0.004886164606362581
1761391721625259500,2.430259521484375,-0.06998889750540256,0.007248491557221859,0.0017234993243589996
1761391721635325400,2.440325439453125,-0.07041676752865314,-0.0002437090953812003,-0.0021817279532551762
1761391721645391400,2.450391357421875,-0.059030281117558474,-0.02082850595721975,-0.01136120583936572
1761391721655457500,2.46045751953125,-0.05707271730899811,-0.02201066494649276,-0.007413162333332002
1761391721665523200,2.470523193359375,-0.06185176827907562,-0.019447993117943405,-0.017605945447832345
1761391721675589400,2.48058935546875,-0.06109715051949024,-0.017609671774879095,-0.011411584319733083
1761391721685655300,2.4906552734375,-0.06842647049427032,-0.005575809104647487,-0.006177483058534562
1761391721695721500,2.500721435546875,-0.058255789613723755,-0.0031079759526997804,-0.004288271778449416
1761391721705787400,2.510787353515625,-0.05839724391102791,-0.0007366254451684653,-0.0070690250707790255
1761391721715854300,2.520854248046875,-0.0696212332367897,-0.02268642704989761,-0.008273103630915284
1761391721725920500,2.53092041015625,-0.04926701199412346,-0.021106738376710562,-0.011907989534549414
1761391721735986400,2.540986328125,-0.056601592665910715,-0.014952581394836306,-0.012756203861720859
1761391721746052400,2.55105224609375,-0.05840425817370414,-0.005715710765682161,-0.003076156042329967
1761391721756118300,2.5611181640625,-0.06409457876980304,0.0024701529731974005,0.004137903522327542
1761391721766184400,2.571184326171875,-0.06634323447942733,0.001093293395731598,0.010420710118860005
1761391721776250400,2.58125048828125,-0.05289630840718746,-0.0023353293460793793,0.019854491559602318
1761391721786316300,2.59131640625,-0.03766542152762413,-0.010291037590894848,0.028777108607813715
1761391721796382500,2.601382568359375,-0.04023264166712761,-0.010264240915514528,0.024949951535090803
1761391721806448400,2.611448486328125,-0.034871991416811944,-0.014141265011951327,-0.00003408493269234895
1761391721816515300,2.621515380859375,-0.08053601048290729,0.001614833051804453,-0.03676847268790007
1761391721826581500,2.63158154296875,-0.10312602795362472,-0.0012767784701660275,-0.10765643792487681
1761391721836647200,2.641647216796875,-0.13736673572957514,-0.028233941641822455,-0.14162187242340296
1761391721846713300,2.65171337890625,-0.0980032781124115,0.010228621612861751,-0.035519714735820884
1761391721856779300,2.661779296875,-0.02691606397628784,0.0038808600213378667,0.027861089741438624
1761391721866845400,2.671845458984375,-0.04352525347173214,-0.00896868467964232,0.08257836649809032
1761391721876911400,2.681911376953125,-0.05894903257489204,0.0032465259068645536,0.10117620906010269
1761391721886977500,2.6919775390625,-0.05640928496420383,0.017296094047371296,0.059294923403114076
1761391721897043500,2.70204345703125,-0.062247489598393435,0.04355499102286994,0.0036230493353679775
1761391721907110400,2.7121103515625,-0.08843991547524929,0.02589309587040916,0.005016476455144584
1761391721917176600,2.722176513671875,-0.06002104572057724,0.01964368008682504,0.009708689391985536
1761391721927242200,2.7322421875,-0.0742483085155487,0.023515315622091294,-0.0008261486258357763
1761391721937308400,2.742308349609375,-0.06961714158356189,0.018424550088029353,-0.02109031696487218
1761391721947374300,2.752374267578125,-0.06363046838939189,-0.016575177627988158,-0.030113252582401034
1761391721957440300,2.762440185546875,-0.08187924178540706,-0.029300383563246577,-0.02208257940523326
1761391721967506400,2.77250634765625,-0.07349544432163238,-0.022364191091898827,-0.005191321565397084
1761391721977572400,2.782572265625,-0.06540858397781849,-0.010533650707732885,0.018826317555643617
1761391721987638500,2.792638427734375,-0.06704933692216873,-0.004863550915755331,0.0187181810060516
1761391721997705500,2.80270556640625,-0.05881693062782287,0.0019436996799893677,-0.0026744433736428617
1761391722007771400,2.812771484375,-0.06599485943317412,-0.009467391449399292,-0.01578636533785611
1761391722017837300,2.82283740234375,-0.0625496874153614,-0.012965864557027817,-0.018834427796863017
1761391722027903200,2.8329033203125,-0.05746668506264686,-0.017069646614044903,-0.015190116477757691
1761391722037969400,2.842969482421875,-0.06419920818805694,-0.009753039990365505,-0.004738938155397773
1761391722048035300,2.853035400390625,-0.05672375774085522,-0.016291885440889744,0.011878982635773718
1761391722058101500,2.8631015625,-0.05671732800006866,-0.0005339607462286949,0.0016039280652999878
1761391722068167400,2.87316748046875,-0.0704705435425043,0.012839078105892986,0.004280855656974018
1761391722078233600,2.883233642578125,-0.060597968825697894,0.0073192917711101466,-0.005052241888269781
1761391722088299300,2.89329931640625,-0.06150047062337398,0.0037594986639916893,0.008518639357201754
1761391722098366200,2.9033662109375,-0.06375497155189513,-0.008734656728059053,0.009343326678313314
1761391722108432400,2.913432373046875,-0.06301379779577256,-0.005369893002696335,0.006795651489496231
1761391722118498300,2.923498291015625,-0.05897650510370731,0.0025931217657402155,0.0049150253746658564
1761391722128564500,2.933564453125,-0.06646189242303371,0.010372852389141917,-0.0030411577941849826
1761391722138630400,2.94363037109375,-0.06691314332187176,0.010901442840509116,-0.00439293772932142
1761391722148696300,2.9536962890625,-0.06451835713982582,0.007803202830534428,-0.0059494464563205835
1761391722158762500,2.963762451171875,-0.06736497874259949,-0.001179345977678895,-0.01675827910993248
1761391722168828400,2.973828369140625,-0.0586895048558712,-0.018211290929839013,-0.019353958158940077
1761391722178894300,2.983894287109375,-0.0684182871878147,-0.021861283071059733,-0.027598201021552086
1761391722188960300,2.993960205078125,-0.06527531298696994,-0.021358247186057267,-0.01300700028501451
1761391722199027200,3.004027099609375,-0.06078033965528011,-0.009570139437820762,-0.015234576673991976
1761391722209093400,3.01409326171875,-0.06646364598870277,-0.000002064092922955751,-0.001265270695462823
1761391722219159300,3.0241591796875,-0.05942950956821441,-0.0007476765621453524,-0.0002665419816970825
1761391722229225500,3.0342255859375,-0.06197334883213043,-0.004647387414425611,0.005434847997687757
1761391722239291400,3.04429150390625,-0.0714028559565544,-0.016685451335739343,0.007358253808319568
1761391722249357600,3.054357666015625,-0.05524374831616878,-0.009276271057780831,0.00193703247718513
1761391722259423500,3.064423583984375,-0.04792027356028557,-0.011273838083166628,0.0037602293163537977
1761391722269489400,3.074489501953125,-0.056307578155398365,-0.007601159186102449,0.0012167919112369416
1761391722279555300,3.084555419921875,-0.06933715559840202,0.0028866430859081447,-0.007748239506594836
1761391722289622300,3.094622314453125,-0.06395604708194733,-0.0019607056137174368,0.0059330067781731485
1761391722299688400,3.1046884765625,-0.06844809780418873,-0.001834850744344294,0.008453793960064649
1761391722309754400,3.11475439453125,-0.07190086860656737,0.0009530629411339759,0.005882737895660102
1761391722319820300,3.1248203125,-0.06711889502704144,-0.00040967677943408486,0.004923500942066311
1761391722329886500,3.134886474609375,-0.07490297303199768,0.0012398622595705092,-0.005610314162448048
1761391722339952400,3.144952392578125,-0.0611468348801136,-0.00702989863678813,-0.007767419131100177
1761391722350018300,3.155018310546875,-0.07477028656303882,0.00013811156274750827,-0.0006622633010149001
1761391722360084200,3.165084228515625,-0.06579729103446007,0.004538501946162433,-0.005355754879489541
1761391722370150400,3.175150390625,-0.07267828271985054,0.001441065653786063,0.00905307502746582
1761391722380216300,3.18521630859375,-0.07207739421725273,-0.003256298382207751,-0.009814122527837752
1761391722390283300,3.195283203125,-0.06669219404757022,0.01202920476142317,0.0014514774499461054
1761391722400349400,3.205349365234375,-0.06145487791597843,0.003109126730170101,0.0028992651054635644
1761391722410415400,3.215415283203125,-0.06250701731741427,0.006421977605205029,0.004521057621017098
1761391722420481500,3.2254814453125,-0.06833528507947921,0.004105042432341725,-0.003896422916650772
1761391722430547500,3.23554736328125,-0.0653384413510561,-0.008199271209724248,-0.011013013456203043
1761391722440613400,3.24561328125,-0.06772738231420516,-0.006952138959150761,-0.010772628829069436
1761391722450679300,3.25567919921875,-0.06263561213314534,-0.005285155595000833,-0.007039543247967958
1761391722460745200,3.2657451171875,-0.06532441282570361,0.0017746449897065757,-0.0003197700062766671
1761391722470811400,3.275811279296875,-0.07430325357317924,0.005183065193705261,0.006334171457588672
1761391722480878300,3.28587841796875,-0.0741477707505226,-0.003939604471251368,0.0038990897977724667
1761391722490944500,3.295944580078125,-0.07114625084698199,-0.004042370725981891,0.0022505554057657717
1761391722501010400,3.306010498046875,-0.05603811356425285,-0.010182261720485985,0.01035053095947951
1761391722511076400,3.316076416015625,-0.06337094067037105,-0.0054747964155860245,0.002069682413525879
1761391722521142500,3.326142578125,-0.06007832886576652,-0.002294376281183213,-0.004132131368666887
1761391722531208400,3.33620849609375,-0.05753799673318863,-0.0062268020929768676,0.00004701747950166464
1761391722541274600,3.346274658203125,-0.05484451986551284,-0.004781023731455207,-0.010071166028827428
1761391722551340500,3.356340576171875,-0.07190028408467769,0.005221661904733628,-0.008044884365610778
1761391722561406700,3.36640673828125,-0.07025777757465838,0.0001606156555004418,0.0011552344497293232
1761391722571472600,3.37647265625,-0.059036710858345026,-0.009444266302138566,-0.00011642945390194654
1761391722581539600,3.38653955078125,-0.06382803678810596,-0.005253627945575863,-0.005701316914148628
1761391722591605800,3.396605712890625,-0.06278232712745666,-0.0035537652251310644,-0.007184468143992126
1761391722601671400,3.40667138671875,-0.05395020137429237,-0.006957710183411836,-0.007933423347771168
1761391722611737600,3.416737548828125,-0.06996902376115322,-0.005336611787602305,-0.005876819611527025
1761391722621803500,3.426803466796875,-0.06772329066097736,-0.005471471947338432,0.00020651889014989137
1761391722631869400,3.436869384765625,-0.06128887369930744,0.0010551533424295483,-0.003489303420484066
1761391722641935600,3.446935546875,-0.06308627851009369,-0.002075582431349903,-0.007492328516766429
1761391722652001500,3.45700146484375,-0.06652969696223736,-0.0009779599203728138,-0.004340842215903103
1761391722662067700,3.467067626953125,-0.07357435477674007,0.0038829789131879806,-0.006128017893619835
1761391722672133400,3.47713330078125,-0.07088321599662303,0.013039587380364537,0.0019855843266472217
1761391722682200300,3.487200439453125,-0.0707411771774292,0.010611026792880148,-0.0092554657317698
1761391722692266500,3.4972666015625,-0.06535363892018795,0.0004547945627942681,-0.010062179004773497
1761391722702332400,3.50733251953125,-0.06654314096570015,-0.0020815007154829797,-0.0025312355106696487
1761391722712398600,3.517398681640625,-0.0505418542355299,-0.010654336211644112,0.008897847933135927
1761391722722464500,3.527464599609375,-0.059817047581076616,0.0009509988482110202,0.006941635831445455
1761391722732530700,3.53753076171875,-0.06041559799611568,0.0017024748026393352,-0.0012893091581761837
1761391722742596600,3.5475966796875,-0.05952887828946113,-0.0012739289259538053,0.006958148574829101
1761391722752662800,3.557662841796875,-0.0641658904403448,-0.006773658853396773,-0.0062911360334604975
1761391722762728400,3.567728515625,-0.07119768877327441,-0.007038228073716163,-0.00621587884016335
1761391722772794400,3.57779443359375,-0.06596329525113105,0.0023219401415437457,-0.0011403656741604208
1761391722782861600,3.587861572265625,-0.06865677211880683,-0.00277258825218305,-0.005017170574888587
1761391722792927500,3.597927490234375,-0.07404489489793777,-0.0035889644026756286,-0.004764985912106931
1761391722802993400,3.607993408203125,-0.061624973785877224,0.0022040493829175827,-0.004250570116564632
1761391722813059600,3.6180595703125,-0.07254208911955357,0.0042775677213445305,-0.0000798603031784296
1761391722823125500,3.62812548828125,-0.06745382606983184,0.007484875862672925,-0.0006080488957464694
1761391722833191700,3.638191650390625,-0.06490004993379116,-0.0026847090393304824,-0.001972688312456012
1761391722843257300,3.64825732421875,-0.05756780734956264,-0.006532689704373478,-0.007541611018590628
1761391722853323500,3.658323486328125,-0.06116086340546607,-0.0015485080836340785,0.0092244130063802
1761391722863389400,3.668389404296875,-0.06101122580170631,0.002067417391203344,-0.005008475811779499
1761391722873456400,3.678456298828125,-0.06101999363005161,0.0004795454115606844,0.00043119449149817227
1761391722883522600,3.6885224609375,-0.060414428952336306,0.006086626437306404,0.004012742772698402
1761391722893588500,3.69858837890625,-0.06834229934215545,0.003837861129827797,-0.0009922989729791879
1761391722903654700,3.708654541015625,-0.06519640253186225,0.0039316038278862835,-0.002693732596002519
1761391722913720600,3.718720458984375,-0.061008303192257876,0.0025644984594546255,0.0009744345227256417
1761391722923786800,3.728786865234375,-0.062362640410661696,-0.005559095431864261,-0.00682129738740623
1761391722933852400,3.738852294921875,-0.06341010363698005,-0.002667100317403674,-0.0067245590146630995
1761391722943918600,3.748918701171875,-0.06474924328625202,-0.0011880772734060882,-0.0035077523926272986
1761391722953984500,3.758984619140625,-0.06833119342625141,-0.00813400568747893,-0.0011802958257496356
1761391722964050400,3.769050537109375,-0.06158639534115791,-0.0010073686779476702,-0.0007147972058504819
1761391722974117600,3.77911767578125,-0.05948737723529338,-0.002484583357349038,0.004061586883105337
1761391722984183600,3.78918359375,-0.06711421885192394,0.0023499606596305966,-0.008363046936690807
1761391722994249500,3.79924951171875,-0.06575695902407169,0.0016657595214433967,-0.007678681401722133
1761391723004315600,3.809315673828125,-0.06245908652245998,-0.0020652802330441773,0.0013857187373563647
1761391723014381600,3.819381591796875,-0.0717342798680067,-0.0027539748832583425,-0.002482391400262713
1761391723024447500,3.829447509765625,-0.07592471729516982,0.0033947752711363135,-0.0012782032422721384
1761391723034513400,3.839513427734375,-0.05826105031073093,-0.001339066584035754,0.0009979249961674212
1761391723044579600,3.84957958984375,-0.06259703368842602,0.0008248334515839814,0.0005341799419373274
1761391723054645500,3.8596455078125,-0.06543547198474407,-0.0050067953113466495,-0.0011001067290082574
1761391723064711700,3.869711669921875,-0.05855214221179485,-0.003778166831843555,-0.00008091974910348653
1761391723074778600,3.879778564453125,-0.062295420393347734,-0.006998078726418316,-0.01459156606271863
1761391723084844500,3.889844482421875,-0.06110241121649742,-0.0009148680889047682,-0.012732494192570448
1761391723094910700,3.89991064453125,-0.06873626709580422,-0.011091668182983993,0.0016982187526300549
1761391723104976600,3.9099765625,-0.058113166272640224,-0.0017719781085848807,-0.0069768167426809665
1761391723115042600,3.92004248046875,-0.0802525173664093,0.0006225888777524232,-0.0013473594883456825
1761391723125108500,3.9301083984375,-0.0657388388454914,-0.0011669431538321078,-0.002216945397108793
1761391723135174400,3.94017431640625,-0.06304302389025687,-0.003227054021414369,-0.003227583744376898
1761391723145240600,3.950240478515625,-0.06109773504137993,-0.0015440511042252181,-0.0010138897502794861
1761391723155306500,3.960306396484375,-0.05481821638047695,-0.01342434891425073,-0.006461414566449821
1761391723165372700,3.97037255859375,-0.06543605650663376,-0.0046373044118285175,-0.006187492995895445
1761391723175439600,3.980439697265625,-0.06498480560779571,0.0004541735082864761,-0.00942417336218059
1761391723185505500,3.990505615234375,-0.07246843936145306,0.00353895124848932,-0.006610613778792321
1761391723195571700,4.00057177734375,-0.06438157901763916,-0.0091778339182958,0.008289104917645455
1761391723205637400,4.010637451171875,-0.06257657542228698,-0.010283201344311236,0.005954451425001025
1761391723215703600,4.02070361328125,-0.06466273404657841,-0.00901561082759872,-0.0011160714831203221
1761391723225769500,4.03076953125,-0.06286474471390247,0.0006941562766209244,-0.004003646150790155
1761391723235835600,4.040835693359375,-0.0692985771536827,0.00006975903427228332,-0.0038546661341562864
1761391723245901600,4.050901611328125,-0.06960019044876098,-0.005057685248367488,-0.002088314048759639
1761391723255967700,4.0609677734375,-0.06107552320957183,0.0020630882759578523,-0.009663900402188301
1761391723266033700,4.07103369140625,-0.046862873461842536,0.0015253646700643002,-0.0006516323091462254
1761391723276100600,4.0811005859375,-0.050904842329025264,-0.0002744330272078514,-0.003741086224466562
1761391723286166500,4.09116650390625,-0.065717211535573,0.009920286316052079,0.0048711131677031515
1761391723296232400,4.101232421875,-0.0721527975410223,0.00441602634396404,-0.0012519362898543477
1761391723306298400,4.11129833984375,-0.06212824713289737,0.004204338088352233,-0.005796776645258068
1761391723316364500,4.121364501953125,-0.06272036780714989,0.00258349542086944,0.0005419979222118854
1761391723326430500,4.131430419921875,-0.07513327465653419,-0.00242971136495471,-0.005726853214204311
1761391723336496600,4.14149658203125,-0.06959609879553318,-0.0019086648992262779,-0.005368614361062646
1761391723346562600,4.1515625,-0.06914426337480545,-0.005082655292842537,-0.0013858283352106808
1761391723356628700,4.161628662109375,-0.06360708751380444,-0.004269859338924289,-0.0014792057070881128
1761391723366694400,4.1716943359375,-0.06255261002480983,-0.001506623436976224,0.0007506357042118907
1761391723376761300,4.18176123046875,-0.07152911268472671,-0.0062938942461274565,-0.0007964110746979713
1761391723386827500,4.19182763671875,-0.06300502996742725,-0.0035184564497321843,-0.012377835536003112
1761391723396893400,4.2018935546875,-0.06854395939409733,-0.005665898540895432,-0.0122737906396389
1761391723406959600,4.211959716796875,-0.062408817639946934,-0.008320322039816528,-0.0027344664651900528
1761391723417025500,4.222025634765625,-0.070187634947896,-0.010906393010262399,-0.003049012307077646
1761391723427091700,4.232091796875,-0.06733925977945328,-0.0015833419349975883,-0.009547324817813932
1761391723437157600,4.24215771484375,-0.06883095964193343,-0.0031431568639352916,-0.0012773264594376087
1761391723447223600,4.2522236328125,-0.06628712037801743,-0.00022927871122956273,0.004350669490173459
1761391723457289500,4.26228955078125,-0.0650941112011671,0.000822751092351973,0.002519216279312968
1761391723467355400,4.27235546875,-0.06016016193032264,0.004740143731795251,0.0009651917703449726
1761391723477422600,4.282422607421875,-0.06195932030677795,0.0028455438905395565,0.0037161709789186714
1761391723487488500,4.292488525390625,-0.06674889267086982,-0.006137826901581138,-0.001629354767501354
1761391723497554400,4.302554443359375,-0.062114803129434584,-0.00562666250905022,0.0069917220508679745
1761391723507620600,4.31262060546875,-0.04954933606684207,-0.007270173666067421,-0.002302687451802194
1761391723517686500,4.3226865234375,-0.06691606593132018,-0.00407024511359632,-0.0010361381147056818
1761391723527752400,4.33275244140625,-0.06706219640374184,0.0008084303060546517,0.009516272092424333
1761391723537818400,4.342818359375,-0.07633388261795043,-0.0067018357262015335,-0.003038527445681393
1761391723547884500,4.352884521484375,-0.06750643303990364,-0.0045395796583965415,-0.007556077935360371
1761391723557950500,4.362950439453125,-0.06915010859370231,-0.0005462357059121131,-0.00937624256722629
1761391723568016600,4.3730166015625,-0.06062251874506473,-0.01281582509446889,-0.006179163558967411
1761391723578083600,4.38308349609375,-0.06226736334264278,-0.002861033720616251,0.005219013289920985
1761391723588149500,4.3931494140625,-0.0585281768143177,0.0005704750980250537,-0.004306757283210754
1761391723598215700,4.403215576171875,-0.0675035104304552,0.006941617565136403,-0.004311141197383403
1761391723608281600,4.413281494140625,-0.06465864239335059,0.004300418873969466,-0.0056187531972303984
1761391723618347500,4.423347412109375,-0.06495791760087014,0.005719528424274176,-0.0041881358722224826
1761391723628413400,4.433413330078125,-0.0642138212352991,-0.004592953813448548,-0.007656359972059726
1761391723638479400,4.443479248046875,-0.06885083338618278,0.0007671849802136421,-0.014572788297012447
1761391723648545500,4.453545654296875,-0.06913841815590858,-0.0006105331137776374,-0.005624598416127264
1761391723658611500,4.463611572265625,-0.06270984641313553,-0.012037041008006781,0.00044631899539381264
1761391723668677600,4.473677734375,-0.07034194872677325,-0.013571082174871116,0.00036905250810086724
1761391723678744600,4.48374462890625,-0.074971362093091,-0.00289977656211704,0.0007549100205302238
1761391723688810500,4.493810546875,-0.05820668977499008,-0.00042030777130275964,0.0013918196845799683
1761391723698876700,4.503876708984375,-0.06329670639038086,0.004378616943024099,0.010282909083366393
1761391723708942300,4.5139423828125,-0.06105155781209468,0.008519844933599233,-0.00495846265759319
1761391723719008500,4.524008544921875,-0.051182490226626395,-0.0007568279829807579,-0.006846870220080017
1761391723729074400,4.534074462890625,-0.06959025357663631,-0.0010978782393038272,-0.005377820580825209
1761391723739140600,4.544140625,-0.0719867933243513,0.0061114868839271365,-0.0044274245208129285
1761391723749206500,4.55420654296875,-0.060762803998589514,-0.006683569417148828,-0.006619235476665198
1761391723759272400,4.5642724609375,-0.0719867933243513,-0.010167265080753713,-0.0035609073519706725
1761391723769338600,4.574338623046875,-0.06600596534907817,-0.002512896136380732,-0.002253952939249575
1761391723779405600,4.584405517578125,-0.06061667352616787,-0.011465816991310567,0.004978628662787378
1761391723789471500,4.594471435546875,-0.06884323460161686,-0.0057454665831290185,0.0003270765298977494
1761391723799537400,4.604537353515625,-0.06195815126299858,-0.0025471271995455027,-0.0026139453580603
1761391723809603300,4.614603271484375,-0.07214286066889762,0.001824786008056253,0.005590623081289232
1761391723819669500,4.62466943359375,-0.06929974619746208,0.0016895970547571777,-0.007915376234427094
1761391723829735400,4.6347353515625,-0.06975041257441043,-0.0028894378311932084,-0.00584485357068479
1761391723839801600,4.644801513671875,-0.061383566245436665,0.003367357541248202,-0.0025808833386749028
1761391723849867500,4.654867431640625,-0.06887889043688773,-0.00102357089407742,-0.00016461597718298433
1761391723859933700,4.66493359375,-0.047342181411385534,-0.005515037094429135,0.006734897745586932
1761391723869999400,4.674999267578125,-0.05722936917543411,-0.0027361652319319546,0.005962050209566951
1761391723880066300,4.68506640625,-0.08013093681335448,-0.0009526428160257637,-0.0032223230473697184
1761391723890132500,4.695132568359375,-0.06532149021625519,-0.0050593840151093895,-0.003780577984638512
1761391723900198400,4.705198486328125,-0.06486965479552745,-0.007797174948547035,-0.005775770389847457
1761391723910264600,4.7152646484375,-0.06951075859963894,-0.014779873442742973,-0.00005947510227560997
1761391723920330500,4.72533056640625,-0.06666589056253433,-0.005222045497223734,-0.008774221553467213
1761391723930396700,4.735396728515625,-0.06650865417420863,-0.006947316653560846,-0.007729534806124865
1761391723940462600,4.745462646484375,-0.07818623248636722,0.00982524671005085,-0.009804368318803608
1761391723950528500,4.755528564453125,-0.06741641666889191,0.0016902363755740225,0.0019101444702595471
1761391723960594400,4.765594482421875,-0.0638309593975544,0.002164137497637421,0.013136289220489561
1761391723970660400,4.775660400390625,-0.05874912608861923,0.006649868076946586,0.01525390242896974
1761391723980727600,4.7857275390625,-0.05725976431369781,-0.001746934998873621,0.0057607920164242385
1761391723990793500,4.79579345703125,-0.06474632067680358,-0.0003336524011567235,0.003291442760825157
1761391724000859400,4.805859375,-0.0738864894658327,-0.0014575783971697092,-0.0034203298375010487
1761391724010925600,4.815925537109375,-0.0655167205274105,-0.00044982612673193214,0.0044022535469383
1761391724020991500,4.825991455078125,-0.0664227294564247,-0.0026976233198307453,-0.0038692426487803456
1761391724031057700,4.8360576171875,-0.06733049195110798,-0.009358451182208955,-0.009479629876464606
1761391724041123300,4.846123291015625,-0.07017185285687447,-0.0028162447308190167,0.004898403033427894
1761391724051189500,4.856189453125,-0.06449030008912086,-0.004989844176545739,0.0033197190072387457
1761391724061255400,4.86625537109375,-0.07391396199464798,-0.004783581014722585,0.003594626958481967
1761391724071321600,4.876321533203125,-0.06747603790163993,-0.008950948093552142,0.005100391878932714
1761391724081388500,4.886388427734375,-0.06883154416382313,-0.0015924568232148885,-0.0030156945593655107
1761391724091454500,4.896454345703125,-0.06328560047447682,-0.0019204284022562204,-0.00880410523507744
1761391724101520600,4.906520751953125,-0.0646235710799694,-0.01022294079074636,-0.0004747779048979282
1761391724111586600,4.916586669921875,-0.06850012025237083,-0.0032877712327055632,0.004129902878962457
1761391724121652500,4.926652587890625,-0.06893675810396671,-0.008347958965413273,0.006105806061811745
1761391724131718400,4.936718505859375,-0.07521335415542126,-0.005414663726184517,0.009211224731244146
1761391724141784300,4.946784423828125,-0.07429799287617206,-0.0019403021465055643,0.005628470873646438
1761391724151850500,4.9568505859375,-0.0674035571873188,0.0027599479663185772,0.01538534678891301
1761391724161916400,4.96691650390625,-0.05991115560531616,0.010386186794750393,0.017165362073481082
1761391724171982600,4.976982666015625,-0.05631634598374367,0.00922623963728547,0.004292801823094487
1761391724182048500,4.987048583984375,-0.06544365529119968,0.007663246370572596,0.01225906799454242
1761391724192115500,4.997115478515625,-0.05302607226669788,0.007445037042628973,0.0034346140911802646
1761391724202181600,5.007181640625,-0.05961188039779663,0.00373648311458528,0.0027088570998981595
1761391724212247600,5.01724755859375,-0.06499649604558945,-0.004693655975256115,-0.012729242789559066
1761391724222313500,5.0273134765625,-0.06604220570623874,-0.004913180477451533,-0.007640212554857135
1761391724232379400,5.03737939453125,-0.06050678341090679,-0.0021880115635693072,-0.010489062647335231
1761391724242445600,5.047445556640625,-0.07068155594468116,-0.013110953849833459,-0.010951930918730795
1761391724252511500,5.057511474609375,-0.05467734660506248,-0.00972290058042854,-0.007836392714083195
1761391724262577400,5.067577392578125,-0.058123687666654586,-0.002312806987017393,-0.01345054280143231
1761391724272643600,5.0776435546875,-0.0671072045892477,-0.007309007839113473,-0.007688727871701121
1761391724282709500,5.08770947265625,-0.0739911188840866,-0.0034450806862674653,-0.006313603593595326
1761391724292776700,5.097776611328125,-0.06381576182842254,0.008470160572975874,-0.005804667690768837
1761391724302842600,5.107842529296875,-0.05694178440570831,0.008483275782875716,-0.005074965176731348
1761391724312908300,5.117908203125,-0.05918634846210479,0.00007794234072789549,-0.01373900435399264
1761391724322974500,5.127974365234375,-0.06652209817767143,-0.008511497230362146,-0.00952967956326902
1761391724333040400,5.138040283203125,-0.06263736569881438,-0.012892324396781623,-0.0028606866607442496
1761391724343106600,5.1481064453125,-0.0644406157284975,-0.006850286019872874,-0.002237622858956456
1761391724353172500,5.15817236328125,-0.06803893248140812,-0.0017939524783752857,-0.0024594123834744096
1761391724363238700,5.16823876953125,-0.06579904460012913,0.010255034695751964,-0.0007411006908863782
1761391724373304600,5.1783046875,-0.06220657306611538,-0.0014704196124337612,0.015877769948355852
1761391724383370500,5.18837060546875,-0.07342997786998748,-0.006641684770490974,0.005345562279038131
1761391724393437400,5.1984375,-0.062055766418576234,-0.00001612915089353919,0.0038831615762785075
1761391724403503400,5.20850341796875,-0.07374035899341105,0.0027021533644758164,-0.0015565087269991636
1761391724413569500,5.218569580078125,-0.060576341515779494,-0.002591130738053471,0.008055661487951874
1761391724423635500,5.228635498046875,-0.06507306841313838,-0.0031646928423084315,0.004240377516113222
1761391724433701600,5.23870166015625,-0.07225918052494526,-0.0031752142363227903,0.00944159942101687
1761391724443767600,5.248767578125,-0.07150222467780112,0.0009268873202614486,0.01465246593710035
1761391724453833500,5.25883349609375,-0.06491290941536426,-0.0012051928049884736,0.003282382671535015
1761391724463899600,5.268899658203125,-0.058176294636726376,0.00212612530849874,0.011824695165269076
1761391724473965300,5.27896533203125,-0.06519640253186225,-0.003936206937767565,0.011050788183324039
1761391724484031500,5.289031494140625,-0.06129822604954242,-0.0005181969215162098,0.005744790729694068
1761391724494098400,5.299098388671875,-0.08298223459124565,-0.0019750629326328634,0.020405220777541398
1761391724504164400,5.309164306640625,-0.07026070018410682,0.000010448328778147698,-0.0007966302704066038
1761391724514230500,5.31923046875,-0.06891571531593799,-0.0016257563046179712,0.007487908069975673
1761391724524296400,5.32929638671875,-0.07459902164936065,0.002793996366392821,0.007323072897084057
1761391724534362000,5.339362060546875,-0.06876432414650917,-0.006545439588092267,0.010398900145851075
1761391724544428000,5.349427978515625,-0.06456745697855949,0.0010235526277683675,0.010083696716837584
1761391724554494200,5.359494140625,-0.0681616820782423,-0.00017141104415059087,0.0021006986062973737
1761391724564560100,5.36956005859375,-0.06666413699686527,0.005148742798995226,-0.0011386486411094664
1761391724574626300,5.379626220703125,-0.0675602090537548,0.0007642806370742618,-0.006817278799414635
1761391724584692200,5.389692138671875,-0.066362523701787,0.0033771848155185577,0.000425312739983201
1761391724594758100,5.399758056640625,-0.06426584368348122,0.0020465572662651537,-0.013544139369018375
1761391724604825000,5.4098251953125,-0.066362523701787,0.00421498734652996,-0.0023457594085484743
1761391724614891000,5.41989111328125,-0.059921676999330514,0.0033703166833147407,-0.0100682799519971
1761391724624957200,5.429957275390625,-0.07233283028304577,-0.00041031610025092955,-0.009864756736531853
1761391724635023000,5.440023193359375,-0.0658954907119274,-0.006440664039365947,0.008634155495651066
1761391724645089000,5.450089111328125,-0.06125497142970562,-0.00492403066502884,0.0015380232222378253
1761391724655155200,5.4601552734375,-0.06544131720364094,-0.007065353542659431,0.00103376349452883
1761391724665221000,5.47022119140625,-0.06304243936836719,0.00681090385755524,-0.0029706498412415384
1761391724675287300,5.480287353515625,-0.06303717867136001,0.0034605157174170016,0.0075633113937452435
1761391724685353000,5.49035302734375,-0.0571948823839426,0.0014400975394062696,0.012672105774842202
1761391724695420000,5.500419921875,-0.07395546304881573,-0.004928268448729067,0.0008121931657195091
1761391724705486000,5.510486083984375,-0.05615326437652111,-0.000050542877148836846,-0.002572919227927923
1761391724715552000,5.520552001953125,-0.058546296992897984,-0.013767408464569598,-0.0002588701318949461
1761391724725618200,5.5306181640625,-0.06497545325756073,-0.009922131213266402,-0.006659677084907889
1761391724735684000,5.54068408203125,-0.05659750101268291,-0.010746398409269749,-0.013712043281830847
1761391724745750300,5.550750244140625,-0.06093289986848831,-0.008727313671819866,-0.0013439619548618793
1761391724755816200,5.560816162109375,-0.07918518039584159,-0.0011789989178068935,-0.006160312728025019
1761391724765882000,5.570882080078125,-0.07005085682570934,-0.003865735517442226,-0.0023314020896330473
1761391724775948000,5.580947998046875,-0.06332125630974769,0.0025995332402177153,0.004972564248181879
1761391724786014200,5.59101416015625,-0.06616378625929355,0.0012803769330494105,0.010753485737182199
1761391724796080000,5.601080078125,-0.05629471867382526,0.003035276042670011,0.01939955086633563
1761391724806147000,5.61114697265625,-0.06004325755238533,-0.0008390081074088812,0.009007664983160793
1761391724816213200,5.621213134765625,-0.06917875016629696,-0.004746062015928328,-0.010216675446741283
1761391724826279200,5.631279052734375,-0.06005611703395843,-0.001335340256989002,-0.00180741474814713
1761391724836345000,5.641344970703125,-0.058415364089608186,0.0009234715204685926,0.001787723666988313
1761391724846411300,5.651411376953125,-0.07472703194320202,-0.0057937627042643726,0.0005979293605312705
1761391724856477000,5.661476806640625,-0.07218143911361694,-0.008905008326284587,-0.005604578541405498
1761391724866543000,5.671543212890625,-0.06694295393824577,-0.006424717551562935,0.004744235385023057
1761391724876609000,5.681609130859375,-0.0627501784235239,-0.006190799197833985,-0.009355126713961362
1761391724886675200,5.69167529296875,-0.05736848538517952,0.0030015929687768218,0.003305471286177635
1761391724896741000,5.7017412109375,-0.060513797673583024,0.005289612574409693,0.001105038632452488
1761391724906808000,5.71180810546875,-0.07353577633202076,0.008305252334848046,0.015565635259263216
1761391724916874200,5.721874267578125,-0.07518880423605441,-0.0005103241423144937,0.009490333933569491
1761391724926940200,5.731940185546875,-0.06726093384623527,-0.0030799006356857714,0.00003353694342076778
1761391724937006300,5.74200634765625,-0.06591653349995613,-0.004275320965331048,-0.00572765693180263
1761391724947072000,5.752072021484375,-0.06471826362609863,0.0008669372939504683,-0.0013164528934285044
1761391724957138200,5.76213818359375,-0.06501520074605942,-0.00622499372838065,0.005692731748893857
1761391724967204000,5.7722041015625,-0.05050736744403839,0.005261701654177158,0.00459715506453067
1761391724977270000,5.78227001953125,-0.05619418090879917,0.004404664699733257,0.002506429862976074
1761391724987336200,5.792336181640625,-0.06845978824198246,-0.003096486444305628,-0.011086553616449236
1761391724997402000,5.802402099609375,-0.06007949790954589,-0.0029892449438571928,0.0001632642703130841
1761391725007468300,5.81246826171875,-0.06381576182842254,-0.0058733124801889055,-0.003979936481639743
1761391725017535200,5.82253515625,-0.06935293768942356,0.002654368699993938,0.0022010902408510446
1761391725027601200,5.83260107421875,-0.06471008031964302,-0.0036880773955956098,0.0031640169888734818
1761391725037667000,5.8426669921875,-0.07249182023704051,-0.0027405856787227094,0.0037385654738172885
1761391725047733000,5.85273291015625,-0.06471183388531207,0.006722293992340565,0.0037457989322021604
1761391725057799200,5.862799072265625,-0.07384206580221653,0.0022562910268083213,-0.003972520360164344
1761391725067865000,5.872864990234375,-0.06875672536194324,0.005103643281944095,0.0031256577398627995
1761391725077931300,5.88293115234375,-0.059472179666161536,-0.007143003622442483,-0.0019070391977205872
1761391725087997200,5.8929970703125,-0.06351064140200614,-0.00035734380399808283,-0.004712780800834298
1761391725098063000,5.90306298828125,-0.06351999375224113,-0.009555526390578597,-0.004345993315055966
1761391725108129000,5.91312890625,-0.05589081404805183,-0.006628441696427762,0.0017922537116333841
1761391725118196000,5.923196044921875,-0.06472527788877487,-0.0035531441706232723,-0.008737250543944537
1761391725128262100,5.93326220703125,-0.06756722331643104,0.00459309994392097,-0.008693849793635309
1761391725138328000,5.943328125,-0.0789367585927248,0.002012253137864172,0.003648950961604714
1761391725148394000,5.95339404296875,-0.06741349405944347,-0.0036388496926985678,0.005664857361279428
1761391725158460200,5.963460205078125,-0.06397533630430698,-0.0029591968654654917,-0.003732464526593685
1761391725168526000,5.973526123046875,-0.06802548847794532,-0.009748473413102329,-0.0057705827580764885
1761391725178592300,5.98359228515625,-0.07401274619400501,-0.0015514306930825114,-0.004189524111710489
1761391725188658200,5.993658203125,-0.06592763941586018,-0.0006314115050248801,0.004456248756498098
1761391725198724000,6.00372412109375,-0.061440264868736265,-0.010338237733487039,-0.0004455152777954936
1761391725208790000,6.0137900390625,-0.0704138449192047,-0.0032012619930319487,0.007546981313452124
1761391725218857000,6.02385693359375,-0.07385141815245151,-0.009955120167415588,0.0050189606731757515
1761391725228923100,6.033923095703125,-0.06561433568298816,-0.005970945902075618,0.0044152591589838265
1761391725238989000,6.043989013671875,-0.07129881106019019,0.000370185019262135,-0.003181698776036501
1761391725249055200,6.05405517578125,-0.06726210289001465,0.004315744307264686,0.012271123758517206
1761391725259121200,6.06412109375,-0.06142915895283222,-0.0019805428253486753,0.008199855731613933
1761391725269187300,6.074187255859375,-0.06382452965676784,0.001867748366948217,0.006936996188946068
1761391725279253200,6.084253173828125,-0.06816402016580105,-0.0027965536496601996,-0.0017022373406216501
1761391725289319000,6.09431884765625,-0.06277355929911137,0.0020379721010103822,0.0018923165526241062
1761391725299385000,6.104385009765625,-0.06098959849178791,0.0016768837036564945,0.011602942173369228
1761391725309451000,6.114450927734375,-0.05739595791399479,0.003491659774351865,-0.0007636047836393117
1761391725319517200,6.12451708984375,-0.06398235056698322,0.00021311302771791815,0.00018646248281002043
1761391725329584000,6.134584228515625,-0.06578560059666633,0.002145743324421346,-0.0004791252864524722
1761391725339650000,6.144650146484375,-0.058601242050528524,0.0060216349096968765,-0.003350406406447291
1761391725349716200,6.15471630859375,-0.07551087579727173,0.0022352299724705516,-0.001056304119899869
1761391725359782100,6.1647822265625,-0.07221767947077751,-0.002302815315965563,0.0061279448283836245
1761391725369849000,6.17484912109375,-0.06473872189223766,-0.00028957579741254445,-0.010758052314445377
1761391725379915300,6.184915283203125,-0.058903439867496486,-0.004238715281989425,-0.000673698010481894
1761391725389981000,6.19498095703125,-0.06503799709975719,-0.0028531792077235874,-0.005837035590410232
1761391725400047000,6.205047119140625,-0.06115677175223827,0.002035487882979214,-0.0002510156190022826
1761391725410113000,6.215113037109375,-0.06534370204806328,0.003483330337423831,-0.001654744937084615
1761391725420179200,6.22517919921875,-0.05815758993625641,0.0036987266537733374,0.002221804235316813
1761391725430245000,6.2352451171875,-0.06370061101615429,0.004063303916156291,-0.00019734920300543306
1761391725440311300,6.245311279296875,-0.07372925307750701,-0.005574256468378007,-0.0043874578366056086
1761391725450378200,6.255378173828125,-0.06774959414601325,-0.00400739074414596,-0.000972425228729844
1761391725460444200,6.265444091796875,-0.06400748500823975,-0.00026382030164822935,-0.005510726245492696
1761391725470510300,6.27551025390625,-0.058922144567966454,0.0003628784956410527,0.009359035704098642
1761391725480576000,6.285575927734375,-0.06850479642748833,-0.0012462920003570616,0.006939626537449658
1761391725490642200,6.29564208984375,-0.07284311789274216,-0.008873224948532878,-0.004456102626025677
1761391725500708000,6.3057080078125,-0.06909867066740989,-0.007193217706028371,0.0010667159160599113
1761391725510774000,6.31577392578125,-0.06640460927784443,-0.003989544560201466,0.001752287027426064
1761391725520840200,6.325840087890625,-0.06595335837900639,-0.0038606940161436793,-0.0035593364493921396
1761391725530906000,6.335906005859375,-0.057274377360939974,-0.008104048940632491,0.005464877809770405
1761391725540972300,6.34597216796875,-0.06190905142426491,-0.006706621499173343,0.010678447739593684
1761391725551039200,6.356039306640625,-0.06384498792290687,0.0012222900702618061,0.006487864181958139
1761391725561105200,6.366105224609375,-0.05620411778092384,-0.003927987098693847,0.011042933670431375
1761391725571171300,6.37617138671875,-0.05500350981950759,-0.002052767811343074,0.012489661880023777
1761391725581237200,6.3862373046875,-0.06727554689347744,-0.00538187570143491,0.006890051774680614
1761391725591303400,6.396303466796875,-0.06294482421278953,-0.0024443974774330853,0.004540602571703493
1761391725601369300,6.406369384765625,-0.06758534349501133,0.0013084887826815246,-0.01188150338642299
1761391725611435500,6.416435546875,-0.07147182953953743,0.0039633872056379915,-0.009719649177417158
1761391725621501200,6.426501220703125,-0.06533084256649017,0.005761723598185926,-0.005264605997316539
1761391725631567400,6.4365673828125,-0.07146072362363338,0.0029598909852094945,-0.002788461674749851
1761391725641633300,6.44663330078125,-0.06920563817322253,0.0069944985298439856,-0.0025170243222266435
1761391725651699200,6.45669921875,-0.06575462093651294,0.003876530906092375,0.004952471308223903
1761391725661766400,6.466766357421875,-0.05617138455510139,0.006098444739263504,0.007305318044684827
1761391725671832300,6.476832275390625,-0.05362812981307506,0.0026361023909412325,0.009444996954500675
1761391725681898200,6.486898193359375,-0.059468672534823415,-0.005871887708082795,0.010159063507989048
1761391725691964400,6.49696435546875,-0.06410568468570708,-0.0051115343274548645,0.003963021879456937
1761391725702030000,6.507030029296875,-0.061412792339920995,0.00417123953634873,-0.00005969429798424243
1761391725712096300,6.51709619140625,-0.06964812124371528,0.0012541282469406723,0.002419957155920565
1761391725722162200,6.527162109375,-0.06650339347720145,-0.0049244325238279995,0.009573957096412778
1761391725732228400,6.537228271484375,-0.06665186203718185,0.0018510346941649912,0.006480374995246529
1761391725742294300,6.547294189453125,-0.05903086563944816,-0.001234711160417646,0.004523468773812055
1761391725752360400,6.5573603515625,-0.06950958955585956,-0.004766008825413883,-0.003497778987884521
1761391725762427400,6.567427490234375,-0.06502279953062534,-0.005174571359995752,-0.006604330168478191
1761391725772493300,6.577493408203125,-0.055445408368110655,-0.014867131601087748,-0.00022127806786447762
1761391725782559500,6.5875595703125,-0.06950725146830082,-0.01480888034151867,0.005283602958731353
1761391725792625200,6.597625244140625,-0.06890928557515144,-0.009926935252547264,-0.016352438255399466
1761391725802691300,6.60769140625,-0.0644189884185791,-0.010368285811878741,-0.015475217029452324
1761391725812757200,6.61775732421875,-0.06576163519918918,-0.02092937251580879,-0.01207180179413408
1761391725822823200,6.6278232421875,-0.07368482941389083,-0.021285236748773605,0.0009124386698007583
1761391725832889300,6.637889404296875,-0.06919219416975975,-0.015209697961062193,0.00864551713988185
1761391725842955300,6.647955322265625,-0.07068330951035022,-0.01264150970717892,0.00994757618177682
1761391725853021400,6.658021484375,-0.07411737561225891,-0.007252016954869031,0.006113879770413041
1761391725863088400,6.66808837890625,-0.05405424627065658,-0.013192841713316738,0.004052636391669511
1761391725873154300,6.678154296875,-0.05718494551181793,-0.0011876206156797707,0.005154533218964934
1761391725883220200,6.68822021484375,-0.06869827317297458,-0.005030176186934113,0.011254347931407392
1761391725893286100,6.6982861328125,-0.06928747123777866,-0.0010306947546079755,0.016810009297169744
1761391725903352300,6.708352294921875,-0.07106558682620524,0.001172770106419921,0.007796243366785347
1761391725913418200,6.718418212890625,-0.056090136012434955,0.0069380191022530196,0.007654862134717404
1761391725923484400,6.728484375,-0.053230070406198496,0.002075600697658956,0.007813742490857839
1761391725933550300,6.73855029296875,-0.06399813265800476,0.01761496900450438,0.018420768962055443
1761391725943616500,6.748616455078125,-0.05113163682222366,0.012949205683171748,0.029897564005106687
1761391725953682200,6.75868212890625,-0.06221124924123287,0.00896800882620737,0.021351525184325874
1761391725963748000,6.768748046875,-0.06969897464811801,0.00631201442470774,0.006659640552289784
1761391725973815300,6.778815185546875,-0.06042553486824035,0.010893588327616452,-0.0016917890118435025
1761391725983881200,6.788881103515625,-0.07390227155685425,-0.004284892511274665,-0.011809314933046699
1761391725993947400,6.798947509765625,-0.06762684454917907,-0.012438552747294307,-0.024303360727243123
1761391726004013300,6.809013427734375,-0.0673339990824461,-0.015927582173142583,-0.03198865453284234
1761391726014079200,6.819079345703125,-0.06179740774333477,-0.013266546270344405,-0.02148490577302873
1761391726024145400,6.8291455078125,-0.07242109308838844,-0.017435612115915863,-0.02077686710152775
1761391726034211300,6.83921142578125,-0.06329203021526336,-0.009347107804287224,-0.02291325807571411
1761391726044277200,6.84927734375,-0.07016893024742603,-0.007754797111544758,-0.01585391414873302
1761391726054343200,6.85934326171875,-0.06177753399908542,-0.002944894345477223,-0.006221029939316213
1761391726064409300,6.869409423828125,-0.05847966149747371,0.0004251848758198321,-0.0004944324534386397
1761391726074476300,6.879476318359375,-0.060420274171233176,0.006502513761818408,0.005711765242926776
1761391726084542200,6.889542236328125,-0.06580664338469505,0.006757821963448077,0.012457586241327225
1761391726094608400,6.8996083984375,-0.06969429847300052,0.012124554894678294,0.016411219237931072
1761391726104674300,6.90967431640625,-0.0632598815113306,0.003124214701447636,0.0158308255340904
1761391726114740500,6.919740478515625,-0.05789046343266964,0.0036023901398293673,0.015167795048095284
1761391726124806400,6.929806396484375,-0.05011690682172775,0.007890205260552466,0.012303162864595651
1761391726134872300,6.939872314453125,-0.07092237896323203,0.00000776318134739995,0.00630560295023024
1761391726144938200,6.949938232421875,-0.07153495790362357,-0.01051315590897575,0.003650193070620298
1761391726155004200,6.960004150390625,-0.06167232005894184,-0.012869674173556268,0.005081504515372217
1761391726165070300,6.9700703125,-0.059737552604079244,-0.004659406645782292,0.0024275194078683853
1761391726175136300,6.98013623046875,-0.06378536669015884,-0.012440233247727155,0.0018869462577626108
1761391726185203200,6.990203125,-0.06753449009060859,-0.016144366728980092,-0.007049699315801262
1761391726195269400,7.000269287109375,-0.07651742249131202,-0.0046659094518050545,-0.013734401244111358
1761391726205335300,7.010335205078125,-0.051527942663431164,-0.0027834567060694097,-0.01559394803829491
1761391726215401500,7.0204013671875,-0.05990764847397804,-0.0021751520819962024,0.007113996723666787
1761391726225467100,7.030467041015625,-0.054822892555594444,0.001275572893768549,0.01512961846217513
1761391726235533300,7.040533203125,-0.05573474670350551,-0.0009175167037174105,0.013109766539745032
1761391726245599200,7.05059912109375,-0.06846855607032776,0.0021514789454638956,0.007185564122535288
1761391726255665400,7.06066552734375,-0.06967617829442024,-0.000082070526573807,-0.008073452872969209
1761391726265731300,7.0707314453125,-0.07537000602185726,0.0007493387962691485,-0.002840739851258695
1761391726275797200,7.08079736328125,-0.06534779370129108,0.00396499464083463,-0.01255213265698403
1761391726285864400,7.090864501953125,-0.0559270544052124,-0.00436762062497437,-0.002381670972146094
1761391726295930400,7.100930419921875,-0.05323474658131599,-0.015130221250373868,0.012019523617625236
1761391726305996300,7.110996337890625,-0.05384381839036941,-0.014439371175691485,0.010294416858069599
1761391726316062200,7.121062255859375,-0.052958267727494235,-0.009770411250274627,0.01333718208745122
1761391726326128000,7.131128173828125,-0.07002747595012188,-0.00003147285049781203,0.0040504444345831865
1761391726336194300,7.1411943359375,-0.0737730922192335,-0.005033336258400231,-0.003982895623706281
1761391726346260200,7.15126025390625,-0.06913666459023952,-0.002159095996338874,-0.013694946016557514
1761391726356326400,7.161326416015625,-0.06794248636960983,-0.013866357060708105,-0.015064371206238865
1761391726366392300,7.171392333984375,-0.06180676009356975,-0.01431707823658362,-0.013141221123933792
1761391726376458500,7.18145849609375,-0.054474517509341236,-0.0005178681279532612,-0.005831847958639264
1761391726386524200,7.191524169921875,-0.06645254007279873,0.008263075427245348,0.00864526141155511
1761391726396591000,7.201591064453125,-0.05853051490187645,0.013971205674670636,0.01607405970543623
1761391726406657300,7.2116572265625,-0.06751520086824894,0.009248579333256929,0.010224895285815
1761391726416723200,7.22172314453125,-0.06079962887763977,0.002637417565193027,0.013814846069179475
1761391726426789400,7.231789306640625,-0.055120998719334596,0.0022658260401338336,0.01260978112835437
1761391726436855300,7.241855224609375,-0.06291852072775364,-0.004020049296319484,-0.0021553514029830695
1761391726446921500,7.25192138671875,-0.07399930219054221,-0.010340831549372523,-0.00504190315734595
1761391726456987400,7.2619873046875,-0.072662500628829,-0.003961743237823247,-0.013066329256817697
1761391726467053300,7.27205322265625,-0.0671288318991661,0.003574095627106726,-0.013801365533098577
1761391726477119200,7.282119140625,-0.0784966136097908,-0.00033608182026073337,0.010014321275055409
1761391726487185200,7.29218505859375,-0.061441433912515636,-0.004370470169186592,-0.0008027677502483129
1761391726497251300,7.302251220703125,-0.06608019962906837,0.005087075739633292,-0.002173983038216829
1761391726507318300,7.312318359375,-0.060842883497476574,-0.003225519651453942,-0.0062738561050966375
1761391726517384200,7.32238427734375,-0.059949149528145784,0.0025064115966670214,-0.0010875395083799959
1761391726527451000,7.332450927734375,-0.05875204869806766,-0.00024800167800858615,0.0034754575582221147
1761391726537516800,7.342516845703125,-0.07012509110569953,-0.0014489749656058848,0.004233582449145614
1761391726547583000,7.3525830078125,-0.05395721563696861,-0.004957348412740975,-0.004282390026934445
1761391726557649000,7.36264892578125,-0.06293430281877517,0.0030915728071704506,0.005141710270009934
1761391726567714800,7.37271484375,-0.05874854156672954,0.000992591233924031,0.010351078948751091
1761391726577781000,7.382781005859375,-0.06174830790460109,0.004903809860907495,0.015347498996555804
1761391726587847000,7.392846923828125,-0.06444470738172531,-0.008350169188808649,0.008911291936598717
1761391726597912800,7.402912841796875,-0.06713993781507015,-0.010355225400906056,0.004236030134558678
1761391726607978800,7.412978759765625,-0.0640045623987913,-0.013066603251453488,-0.0028652167053893206
1761391726618045700,7.423045654296875,-0.07223521512746811,-0.0186189584152773,-0.011363470861688256
1761391726628112000,7.43311181640625,-0.06429974595308303,-0.0232969784299843,-0.009818287246301769
1761391726638177800,7.443177734375,-0.06863280672132968,-0.019727540711686014,-0.01375540749952197
1761391726648244000,7.453243896484375,-0.07086801842749119,-0.014008998668100684,-0.009441782084107399
1761391726658310000,7.463309814453125,-0.06727145524024963,-0.0037127369128167626,0.011822868534363805
1761391726668376000,7.4733759765625,-0.07310615274310112,-0.002146875835582614,0.00363123264182359
1761391726678441700,7.483441650390625,-0.06307926424741744,0.0008414557928219437,0.014966902181133628
1761391726688508000,7.4935078125,-0.05978314531147479,0.009205580441746861,0.0131939376918599
1761391726698573800,7.50357373046875,-0.05978314531147479,0.0007998816734179854,0.004996821906603872
1761391726708639700,7.5136396484375,-0.05918751750588417,-0.0006571670007891953,-0.0007889949532225727
1761391726718706000,7.523705810546875,-0.06068973876237869,-0.009301624694745988,0.0002126563699916005
1761391726728772900,7.53377294921875,-0.07160919218361378,-0.00933169103944674,-0.004668758996017277
1761391726738838800,7.5438388671875,-0.07386018598079681,-0.007887958504538982,0.005013298117369413
1761391726748905000,7.553905029296875,-0.07400631645321845,-0.003732464526593685,0.0053955389006063335
1761391726758971000,7.563970947265625,-0.07504968802630901,-0.0002907448411919176,0.0006312105756253004
1761391726769036800,7.574036865234375,-0.06921265243589877,0.0036098975928500294,0.0053932008130475875
1761391726779102700,7.584102783203125,-0.05784194811582565,-0.00031363252643495796,0.00040328357126563787
1761391726789169000,7.5941689453125,-0.06202712484598159,-0.00933046719674021,0.000595664338208735
1761391726799234800,7.60423486328125,-0.07459609903991223,-0.0008007036573253572,-0.0015196473153308034
1761391726809301000,7.614301025390625,-0.07055062304139137,-0.000043747810181230304,-0.002439246378280222
1761391726819367000,7.624366943359375,-0.07174597030580043,-0.003404931338969618,-0.0042144393572583795
1761391726829433900,7.634433837890625,-0.05961889466047287,-0.0037907888513989746,0.0021115122612565753
1761391726839500000,7.6445,-0.07069149281680584,-0.0023408457714132963,0.006650653528235852
1761391726849566000,7.65456591796875,-0.06768705030381679,-0.006731774206738919,-0.000972680957056582
1761391726859631900,7.6646318359375,-0.07127075400948524,-0.017893785945884883,-0.0021637904377654195
1761391726869697800,7.67469775390625,-0.06183540166616439,-0.011226199549157172,0.005434884530305862
1761391726879764000,7.684763916015625,-0.07034370229244231,-0.006323485666792839,0.005707856252789497
1761391726889830000,7.694829833984375,-0.05551379742920398,0.000728697867039591,0.012517061343602835
1761391726899895800,7.704895751953125,-0.05729717371463775,0.0007328991181217133,0.002425181320309639
1761391726909962000,7.7149619140625,-0.06148059687912464,-0.011814228570181875,0.005803169853426516
1761391726920028000,7.72502783203125,-0.058030748686194414,-0.018665354840271174,0.005041939689964056
1761391726930093800,7.73509375,-0.055769818016886706,-0.004649013115931302,0.001449029764533043
1761391726940161000,7.7451611328125,-0.05769990929663181,-0.005444145548995584,0.002535473294369876
1761391726950226700,7.755226806640625,-0.05559270788431167,-0.002519545072875917,-0.006917487770877778
1761391726960292900,7.76529296875,-0.06186345871686935,-0.006355415175016969,-0.001252228550799191
1761391726970358800,7.77535888671875,-0.06769114195704459,-0.006447696568351239,0.008912607110850512
1761391726980425000,7.785425048828125,-0.05840016652047634,-0.008974749094247817,-0.0020162351932376623
1761391726990491000,7.795490966796875,-0.05404957009553909,-0.005117945801932365,-0.007277553254924714
1761391727000557000,7.80555712890625,-0.06286474471390247,-0.0070866520590148864,-0.0022721461830660697
1761391727010623000,7.815623046875,-0.0643494303137064,-0.00293508533751592,-0.005719327494874596
1761391727020689000,7.82568896484375,-0.06434767674803733,-0.006123140789102762,0.005186901118606329
1761391727030754800,7.8357548828125,-0.06987140860557556,-0.013646850824821739,-0.0024979542955756184
1761391727040820700,7.84582080078125,-0.06462006394863128,-0.014808387151174246,-0.007173691021651029
1761391727050888000,7.855887939453125,-0.06101882458627224,-0.004416665664780885,-0.001407053786329925
1761391727060953900,7.865953857421875,-0.05892156004607677,-0.004219809652119874,-0.00061608607172966
1761391727071019800,7.876019775390625,-0.062356210669875144,0.0037231669752858577,0.0037819662241265176
1761391727081086000,7.8860859375,-0.0637000264942646,0.0068038530622608956,0.005705591230466962
1761391727091152000,7.89615185546875,-0.07027998940646649,-0.0009641871233470737,-0.0011786883905529975
1761391727101218000,7.906218017578125,-0.0684837536394596,-0.003561181346606463,-0.006098645668663084
1761391727111283700,7.91628369140625,-0.07102467029392719,-0.006991922980267554,-0.012627316785044968
1761391727121350000,7.926349853515625,-0.06863222219944,-0.012518540914636105,-0.0074973700180649755
1761391727131415800,7.936415771484375,-0.06937690308690071,-0.010825290598068386,-0.012441767617687583
1761391727141482000,7.94648193359375,-0.06458265454769134,-0.0035521577899344263,-0.007181034077890217
1761391727151548000,7.9565478515625,-0.07131108601987361,-0.0008604527542367577,-0.0005942030334845185
1761391727161614800,7.96661474609375,-0.06801204447448253,-0.0041390908324159675,0.0018545418255031109
1761391727171681000,7.976680908203125,-0.06531389143168925,-0.004748363570868969,-0.00008800707701593637
1761391727181747000,7.986746826171875,-0.05513619628846645,-0.005118365927040577,0.00038012189138680695
1761391727191813000,7.996813232421875,-0.06680792938172816,-0.003135192753188312,0.003934234176389873
1761391727201878800,8.006878662109376,-0.06396949108541011,-0.006699132312461734,0.0068964084502309555
1761391727211944700,8.01694482421875,-0.06457388671934604,-0.014716105757839977,-0.00047229368686676023
1761391727222011000,8.027010986328126,-0.06832476368546485,-0.012277681363467127,-0.006629610740207135
1761391727232076800,8.037076904296875,-0.05291325954198837,-0.012276512319687754,0.0037202626321464773
1761391727242143000,8.04714306640625,-0.07071838082373141,-0.019174181145243347,-0.0008191708957776426
1761391727252209000,8.057208984375,-0.07086918747127055,-0.016319431034941226,0.0009975596699863672
1761391727262275000,8.067275146484375,-0.0723620563775301,-0.006241506471764296,0.005339717060141265
1761391727272342000,8.077342041015624,-0.07684884640276432,-0.009490352199878543,-0.0048079117383807895
1761391727282407700,8.08740771484375,-0.07250526424050331,-0.005381565174181014,-0.004872099548391997
1761391727292473900,8.097473876953124,-0.06531622951924801,0.004203260376118123,-0.007633234824799001
1761391727302539800,8.107539794921875,-0.0696522128969431,0.003114314361941069,-0.0015621712828055023
1761391727312606000,8.11760595703125,-0.06112345400452614,0.0013976649034768342,0.008270217554084957
1761391727322671900,8.127671875,-0.05678688610494136,0.003706946492847055,0.0068003276646137235
1761391727332738000,8.137738037109376,-0.06696575029194354,-0.0010938779176212846,0.0010797945933416486
1761391727342804000,8.147803955078125,-0.060687400674819945,-0.004341043145302683,-0.00640281624700874
1761391727352870000,8.157869873046875,-0.061142743226885794,-0.0020901772122830153,-0.009667188337817788
1761391727362935800,8.167935791015625,-0.07714461447894573,-0.010676310581434518,-0.0027451705222949385
1761391727373001700,8.178001708984375,-0.06052665715515613,-0.009343070949986576,0.0019226020930334924
1761391727383068700,8.188068603515624,-0.062170917230844495,-0.011821790822129696,0.007182970306649804
1761391727393134800,8.198134765625,-0.0693511841237545,-0.013808544192556291,-0.003786277073062956
1761391727403200800,8.20820068359375,-0.06560556785464286,-0.009126651720330118,-0.004870163319632411
1761391727413267000,8.218266845703125,-0.06754384244084358,-0.0011013671043328941,0.005295293396525085
1761391727423332900,8.228332763671874,-0.05886135429143905,-0.005801014428958296,-0.000295256619527936
1761391727433399000,8.23839892578125,-0.05511047732532024,0.0030023784200660882,0.0034590909453108905
1761391727443465000,8.24846484375,-0.06662614307403564,-0.009613320992421358,0.009899060864932835
1761391727453531000,8.25853076171875,-0.07530337052643299,-0.00014466916769742964,-0.003837057412229478
1761391727463596800,8.2685966796875,-0.058840311503410334,-0.0067846186388283965,-0.0005479162063449621
1761391727473663000,8.2786630859375,-0.06018938802480697,-0.0022143881138414145,0.00228193692471832
1761391727483729000,8.28872900390625,-0.06677227354645729,0.008854008791409433,-0.00043393443785607813
1761391727493795800,8.2987958984375,-0.07005027230381965,-0.004108933156169951,-0.0024286884516477583
1761391727503862000,8.308862060546875,-0.06466974830925465,0.0006629208881407976,0.0010743877658620476
1761391727513928000,8.318927978515624,-0.05824000752270221,-0.0004165266453288495,-0.0015712679047137498
1761391727523993000,8.3289931640625,-0.05674889218211174,-0.007263652593735605,-0.005613930891640484
1761391727534059000,8.33905908203125,-0.0658744479238987,-0.009166216545738279,-0.002761829396151006
1761391727544125200,8.349125244140625,-0.059302668318152424,-0.013131613045372068,-0.009317826910875737
1761391727554191000,8.359191162109376,-0.07306523621082306,-0.012780351922288536,-0.012949972868151962
1761391727564257000,8.369257080078125,-0.06826981862783432,-0.016661686867661774,-0.009122085143066942
1761391727574323000,8.379322998046876,-0.06108312199413776,-0.009301076705474406,-0.008980521247908473
1761391727584388900,8.389388916015625,-0.06227437760531902,-0.007367770555336028,-0.0019922332631424067
1761391727594456000,8.3994560546875,-0.0636170243859291,-0.016705635607242583,-0.0010132321631535887
1761391727604522000,8.40952197265625,-0.07483283040523529,-0.008764467344433069,0.0029497166510671375
1761391727614588000,8.419587890625,-0.06375263346433639,-0.0031192097327671945,-0.0008174903953447937
1761391727624654000,8.429654052734374,-0.06659808602333069,-0.002508183428645134,0.002528459031693637
1761391727634720000,8.439719970703125,-0.06554828470945358,-0.005651230694726109,0.009320932183414697
1761391727644786200,8.4497861328125,-0.06210194364786148,-0.008328267884254455,0.01887454061154276
1761391727654852000,8.45985205078125,-0.06763795046508311,0.0005382167962379753,0.012390147028304635
1761391727664918000,8.46991796875,-0.06763678142130375,-0.0009207498404197394,0.01083301724679768
1761391727674984000,8.47998388671875,-0.061948214390873904,-0.003941431102156639,0.010634827793575823
1761391727685050000,8.490050048828126,-0.06703413935303687,0.00356426835283637,-0.002906790824793279
1761391727695116000,8.500115966796875,-0.06478256103396415,-0.005967603167518973,0.005061557705886662
1761391727705183000,8.510182861328126,-0.06926935105919838,-0.007235796472430229,-0.0001949380502104759
1761391727715249200,8.520249267578125,-0.07316168232262134,-0.006111048492509871,0.0059176630785688755
1761391727725315000,8.530315185546876,-0.06507540650069714,-0.007999547386541963,-0.004647058620862662
1761391727735381200,8.54038134765625,-0.0644797786951065,-0.018167798847984522,-0.008018544347956777
1761391727745447200,8.550447265625,-0.05835457381308078,-0.01661233130060136,-0.00355582931805402
1761391727755512800,8.560512939453124,-0.06463876864910126,-0.009715009534917772,-0.009576916238479316
1761391727765579000,8.5705791015625,-0.05999591127932071,-0.013875946872960775,0.0031306261759251356
1761391727775645000,8.58064501953125,-0.06717033295333386,-0.006084690208546817,0.0008942819586023687
1761391727785711000,8.590711181640625,-0.06686988870203495,-0.004991360280197113,0.0003738017484545707
1761391727795777000,8.600777099609376,-0.06252747558355332,-0.0023415033585391935,-0.0032634953079745174
1761391727805843200,8.61084326171875,-0.05624328074753284,-0.002633271113038063,-0.003706343704648316
1761391727815910100,8.62091015625,-0.06476502537727355,-0.011689962869696318,0.00121839934643358
1761391727825976000,8.63097607421875,-0.0728366881519556,-0.002357742107287049,-0.0008685264628380537
1761391727836042000,8.6410419921875,-0.06909048736095429,-0.0016175364655442535,0.0063099503317847845
1761391727846108000,8.65110791015625,-0.07267886724174022,-0.008358608223591,0.001858743076585233
1761391727856174000,8.661174072265625,-0.0701309363245964,0.001740486991778016,-0.00492470651846379
1761391727866240000,8.671239990234374,-0.06010872400403022,0.003693228494748473,0.00028754823710769415
1761391727876306200,8.68130615234375,-0.0614648147881031,0.0010068937539122998,0.013140490471571684
1761391727886372000,8.6913720703125,-0.059820554712414736,0.0002773373703472316,0.00494779513310641
1761391727896438000,8.70143798828125,-0.058770168876647946,-0.004798248860891908,-0.001573058003000915
1761391727906504200,8.711504150390626,-0.061470660006999966,-0.0054002698746509845,0.009414894077181815
1761391727916569900,8.72156982421875,-0.06072890172898769,-0.017105521645024418,-0.00007028875723481178
1761391727926637000,8.731636962890626,-0.07270458620488643,-0.014655114551912993,-0.004596059085987508
1761391727936703000,8.741702880859375,-0.07539806307256221,-0.00893337590424344,-0.006572035334073007
1761391727946769000,8.751768798828126,-0.059983636319637296,-0.010485464184451848,-0.0007444251591339707
1761391727956835000,8.7618349609375,-0.059085226175189014,-0.017911613863520325,-0.0012722118929028511
1761391727966901000,8.77190087890625,-0.06641162354052066,-0.0076048855131492015,-0.0003998129725456238
1761391727976967200,8.78196728515625,-0.05907178217172623,-0.007520860491506755,0.003914616160467267
1761391727987033000,8.792033203125,-0.055181788995862006,-0.006594137568026781,0.0000047492403537034985
1761391727997099300,8.802099365234374,-0.0668546911329031,-0.003632693946547806,0.0006832330238074063
1761391728007165000,8.8121650390625,-0.060272974655032154,-0.0038344087974168358,0.0017133067239075898
1761391728017231000,8.822231201171874,-0.069551675131917,-0.005008329681307077,-0.0023133184436708687
1761391728027297000,8.832297119140625,-0.06685527565479278,-0.006943973919004202,-0.006140840842574834
1761391728037364000,8.842364013671874,-0.060272974655032154,-0.0037198242407292127,0.0005661825153976678
1761391728047430100,8.85243017578125,-0.05997779110074043,-0.01126912537543103,-0.001768178716301918
1761391728057496000,8.86249609375,-0.0664192223250866,-0.011540142602846026,0.007410166658647358
1761391728067562000,8.87256201171875,-0.06132745214402675,-0.012673201753385365,0.00224595229588449
1761391728077628200,8.882628173828126,-0.06791092218756675,-0.010169292641058564,-0.010149309298954903
1761391728087693800,8.89269384765625,-0.0611772300183773,-0.00827233644593507,-0.0032344153439626097
1761391728097760000,8.902760009765625,-0.06102408528327941,-0.0004463737943209707,-0.008785802393406629
1761391728107826000,8.912825927734374,-0.06999708081185817,-0.000011544307321310042,0.00006513765808194875
1761391728117892000,8.92289208984375,-0.07134849542081356,-0.002442260319273919,-0.0006498787434771657
1761391728127958000,8.9329580078125,-0.0721001905709505,0.00032132264254614706,-0.0018018617901951074
1761391728138024200,8.943024169921875,-0.05893500404953956,-0.006770443983003496,0.0052311786517500874
1761391728148091100,8.953091064453124,-0.06566285099983216,-0.01686986799193546,0.0018314897434785961
1761391728158157000,8.963156982421875,-0.06521218462288379,-0.010609145363047719,0.0037800299953669307
1761391728168223200,8.97322314453125,-0.0632733255147934,-0.010876509328652173,-0.000687726535834372
1761391728178289000,8.983288818359375,-0.0652209524512291,-0.010204400487057863,0.0020227379992604254
1761391728188355000,8.99335498046875,-0.07435118436813354,-0.006961728771403431,-0.001759922344610095
1761391728198421000,9.0034208984375,-0.07300327689051628,-0.0027888817998580635,-0.00327262846250087
1761391728208487000,9.01348681640625,-0.05564414581060409,-0.007195628858823329,0.00019252689741551876
1761391728218553000,9.023552978515625,-0.06327566360235214,-0.003523497951030731,0.010576266006752847
1761391728228619000,9.033618896484375,-0.06341770242154599,-0.014150178970769046,0.006741290953755378
1761391728238685200,9.043685302734374,-0.06806406692266463,-0.00344308965858072,0.00044701311513781547
1761391728248751000,9.053751220703125,-0.06851648686528206,-0.007159169305954128,0.0015748481012880801
1761391728258818000,9.063818115234374,-0.06941606605350971,-0.004320146487746387,-0.002848448233678937
1761391728268884000,9.073884033203125,-0.06343173094689845,-0.004824826340563595,0.002486117727309465
1761391728278950000,9.083949951171874,-0.06925999870896339,-0.012025661097466944,-0.005364340044744313
1761391728289016000,9.09401611328125,-0.058334115546941755,-0.010652290385030209,-0.004707958495244384
1761391728299082000,9.10408203125,-0.06596680238246917,-0.006221029939316213,-0.011665011091530323
1761391728309148200,9.114148193359375,-0.06552139670252799,-0.0012718648330308495,-0.0006214928992092609
1761391728319214000,9.124214111328126,-0.06103168406784534,-0.00026553733469918367,0.00028754823710769415
1761391728329280300,9.1342802734375,-0.06088438455164432,-0.006770389184076338,-0.0003122077543288469
1761391728339346000,9.144345947265625,-0.06432429587244987,-0.012508677107747643,0.00013823942691087722
1761391728349411800,9.154411865234374,-0.059686114677786825,-0.019508765128161756,0.001905614425614476
1761391728359478000,9.16447802734375,-0.06102700789272785,-0.026188297691009936,0.0003032937955111265
1761391728369545000,9.174544921875,-0.07060790618658065,-0.01884557024538517,0.0017745353918522595
1761391728379611100,9.184611083984375,-0.06700958943367004,-0.019449819748848674,0.002602583713829517
1761391728389677000,9.194677001953124,-0.06729717420339584,-0.010796046237275004,-0.0035923984687775373
1761391728399743000,9.204742919921875,-0.06324877559542656,-0.0060781326035968955,0.0011804419562220572
1761391728409809200,9.21480908203125,-0.058904024389386175,0.0009353263550437986,0.018238288534618913
1761391728419875000,9.224875,-0.050824762830138204,0.011877630928903817,0.03158098704740405
1761391728429941000,9.23494091796875,-0.056065001571178434,0.00991252313470468,0.03198631644528359
1761391728440007000,9.2450068359375,-0.06310439868867397,0.016058295880723744,0.013178338263928889
1761391728450073000,9.255072998046876,-0.06670739161670207,0.020565124046988785,-0.004248378159478306
1761391728460139000,9.265138916015625,-0.06492459985315799,0.008282784774713219,-0.009968655502423644
1761391728470205200,9.275205078125,-0.06030278527140617,0.0048562078595161436,-0.004343070705607533
1761391728480272100,9.285272216796875,-0.06495265690386295,-0.009182400495558976,-0.0016239844726398586
1761391728490338000,9.295338134765625,-0.06870470291376113,-0.011847655915748326,-0.00952894891090691
1761391728500404200,9.305404296875,-0.07544307125806808,-0.012332407225389032,-0.016536891444213688
1761391728510470100,9.31547021484375,-0.062280807346105575,-0.022728457827027884,-0.026301439209282396
1761391728520536000,9.3255361328125,-0.07545826882719993,-0.01075133031271398,-0.01853529871981591
1761391728530602500,9.3356025390625,-0.07022621339261531,-0.009436685783881694,-0.01964391754884273
1761391728540668400,9.34566845703125,-0.07351824067533015,-0.016389920721575617,-0.010764116729050874
1761391728550734600,9.355734619140625,-0.06902034473419189,-0.012006317076180129,-0.00808850431162864
1761391728560800300,9.36580029296875,-0.05733692120313644,-0.012881309812422841,0.0027499562952667473
1761391728570866400,9.375866455078125,-0.05896656823158264,-0.017982048751227556,0.005400909195467829
1761391728580932400,9.385932373046876,-0.05940554417073726,-0.0031982297857291995,0.011411072863079607
1761391728590999300,9.395999267578125,-0.05551672003865242,-0.010625000519305467,0.018138298758864402
1761391728601065500,9.4060654296875,-0.060904258295893667,-0.004188848258275538,0.015611593292839824
1761391728611131400,9.41613134765625,-0.061355509194731706,-0.000271912276558578,0.01026533689405769
1761391728621197600,9.426197509765625,-0.06388941158652305,-0.008426157034467906,0.01256988750938326
1761391728631263500,9.436263427734374,-0.057308279630541796,-0.00952847398687154,0.0065767115091904995
1761391728641329400,9.446329345703125,-0.05954992107748985,-0.006722695851139724,-0.0006477963842451572
1761391728651395300,9.456395263671874,-0.06179857678711414,-0.006773914581723511,0.008516812726296483
1761391728661461200,9.466461181640625,-0.05431903468668461,-0.005502908265218138,0.004023519895039499
1761391728671527400,9.47652734375,-0.06449906791746617,-0.003514127334486693,0.003700169692188501
1761391728681593300,9.48659326171875,-0.05208323845863342,0.0004160699876025319,0.003486234680563211
1761391728691659500,9.496659423828126,-0.06420914506018162,-0.010763641805015503,-0.002534815707243979
1761391728701726500,9.5067265625,-0.054931029105186456,-0.00478624789584428,-0.0013389935187995434
1761391728711792400,9.51679248046875,-0.05628828893303871,-0.014003628373239188,-0.0039107802355661985
1761391728721858600,9.526858642578125,-0.07035597725212574,-0.008810936834663153,-0.008749927362427115
1761391728731924500,9.536924560546876,-0.07080956623852253,-0.00343728097230196,-0.010695216211304068
1761391728741990400,9.546990478515625,-0.0661702160000801,-0.00552681886376813,-0.012080277361534535
1761391728752056300,9.557056396484375,-0.06871288622021675,-0.0004261529901996255,-0.012272219737060367
1761391728762122500,9.56712255859375,-0.06870821004509925,0.003737944419309497,0.0015110621500760315
1761391728772188400,9.5771884765625,-0.07065349889397621,0.013628876776713877,0.0025536300055682658
1761391728782254300,9.58725439453125,-0.06496142473220824,0.016222692662198095,0.001266001347824931
1761391728792320500,9.597320556640625,-0.06870119578242302,0.010651669330522417,0.01397785461116582
1761391728802386400,9.607386474609376,-0.06361643986403942,0.006280450242664664,0.00962353185918182
1761391728812452400,9.617452392578125,-0.059137833145260804,0.01029969582138583,0.010137764991633593
1761391728822519300,9.627519287109376,-0.06662438950836658,0.006081731066480279,0.009430603102967143
1761391728832585200,9.637585205078125,-0.059143093842267985,-0.0068073236609809094,-0.005208747624233364
1761391728842651400,9.6476513671875,-0.05855214221179485,-0.012550178161915391,-0.007881839291006327
1761391728852717300,9.65771728515625,-0.05690963570177555,-0.014365520488191395,-0.007606858274526894
1761391728862783500,9.667783447265625,-0.062002574926614755,-0.021427074638567863,-0.005045994810573756
1761391728872849400,9.677849365234374,-0.06454115349352359,-0.02319145396258682,-0.007479395969957113
1761391728882915600,9.68791552734375,-0.06125672499537468,-0.028713377455528825,-0.0018622502079233526
1761391728892981500,9.6979814453125,-0.0669417848944664,-0.011594466605968773,0.011642981922812759
1761391728903047400,9.70804736328125,-0.06858721401393413,-0.006430581036768853,0.005878792372904717
1761391728913113300,9.71811328125,-0.056768765926361084,-0.009074263945966958,0.00185136348772794
1761391728923179300,9.72817919921875,-0.05946282731592655,-0.011362064355891197,0.006691898854076862
1761391728933246500,9.73824658203125,-0.061116439741849896,-0.006327796515729278,0.008607084825634955
1761391728943312400,9.7483125,-0.07519464945495129,-0.00022032821979373692,0.00452701243776828
1761391728953377500,9.75837744140625,-0.07519289588928223,-0.0003833915607072413,0.004617795993760228
1761391728963443500,9.768443359375,-0.07415069335997104,-0.004455919962935149,-0.006416771707125008
1761391728973509400,9.77850927734375,-0.07654255693256855,0.0066465436086989935,-0.004865158350951969
1761391728983575300,9.7885751953125,-0.06037058981060981,0.002458188540767878,-0.001009177042543888
1761391728993641500,9.798641357421875,-0.07099193706810474,-0.002453494099341333,-0.0027685148652642965
1761391729003707400,9.808707275390624,-0.07367372349798679,-0.0044466589442454275,0.006787650846131145
1761391729013774300,9.8187744140625,-0.06677811876535415,-0.0007899265349842607,0.010086582793667911
1761391729023840500,9.828840576171874,-0.080683894520998,0.012257771086599678,0.006895714330486953
1761391729033906400,9.838906494140625,-0.06526829872429371,0.004827474955376237,0.004662584983557462
1761391729043972600,9.84897265625,-0.06796645176708697,0.0021552783377468583,0.0022679449319839475
1761391729054038500,9.85903857421875,-0.05928337909579277,-0.0036518553047440944,0.0007809577772393822
1761391729064104200,9.869104248046876,-0.060173605933785436,-0.004901453507039696,-0.004797536474838853
1761391729074170400,9.87917041015625,-0.0571861145555973,-0.008083006152603775,-0.0009828735575079918
1761391729084236300,9.889236328125,-0.06766425395011902,0.0026374540978111325,-0.004264050652645528
1761391729094302500,9.899302490234374,-0.05510404758453369,0.004261694298777729,0.007730923045612871
1761391729104368400,9.909368408203125,-0.0660357759654522,-0.0033966567009687423,0.010395794873312115
1761391729114434600,9.9194345703125,-0.06544365529119968,-0.009886164850741624,0.0019797756403684614
1761391729124500500,9.92950048828125,-0.06828560071885585,-0.011533037008624522,-0.005686521203815936
1761391729134567400,9.9395673828125,-0.07202946342229842,-0.021432298802956936,-0.013645882710441946
1761391729144633600,9.949633544921875,-0.060954527178406714,-0.020424875326082108,-0.008719970615580677
1761391729154699300,9.95969921875,-0.05990238777697086,-0.018459749265573918,-0.011735738240182399
1761391729164765400,9.969765380859375,-0.05496610041856766,-0.020297741815075276,-0.012693915747851132
1761391729174831400,9.979831298828126,-0.06260054081976413,-0.015069577104318886,-0.010354695677943527
1761391729184897500,9.9898974609375,-0.07427227391302585,-0.005953191049676388,-0.0019656009845435618
1761391729194963500,9.99996337890625,-0.06694470750391483,-0.0010757577390410006,-0.0018991846848279237
1761391729205029400,10.010029296875,-0.05632628285586833,0.0019880320120602844,0.005987805705331265
1761391729215095600,10.020095458984375,-0.06845218945741653,0.0003022343495860696,-0.0007078925410285592
1761391729225161200,10.0301611328125,-0.060085927650332445,-0.0029720015481114388,-0.004952873167023062
1761391729235227400,10.040227294921875,-0.07040799970030784,0.0016490641149692236,0.000968333575502038
1761391729245294300,10.05029443359375,-0.05918634846210479,0.0018828546045348048,-0.012718684862926601
1761391729255360300,10.0603603515625,-0.06367664561867714,0.0034581045646220445,-0.005440327890403569
1761391729265426400,10.070426513671874,-0.05799567737281322,-0.002755947644636035,-0.0018906360521912574
1761391729275492400,10.080492431640625,-0.06129121178686618,-0.005174242566432803,0.0028628055525943634
1761391729285558500,10.09055859375,-0.05620937847793102,-0.012622549278382212,0.005245024514012039
1761391729295624400,10.10062451171875,-0.05352233135104179,-0.014967121376842259,0.001654818002320826
1761391729305690600,10.110690673828126,-0.06445289068818091,-0.014534703042637556,-0.0010974398478865624
1761391729315756300,10.12075634765625,-0.06370996336638927,-0.01419334225906059,-0.0065014177832752465
1761391729325822500,10.130822509765625,-0.06102817693650722,-0.009028068450372666,-0.009504362458921969
1761391729335888400,10.140888427734374,-0.06537935788333415,-0.010932075440790504,-0.002310067040659487
1761391729345954300,10.150954345703125,-0.05281505986452102,-0.015115005414932966,-0.005456621438078582
1761391729356021500,10.161021484375,-0.05820610525310039,-0.004330320821888745,0.0018430705834180116
1761391729366087400,10.17108740234375,-0.05881225445270538,-0.008307517357170582,0.011298808127641677
1761391729376153300,10.1811533203125,-0.05896539918780327,-0.0025884638569317756,0.005544884243421256
1761391729386219500,10.191219482421875,-0.07183774024248123,-0.004171367400512099,-0.0035559389159083364
1761391729396285400,10.201285400390624,-0.06181552792191505,-0.0016122392359189687,-0.00526818619389087
1761391729406351400,10.211351318359375,-0.05553016404211521,0.0007324972593225538,-0.0000010229133069515227
1761391729416417300,10.221417236328126,-0.06451075835525989,-0.0005770509692840278,0.0034832390058785676
1761391729426483500,10.2314833984375,-0.07304068629145621,-0.004116111815627664,0.0008975333616137504
1761391729436550400,10.24155029296875,-0.06242284616529941,0.004059413192328065,0.00534373564813286
1761391729446616300,10.2516162109375,-0.07753682866692542,0.003157842976413667,0.000574986876361072
1761391729456682500,10.2616826171875,-0.07544131769239902,0.0012061791856773196,0.000875211931951344
1761391729466748400,10.27174853515625,-0.06990355730950831,-0.007276420743763446,0.0037637729803100227
1761391729476814600,10.281814697265625,-0.0624234306871891,-0.008938965394813567,-0.0003672989424318075
1761391729486880300,10.29188037109375,-0.0580880318313837,-0.013974384012445806,-0.0032832959869876503
1761391729496946400,10.301946533203125,-0.05779226375520229,-0.00796476833410561,0.0004195771189406514
1761391729507012400,10.312012451171874,-0.060632455617189406,-0.0000719327250495553,0.001111358775384724
1761391729517078300,10.322078369140625,-0.05988192951083183,0.0011013488380238413,0.01079520598705858
1761391729527144400,10.33214453125,-0.062274962127208705,-0.004553041928168386,0.009659187694452702
1761391729537210000,10.342210205078125,-0.05913140340447425,-0.009252122997213154,0.0007088058564811944
1761391729547277300,10.35227734375,-0.061677580755949014,-0.012832100375834852,0.00242795779928565
1761391729557343200,10.36234326171875,-0.07441197464466094,-0.014660430047847329,-0.00019702040944248437
1761391729567409200,10.3724091796875,-0.07217150224149227,-0.00909351663570851,-0.01268390581049025
1761391729577475300,10.382475341796875,-0.06663549542427062,-0.009731595343537628,-0.00872018981128931
1761391729587541200,10.392541259765625,-0.06303834771513939,-0.009207790665142237,-0.0004504471812397241
1761391729597607400,10.402607421875,-0.05808686278760433,-0.013837879884894936,-0.007464782922714948
1761391729607673300,10.41267333984375,-0.06272738206982613,-0.01157932383576408,0.003650996788218617
1761391729617739300,10.4227392578125,-0.05569499921500683,-0.017202150419913232,0.02408438421431929
1761391729627805200,10.43280517578125,-0.056446694365143775,-0.012189144563488661,0.027569194122776388
1761391729637871400,10.442871337890624,-0.0557090277403593,0.005122256650868803,0.025690613834559915
1761391729647937300,10.452937255859375,-0.0639478637754917,0.006213778214622288,0.025755130438134072
1761391729658004200,10.463004150390624,-0.07757482258975505,0.007798471856489777,0.01098079168703407
1761391729668070400,10.4730703125,-0.07085106729269028,-0.0053175234946422276,0.0006286167597398161
1761391729678136300,10.48313623046875,-0.07310147656798362,-0.01639554674476385,-0.011306370379589497
1761391729688202500,10.493202392578125,-0.05843874496519565,-0.01842643151786178,-0.019391367559880017
1761391729698268400,10.503268310546876,-0.06546820521056651,-0.03760094145666808,-0.0306854995124042
1761391729708334000,10.513333984375,-0.0656043988108635,-0.025413824453484266,-0.049559930526092644
1761391729718400300,10.523400146484375,-0.06708908441066741,-0.007653729623556137,-0.012315474356897175
1761391729728466200,10.533466064453124,-0.05316694204211235,-0.003173314540181309,-0.018335721027106046
1761391729738532400,10.543532470703125,-0.08113514541983603,-0.010542034943588078,-0.02829425699431449
1761391729748598300,10.553598388671874,-0.07394201904535293,-0.004930570003669709,-0.03286488937810063
1761391729758664400,10.56366455078125,-0.06389934845864773,0.002905658313632011,-0.04284633129686117
1761391729768730400,10.57373046875,-0.07105974160730838,0.009076949093397707,-0.029028051161579787
1761391729778797300,10.58379736328125,-0.06984101346731185,-0.028742749680485576,-0.014133995020948349
1761391729788863200,10.59386328125,-0.047529812937974925,0.012776351600605994,-0.0052343204569071525
1761391729798929200,10.60392919921875,-0.06367606109678745,0.026274971327465025,0.00927902927044779
1761391729808995300,10.613995361328126,-0.050797290301322934,0.008327025775238871,-0.0037493791287764905
1761391729819061200,10.624061279296875,-0.053180970567464826,0.0001188406066969037,-0.0034719504268839953
1761391729829127400,10.63412744140625,-0.06724281366765499,0.013641827589832246,0.002058503432385623
1761391729839193300,10.644193359375,-0.05122925197780132,-0.009762136612273752,0.00984941303692758
1761391729849259300,10.65425927734375,-0.05885609359443188,0.007762322830874472,0.00027680764738470314
1761391729859325400,10.664325439453124,-0.08235796521306038,-0.005029865659680217,-0.0028153862142935395
1761391729869391000,10.67439111328125,-0.049151276659965513,0.015623283730633555,-0.012298450156860053
1761391729879457300,10.684457275390624,-0.055149055770039555,0.0012987711062654851,-0.001322992232069373
1761391729889524200,10.694524169921875,-0.059956163790822026,-0.0009553644960746168,0.014971066899597645
1761391729899590100,10.704590087890624,-0.05413958646655082,0.0031411293036304414,0.01386105983108282
1761391729909656300,10.71465625,-0.08348316985070704,-0.0014157850820571184,0.008671528363972902
1761391729919722200,10.72472216796875,-0.07212064883708953,0.004641432597674429,0.00906955123823136
1761391729929788400,10.734788330078125,-0.06404606345295906,0.012563293371815235,0.01899929950237274
1761391729939854300,10.744854248046876,-0.06885141790807246,0.014399532355647534,0.01199011486005038
1761391729949920300,10.754920166015625,-0.07259761869907379,-0.0009015884822234511,0.010077814965322613
1761391729959986200,10.764986083984375,-0.05241466237008571,-0.0036594358230009672,0.024321371307969093
1761391729970052400,10.77505224609375,-0.05257949754297733,-0.0062067456856369965,0.021058606652356683
1761391729980118300,10.7851181640625,-0.06501052457094192,-0.015629950933437792,0.013770751199126243
1761391729990184200,10.79518408203125,-0.06247954478859901,-0.014812478804402052,0.015728132344596087
1761391730000251400,10.80525146484375,-0.06428221029639243,-0.006437686630990356,0.014892558303289114
1761391730010317300,10.8153173828125,-0.08059796980321407,-0.013696096794027834,-0.00508362340722233
1761391730020383200,10.82538330078125,-0.08104805165827274,-0.02431987347062677,-0.011025653742067515
1761391730030449400,10.835449462890624,-0.06518237400650978,-0.04188506678296253,-0.02486366149112582
1761391730040515000,10.84551513671875,-0.06577157207131386,-0.04645272175837308,-0.030597821228951213
1761391730050581200,10.855581298828126,-0.059628831532597536,-0.035108028662391,-0.02422598464209586
1761391730060647200,10.865647216796875,-0.045104047095775604,0.016725089226383716,-0.04208027882780879
1761391730070713300,10.87571337890625,-0.04120411704778671,0.015053904611151664,-0.026874124530702828
1761391730080779300,10.885779296875,-0.0769628281712532,-0.004675060872640461,-0.023543080411851405
1761391730090845400,10.895845458984375,-0.06319207697212696,-0.10235274202618748,0.01778305558040738
1761391730100911400,10.905911376953124,-0.04358253661692142,-0.1439833591240458,0.027774324773438275
1761391730110978300,10.915978271484375,-0.05227028546333313,-0.02276245142817497,0.002680069396831095
1761391730121044500,10.92604443359375,-0.07681319056749343,0.05988233136963099,-0.036371801520511504
1761391730131110100,10.936110107421875,-0.09222411018908024,0.08469822646258399,-0.03448076360952109
1761391730141176300,10.94617626953125,-0.06693477063179015,0.02823248033709824,0.0034079818125814197
1761391730151242200,10.9562421875,-0.059762687045335765,0.019470223216060546,0.009624993163906036
1761391730161308400,10.966308349609376,-0.06500351030826568,-0.0020952369798906147,0.007797522008419037
1761391730171374300,10.976374267578125,-0.050203416061401364,-0.017319164395704863,0.003981580449454486
1761391730181440300,10.986440185546876,-0.05156184493303299,0.023588727918174117,-0.02058649562858045
1761391730191506400,10.99650634765625,-0.09285539382994175,0.020843064205534754,-0.042262211265973744
1761391730201572000,11.006572021484375,-0.07177110474705696,0.0041642070073634385,-0.025399302737787365
1761391730211638300,11.01663818359375,-0.06325403629243373,0.031211423082649705,-0.002082322699390352
1761391730221704200,11.0267041015625,-0.07022445982694625,0.0932115868564695,0.016142485299147663
1761391730231771100,11.036771240234375,0.48039983643293377,-0.12123055230705067,-0.26955782238692044
1761391730241837300,11.04683740234375,-1.7513398097038269,-0.013016937157139181,0.5610221004271879
1761391730251903200,11.0569033203125,1.9783558366984129,-0.06692454149872064,-0.305771255007945
1761391730261969400,11.066969482421875,-0.9942635510504245,-0.0767359606128186,-0.03436725676506758
