time,seconds_elapsed,z,y,x
1761391719269788700,0.07478857421875,-0.0002326606772840023,-0.00604539318010211,-0.007951471954584122
1761391719279854800,0.084854736328125,-0.000302968081086874,-0.008151421323418617,0.0009240442886948586
1761391719289921800,0.094921875,-0.0007876548916101456,0.0170450359582901,0.00042531266808509827
1761391719299987700,0.10498779296875,0.00014098919928073883,-0.011925628408789635,-0.003225348424166441
1761391719310054000,0.115053955078125,0.0013941247016191483,-0.00043958332389593124,-0.0019672545604407787
1761391719320119800,0.125119873046875,-0.00172443687915802,0.0075384471565485,0.001945994794368744
1761391719330185700,0.135185791015625,0.0015847254544496536,-0.01040593534708023,-0.0003365720622241497
1761391719340251600,0.145251708984375,-0.00028561241924762726,0.003642772324383259,-0.0028378129936754704
1761391719350317800,0.15531787109375,-0.0007148045115172863,0.003554694354534149,0.0036882013082504272
1761391719360383700,0.1653837890625,0.0014130608178675175,-0.0016850754618644714,-0.0024666297249495983
1761391719370450700,0.17545068359375,0.00040407199412584305,0.00528681930154562,-0.00004904065281152725
1761391719380516900,0.185516845703125,0.002289856318384409,0.0006332108750939369,-0.0006794105283915997
1761391719390582800,0.195582763671875,0.001776013057678938,0.0023298142477869987,-0.003354839514940977
1761391719400649000,0.20564892578125,-0.0007670391350984573,0.0011801272630691528,0.0008676024153828621
1761391719410715000,0.21571484375,0.002801183145493269,-0.00007545575499534607,-0.0019470755942165852
1761391719420780500,0.225780517578125,0.00011565163731575012,0.0008755587041378021,-0.003032047301530838
1761391719430846700,0.2358466796875,-0.00019873864948749542,0.002154795452952385,-0.0009139422327280045
1761391719440912600,0.24591259765625,0.00037543894723057747,-0.0009954581037163734,0.0007215053774416447
1761391719450978800,0.255978759765625,-0.0007949932478368282,-0.00043345801532268524,-0.0010372786782681942
1761391719461045800,0.266045654296875,-0.00026475777849555016,0.00046455953270196915,-0.0012458041310310364
1761391719471111700,0.276111572265625,0.0005801529623568058,-0.0002819988876581192,0.0009340532124042511
1761391719481177900,0.286177734375,0.00025684479624032974,-0.00031209271401166916,-0.00013493932783603668
1761391719491243800,0.296243896484375,-0.00042405351996421814,-0.0005406122654676437,0.0005374033935368061
1761391719501310000,0.30631005859375,-0.002096785232424736,0.0006663324311375618,0.0023699249140918255
1761391719511375600,0.316375732421875,0.0002289535477757454,-0.0008865576237440109,0.0004058429040014744
1761391719521441500,0.326441650390625,0.000024955719709396362,0.0017129546031355858,-0.0027627856470644474
1761391719531507500,0.336507568359375,0.0007579131051898003,-0.0016744434833526611,-0.0021228939294815063
1761391719541574400,0.346574462890625,0.0004668296314775944,0.0022886069491505623,-0.002130616921931505
1761391719551640300,0.356640380859375,0.0006272327154874802,0.003737100400030613,-0.0007511279545724392
1761391719561706200,0.366706298828125,0.00006796885281801224,0.0025503961369395256,-0.0024827150627970695
1761391719571772400,0.3767724609375,0.0015391814522445202,0.004963486455380917,-0.0008835140615701675
1761391719581838300,0.38683837890625,-0.0013277116231620312,0.002298193983733654,-0.0005330420099198818
1761391719591904500,0.396904541015625,-0.0008618957363069057,0.0008678846061229706,-0.0018337634392082691
1761391719601970400,0.406970458984375,-0.00009011151269078255,-0.00009751133620738983,-0.0006739567033946514
1761391719612036400,0.417036376953125,0.0020475611090660095,-0.000057153403759002686,-0.0007720817811787128
1761391719622102300,0.427102294921875,-0.0011580861173570156,-0.0001642126590013504,0.00005909102037549019
1761391719632169500,0.43716943359375,-0.0000028689391911029816,0.002293667756021023,0.00018097879365086555
1761391719642235400,0.4472353515625,-0.0032979976385831833,-0.003079792484641075,0.0025724968872964382
1761391719652301300,0.45730126953125,0.0006292210891842842,-0.002632549963891506,0.0016710334457457066
1761391719662367200,0.4673671875,-0.0021788165904581547,-0.002924432046711445,0.0009333384223282337
1761391719672433400,0.477433349609375,-0.000996104907244444,-0.0020514484494924545,-0.0025759092532098293
1761391719682499300,0.487499267578125,-0.002297591418027878,-0.0006881756708025932,-0.0004048999398946762
1761391719692565500,0.4975654296875,0.00024177273735404015,-0.001749083399772644,0.00094589963555336
1761391719702631400,0.50763134765625,-0.00008579622954130173,-0.00031150877475738525,0.0001733163371682167
1761391719712697300,0.517697265625,-0.0003185449168086052,-0.0012294771149754524,-0.002627984620630741
1761391719722764500,0.5277646484375,0.00021541910246014595,0.0034803226590156555,0.0015832716599106789
1761391719732830200,0.537830322265625,0.0017294008284807205,0.0019611837342381477,-0.002292127814143896
1761391719742896400,0.547896484375,0.0009672041051089764,0.0034059491008520126,-0.002080939244478941
1761391719752962300,0.55796240234375,-0.0005780700594186783,0.0014604376628994942,0.0016222484409809113
1761391719763028500,0.568028564453125,0.0004930533468723297,0.0010436531156301498,-0.0009093526750802994
1761391719773094400,0.578094482421875,-0.0009517380967736244,-0.00022914446890354156,-0.0015127919614315033
1761391719783160600,0.58816064453125,-0.0015589389950037003,-0.0014608567580580711,0.000982855912297964
1761391719793226500,0.5982265625,0.000804633367806673,-0.0015710871666669846,0.002730234060436487
1761391719803293400,0.60829345703125,-0.0004033767618238926,-0.002245931886136532,-0.001708456315100193
1761391719813359400,0.618359375,0.0006864871829748154,0.00018262863159179688,0.00024315854534506798
1761391719823425300,0.62842529296875,0.003904917510226369,-0.00007090438157320023,-0.00010784575715661049
1761391719833491200,0.6384912109375,-0.00013742595911026,0.0023175636306405067,-0.0008445437997579575
1761391719843557400,0.648557373046875,0.0033470538910478354,0.0018967846408486366,-0.0021875761449337006
1761391719853623300,0.658623291015625,0.00018409732729196548,0.001965923234820366,0.0022163549438118935
1761391719863689500,0.668689453125,0.004626249894499779,0.003803504630923271,-0.0005197762511670589
1761391719873755400,0.67875537109375,0.000033964868634939194,0.0018827905878424644,0.0005374769680202007
1761391719883821600,0.688821533203125,0.0027759552467614412,0.0016308557242155075,0.0019034123979508877
1761391719893888500,0.698888427734375,0.002353660762310028,-0.0008768010884523392,-0.0005260533653199673
1761391719903954200,0.7089541015625,0.00023538246750831604,-0.00025442056357860565,-0.000021117739379405975
1761391719914020400,0.719020263671875,-0.00021442538127303123,0.001631222665309906,0.004343563225120306
1761391719924086300,0.729086181640625,0.0014748177491128445,-0.0024282345548272133,-0.00044639827683568
1761391719934152400,0.73915234375,0.0021080700680613518,-0.00024298671633005142,0.0025406666100025177
1761391719944218400,0.74921826171875,0.0007599778473377228,0.00211311224848032,-0.0012921551242470741
1761391719954284500,0.759284423828125,0.0014525125734508038,0.00374485831707716,0.00041894661262631416
1761391719964350500,0.7693505859375,-0.001290809828788042,-0.0021966537460684776,0.001652523409575224
1761391719974416400,0.77941650390625,0.0013929391279816628,0.0024505257606506348,-0.0006452514789998531
1761391719984483600,0.789483642578125,-0.00048592081293463707,-0.0010528629645705223,0.0028887633234262466
1761391719994549200,0.79954931640625,0.000577638391405344,-0.001012451946735382,0.00035330234095454216
1761391720004615400,0.809615478515625,-0.002324674278497696,-0.00026809796690940857,0.0019866186194121838
1761391720014681300,0.819681396484375,0.0011855633929371834,-0.0030854903161525726,-0.0002777460031211376
1761391720024747300,0.829747314453125,-0.0028499248437583447,-0.0030415477231144905,0.0018546469509601593
1761391720034813400,0.8398134765625,0.000621176790446043,0.0025527365505695343,0.0000889655202627182
1761391720044879400,0.84987939453125,-0.0019362568855285645,0.0006696153432130814,-0.0021526175551116467
1761391720054945500,0.859945556640625,-0.0011288421228528023,-0.00037102680653333664,0.0007397965528070927
1761391720065012500,0.870012451171875,-0.0013363026082515717,-0.0013132533058524132,-0.002404597122222185
1761391720075078400,0.880078369140625,-0.000935838557779789,-0.0013741711154580116,-0.0013394593261182308
1761391720085144300,0.890144287109375,-0.0014349152334034443,-0.0008260924369096756,-0.000006813555955886841
1761391720095210200,0.900210205078125,0.0016025765798985958,-0.0006884774193167686,-0.0008488800376653671
1761391720105276400,0.9102763671875,-0.0003820112906396389,0.003945689648389816,-0.0028276084922254086
1761391720115342300,0.92034228515625,0.0016889097169041634,0.0027782823890447617,-0.00005706539377570152
1761391720125408500,0.930408447265625,0.0006920886225998402,-0.0003165770322084427,0.00032563088461756706
1761391720135474400,0.940474365234375,-0.0011750347912311554,0.002353023737668991,-0.002229662612080574
1761391720145540400,0.950540283203125,-0.0002527819015085697,-0.001016673631966114,-0.0018291231244802475
1761391720155607600,0.960607666015625,-0.00009947502985596657,0.0021830908954143524,0.0045252093113958836
1761391720165673500,0.970673583984375,0.0022896467708051205,0.0002485699951648712,0.0024324976839125156
1761391720175739400,0.980739501953125,0.0013003544881939888,0.0006325729191303253,0.001301987562328577
1761391720185805300,0.990805419921875,0.0010990197770297527,0.00475354865193367,-0.000253298319876194
1761391720195871200,1.000871337890625,-0.00021525053307414055,0.0011641401797533035,0.0013092095032334328
1761391720205937400,1.0109375,0.001822334248572588,0.0028531160205602646,0.0003440799191594124
1761391720216003300,1.02100341796875,0.00324834743514657,-0.0018138783052563667,0.0013145641423761845
1761391720226069500,1.031069580078125,0.0015702894888818264,0.0002727089449763298,-0.0022293045185506344
1761391720236135400,1.041135498046875,0.0013225781731307507,0.0036766622215509415,-0.0002633538097143173
1761391720246202400,1.051202392578125,0.0017204545438289642,0.001238805241882801,-0.0033946982584893703
1761391720256268300,1.061268310546875,0.0025586606934666634,0.002210398204624653,-0.0003826539032161236
1761391720266334200,1.071334228515625,-0.00036868592724204063,0.0018298327922821045,-0.0036074756644666195
1761391720276400400,1.081400390625,-0.002411584835499525,0.001157090999186039,-0.00029732799157500267
1761391720286466300,1.09146630859375,0.0026228551287204027,0.00030887406319379807,-0.002073124051094055
1761391720296532500,1.101532470703125,0.0006139208562672138,-0.0028627049177885056,-0.0013640443794429302
1761391720306598400,1.111598388671875,-0.00023642648011446,0.00026544462889432907,-0.0003943871706724167
1761391720316664600,1.12166455078125,0.0015123519115149975,0.0017656264826655388,0.0007809111848473549
1761391720326731500,1.1317314453125,-0.0008671823889017105,0.0013951808214187622,-0.0003738352097570896
1761391720336797400,1.14179736328125,-0.0032247034832835197,0.002286716364324093,-0.002380360383540392
1761391720346863400,1.15186328125,-0.0010315906256437302,-0.00008269865065813065,-0.0025750375352799892
1761391720356929300,1.16192919921875,0.0008095158264040947,0.002360491082072258,-0.0005610440857708454
1761391720366995500,1.171995361328125,-0.000020325183868408203,-0.00044541526585817337,0.0008935742080211639
1761391720377061400,1.182061279296875,0.0009850836358964443,0.001042836345732212,0.000702942255884409
1761391720387127300,1.192127197265625,0.0033094906248152256,0.0022295406088232994,-0.0023892540484666824
1761391720397193500,1.202193359375,-0.0007903170771896839,0.0006037922576069832,-0.004963716957718134
1761391720407259400,1.21225927734375,0.0007119723595678806,0.0031010378152132034,0.00047046365216374397
1761391720417326300,1.222326416015625,0.0017422204837203026,0.00028429925441741943,-0.00038300594314932823
1761391720427392500,1.232392578125,0.0008228970691561699,0.0023589013144373894,0.0016370019875466824
1761391720437458200,1.242458251953125,-0.001103285700082779,0.0036620143800973892,-0.0010548746213316917
1761391720447524400,1.2525244140625,0.0007095281034708023,-0.0020339544862508774,0.0036629154346883297
1761391720457590300,1.26259033203125,-0.00022028153762221336,-0.0010829512029886246,0.0008464311249554157
1761391720467656400,1.272656494140625,0.0016615078784525394,-0.001398002728819847,-0.0003666384145617485
1761391720477722400,1.282722412109375,-0.000776948407292366,-0.0030199969187378883,-0.00015878770500421524
1761391720487788500,1.29278857421875,-0.0030864416621625423,0.0007811328396201134,0.00001751398667693138
1761391720497854500,1.3028544921875,-0.0007263221777975559,-0.001259421929717064,-0.002693315502256155
1761391720507921400,1.31292138671875,-0.0003625345416367054,0.000173092819750309,0.0017570932395756245
1761391720517987600,1.322987548828125,-0.0007863906212151051,-0.0006178142502903938,-0.0026335306465625763
1761391720528053200,1.33305322265625,0.0014221686869859695,0.00022427737712860107,0.0009167296811938286
1761391720538119200,1.343119140625,-0.0029655061662197113,0.00037098582834005356,-0.0015391167253255844
1761391720548185000,1.35318505859375,-0.0007020854391157627,0.001005616970360279,-0.0022560395300388336
1761391720558251300,1.363251220703125,0.0023669330403208733,0.00107534509152174,-0.0010840604081749916
1761391720568317200,1.373317138671875,0.004599993582814932,0.007496492937207222,0.00028720125555992126
1761391720578383000,1.383383056640625,0.0062061152420938015,0.006876482628285885,0.002501329407095909
1761391720588449300,1.39344921875,0.005260692909359932,0.0009506819769740105,0.0031601954251527786
1761391720598516200,1.40351611328125,0.005918905138969421,0.005030597560107708,-0.0009400257840752602
1761391720608582100,1.41358203125,-0.0010239556431770325,0.0045935725793242455,-0.0014233896508812904
1761391720618648000,1.42364794921875,-0.0010530045256018639,-0.004546273499727249,-0.005645869765430689
1761391720628714000,1.4337138671875,-0.0012556710280478,0.0007126703858375549,-0.003287108149379492
1761391720638780200,1.4437802734375,0.00003438955172896385,0.00008643791079521179,-0.003289240412414074
1761391720648846000,1.45384619140625,0.0017353505827486515,0.0003745919093489647,-0.0023443507961928844
1761391720658912300,1.463912353515625,0.001138058491051197,0.004670337773859501,-0.00028937123715877533
1761391720668978200,1.473978271484375,0.0023820213973522186,0.0030801640823483467,-0.003347479272633791
1761391720679044400,1.48404443359375,0.002295553218573332,0.0009904596954584122,-0.0009259399957954884
1761391720689111300,1.494111328125,0.0036457758396863937,0.003040027804672718,0.0020381580106914043
1761391720699177200,1.50417724609375,0.002704157494008541,0.0027020536363124847,0.0010158740915358067
1761391720709243100,1.5142431640625,0.0032053645700216293,0.0009635426104068756,0.004837243352085352
1761391720719309000,1.52430908203125,0.0006231903098523617,0.0013557560741901398,0.005692789796739817
1761391720729375200,1.534375244140625,0.0025364053435623646,0.003099859692156315,0.0045769247226417065
1761391720739441200,1.544441162109375,-0.003109320532530546,-0.0015918845310807228,0.0022908137179911137
1761391720749507000,1.554507080078125,-0.003290416207164526,-0.002193758264183998,0.003059668932110071
1761391720759573200,1.5645732421875,-0.0017360150814056396,0.002652835100889206,0.0010664300061762333
1761391720769639200,1.57463916015625,0.0010283458977937698,-0.004165389575064182,0.0026262435130774975
1761391720779706000,1.5847060546875,-0.0033367821015417576,0.001495087519288063,0.0018428019247949123
1761391720789772300,1.594772216796875,-0.00011568889021873474,0.0017550121992826462,0.0018955324776470661
1761391720799838000,1.604837890625,-0.0016100658103823662,0.0011457521468400955,0.000872285570949316
1761391720809904000,1.614904052734375,-0.0000758185051381588,0.0008104601874947548,0.003508282359689474
1761391720819970000,1.624969970703125,0.0027897339314222336,0.002156638540327549,0.0009975661523640156
1761391720830036200,1.6350361328125,0.0002940855920314789,0.0020013758912682533,-0.0016746497713029385
1761391720840102100,1.64510205078125,-0.0011690002866089344,0.0038437051698565483,0.0008951718918979168
1761391720850168300,1.655168212890625,0.0005519343540072441,0.002545413561165333,0.00006666267290711403
1761391720860234200,1.665234130859375,0.001552701462060213,-0.000020373612642288208,0.0043369983322918415
1761391720870301200,1.67530126953125,-0.0003035217523574829,0.0010606031864881516,-0.0003818562254309654
1761391720880367400,1.685367431640625,0.0027864263392984867,0.0032047852873802185,0.00013313861563801765
1761391720890433000,1.69543310546875,-0.00006794976070523262,0.016732579097151756,0.014729924499988556
1761391720900499200,1.705499267578125,-0.004989130422472954,0.013941878452897072,-0.03637414053082466
1761391720910565000,1.715565185546875,-0.00032327231019735336,-0.04689457267522812,0.050614286214113235
1761391720920631300,1.72563134765625,-0.001750364899635315,0.04527462273836136,-0.03788461908698082
1761391720930697200,1.735697265625,0.0017708661034703255,-0.04183471202850342,0.019060956314206123
1761391720940763100,1.74576318359375,0.0010261121205985546,0.016540057957172394,-0.00212272210046649
1761391720950829300,1.755829345703125,0.0013464903458952904,0.0066783735528588295,-0.00011523114517331123
1761391720960896300,1.765896240234375,0.002357492223381996,-0.01983102597296238,0.0012804283760488033
1761391720970962200,1.775962158203125,-0.001085975207388401,0.013009212911128998,0.005384891759604216
1761391720981028000,1.786028076171875,-0.0008043274283409119,-0.009639977477490902,-0.003766201436519623
1761391720991094000,1.796093994140625,-0.0014765094965696335,-0.01251246314495802,0.0020293700508773327
1761391721001160200,1.80616015625,0.0002432563342154026,0.0061125727370381355,-0.0015106326900422573
1761391721011226000,1.81622607421875,0.0004560425877571106,-0.01537141390144825,-0.0016384641639888287
1761391721021292300,1.826292236328125,-0.0012715915217995644,-0.008653689175844193,-0.0021636835299432278
1761391721031358200,1.836358154296875,-0.0016798540018498898,-0.0021784789860248566,-0.005891043692827225
1761391721041424400,1.84642431640625,-0.0023431573063135147,-0.013389877043664455,-0.00043052248656749725
1761391721051490000,1.856489990234375,-0.004354642704129219,-0.0013457313179969788,-0.0024768956936895847
1761391721061557000,1.866556884765625,-0.0015592067502439022,-0.007574285380542278,0.0007562837563455105
1761391721071623200,1.876623046875,-0.0030268742702901363,-0.00815485417842865,-0.000011771917343139648
1761391721081689000,1.886689208984375,-0.0019264104776084423,-0.000727442093193531,-0.003510246518999338
1761391721091755300,1.89675537109375,-0.004350685980170965,-0.006153899244964123,-0.0017962362617254257
1761391721101821200,1.9068212890625,-0.0007349490188062191,-0.0007270071655511856,-0.0014260984025895596
1761391721111887000,1.91688720703125,-0.000728290993720293,0.0006719520315527916,-0.002691099885851145
1761391721121953300,1.926953369140625,0.0005529117770493031,-0.0011897692456841469,0.0014741546474397182
1761391721132019200,1.937019287109375,0.00010869652032852173,-0.00045846495777368546,-0.0007487861439585686
1761391721142085000,1.947085205078125,0.0004822160117328167,-0.002579987980425358,0.0017421268858015537
1761391721152152000,1.957152099609375,0.0005551865324378014,0.001246442086994648,-0.0008368785493075848
1761391721162218000,1.967218017578125,-0.0008037122897803783,-0.000688052736222744,-0.0010380838066339493
1761391721172284200,1.9772841796875,-0.002261260524392128,0.00006588827818632126,0.001043176744133234
1761391721182350000,1.98735009765625,0.0016858079470694065,0.0022502588108181953,-0.004306770861148834
1761391721192416300,1.997416259765625,-0.000017549842596054077,-0.0006722938269376755,-0.0028958278708159924
1761391721202482200,2.007482177734375,0.0032217656262218952,0.004117162898182869,-0.002768400125205517
1761391721212548400,2.01754833984375,0.0020475778728723526,0.002775195986032486,-0.00019551999866962433
1761391721222614300,2.0276142578125,0.0024298508651554585,0.0035270797088742256,-0.0061770412139594555
1761391721232680200,2.03768017578125,0.0024828477762639523,0.001968863420188427,0.001973563339561224
1761391721242747100,2.0477470703125,0.001654310617595911,0.0023142024874687195,-0.0010773194953799248
1761391721252813000,2.05781298828125,0.003662866773083806,0.0028340518474578857,-0.00015346892178058624
1761391721262879200,2.067879150390625,0.002131253946572542,0.004326414316892624,-0.0016591865569353104
1761391721272945200,2.077945068359375,0.0033246164675801992,0.0030883103609085083,0.00005429098382592201
1761391721283011000,2.088010986328125,0.0017671468667685986,0.003144308924674988,-0.0016456111334264278
1761391721293077200,2.0980771484375,0.002451845910400152,0.0057502128183841705,-0.004515433683991432
1761391721303143200,2.10814306640625,0.003525263164192438,0.0038148900493979454,-0.004738126881420612
1761391721313209000,2.118208984375,0.0031449636444449425,0.004545661620795727,-0.0049154930748045444
1761391721323275000,2.12827490234375,0.004942737519741058,0.006973497569561005,-0.004029629286378622
1761391721333341200,2.138341064453125,0.004946199245750904,0.006109569221735001,-0.004956409335136414
1761391721343408000,2.148408203125,0.002961518708616495,0.009205784648656845,-0.005883164703845978
1761391721353474000,2.15847412109375,0.0018845363520085812,0.005506919696927071,-0.0012894785031676292
1761391721363540200,2.168540283203125,0.003996366634964943,0.005236460827291012,-0.004928618669509888
1761391721373606100,2.178606201171875,0.0019023227505385876,0.0011309320107102394,-0.0005594370886683464
1761391721383672300,2.18867236328125,0.0037279853131622076,0.0009545376524329185,-0.00363111961632967
1761391721393738200,2.19873828125,0.0019849464297294617,0.0007832963019609451,-0.0024220445193350315
1761391721403804200,2.20880419921875,-0.0009360173717141151,0.0024855639785528183,-0.0028314488008618355
1761391721413870000,2.2188701171875,-0.001224704086780548,0.0016317544505000114,0.0015228199772536755
1761391721423936300,2.228936279296875,0.00018623843789100647,0.0008887331932783127,0.0013555730693042278
1761391721434003200,2.239003173828125,-0.000016960781067609787,0.00044638197869062424,-0.001892151776701212
1761391721444069000,2.249069091796875,0.0015449919737875462,-0.00029475148767232895,-0.002819654531776905
1761391721454135300,2.25913525390625,0.000265609472990036,-0.001168535090982914,-0.0011165631003677845
1761391721464201200,2.269201171875,0.0026021101512014866,0.003431083634495735,-0.0001677381806075573
1761391721474267100,2.27926708984375,-0.0014895708300173283,0.0023527685552835464,0.0030608116649091244
1761391721484333300,2.289333251953125,0.0017776992172002792,0.0004808325320482254,0.0004483046941459179
1761391721494399000,2.29939892578125,0.000537465326488018,-0.0005990797653794289,-0.00024118786677718163
1761391721504465200,2.309465087890625,0.0025816510897129774,0.00009160116314888,0.00022812793031334877
1761391721514531000,2.319531005859375,-0.0013257386162877083,0.0005568554624915123,0.00047047482803463936
1761391721524597500,2.329597412109375,0.0005420083180069923,-0.0008336072787642479,-0.0018686824478209019
1761391721534664400,2.33966455078125,-0.00032138871029019356,-0.00034145452082157135,0.002428594511002302
1761391721544730400,2.34973046875,0.0029451351147145033,0.0010358607396483421,-0.0014640884473919868
1761391721554796500,2.359796630859375,0.0002934257499873638,-0.00036070123314857483,0.0005977307446300983
1761391721564862500,2.369862548828125,0.0027691915165632963,0.0012041935697197914,-0.0008437861688435078
1761391721574928400,2.379928466796875,-0.0005198121070861816,-0.00027279555797576904,0.0012140381149947643
1761391721584994300,2.389994384765625,0.0015549552626907825,-0.0011849738657474518,-0.0010396572761237621
1761391721595060200,2.400060302734375,-0.0006232443265616894,0.001731986179947853,-0.00016693910583853722
1761391721605126400,2.41012646484375,0.0010931538417935371,0.001041138544678688,-0.0026815738528966904
1761391721615193300,2.420193359375,0.003428746247664094,-0.002396736294031143,-0.002018713392317295
1761391721625259500,2.430259521484375,0.001842715311795473,0.005182255990803242,-0.0014293724671006203
1761391721635325400,2.440325439453125,0.0017380532808601856,0.003759062848985195,-0.002552960067987442
1761391721645391400,2.450391357421875,0.0028144654352217913,0.0033882511779665947,0.001284878235310316
1761391721655457500,2.46045751953125,0.0026592030189931393,0.0014542639255523682,-0.001094922423362732
1761391721665523200,2.470523193359375,0.0023859338834881783,0.0001401863992214203,0.0018407166935503483
1761391721675589400,2.48058935546875,0.0013720686547458172,-0.00248116347938776,-0.0017886394634842873
1761391721685655300,2.4906552734375,0.0016556228511035442,0.0014616753906011581,0.0034123496152460575
1761391721695721500,2.500721435546875,0.0007725185714662075,0.0025141574442386627,0.0017955438233911991
1761391721705787400,2.510787353515625,0.0006152358837425709,0.00034002307802438736,0.0021973545663058758
1761391721715854300,2.520854248046875,0.0010365480557084084,0.001437244936823845,-0.0022210958413779736
1761391721725920500,2.53092041015625,-0.0004926417022943497,0.0006944397464394569,-0.0003343997523188591
1761391721735986400,2.540986328125,-0.00004416517913341522,-0.001416381448507309,-0.0013077850453555584
1761391721746052400,2.55105224609375,0.0016173687763512135,-0.0012865625321865082,0.0015128874219954014
1761391721756118300,2.5611181640625,-0.0018300935626029968,-0.0006396807730197906,-0.0010706447064876556
1761391721766184400,2.571184326171875,-0.0010886956006288528,-0.0028710002079606056,0.0016557802446186543
1761391721776250400,2.58125048828125,0.0010101418010890484,-0.005705934949219227,0.002272834535688162
1761391721786316300,2.59131640625,0.0006988449022173882,-0.008759299293160439,0.0003552050329744816
1761391721796382500,2.601382568359375,-0.0008002487011253834,-0.007660212926566601,0.0001474791206419468
1761391721806448400,2.611448486328125,0.001039569266140461,-0.006640847306698561,-0.0001417342573404312
1761391721816515300,2.621515380859375,-0.0023988382890820503,-0.007315958850085735,0.0005062124691903591
1761391721826581500,2.63158154296875,-0.006723867729306221,0.009147219359874725,-0.0021570599637925625
1761391721836647200,2.641647216796875,-0.0020590750500559807,0.0023625511676073074,0.0003356584347784519
1761391721846713300,2.65171337890625,-0.002005344722419977,-0.0008232956752181053,-0.0037573608569800854
1761391721856779300,2.661779296875,-0.001157926395535469,0.0016438569873571396,0.0007423167116940022
1761391721866845400,2.671845458984375,0.001046622171998024,-0.0033150436356663704,-0.0007133334875106812
1761391721876911400,2.681911376953125,0.0014697983860969543,-0.0027909334748983383,0.002673674840480089
1761391721886977500,2.6919775390625,0.0004250183701515198,0.0013675689697265625,0.0006338567472994328
1761391721897043500,2.70204345703125,-0.0012937858700752258,-0.0008162232115864754,0.0030400226823985577
1761391721907110400,2.7121103515625,0.001394036691635847,-0.0014077108353376389,0.0017180298455059528
1761391721917176600,2.722176513671875,-0.0004805624485015869,-0.0018796231597661972,0.0009560990147292614
1761391721927242200,2.7322421875,-0.0002239001914858818,-0.0025015203282237053,0.0003950814716517925
1761391721937308400,2.742308349609375,-0.0005685132928192616,-0.00018643494695425034,0.0006552725099027157
1761391721947374300,2.752374267578125,0.0013940054923295975,0.0015199268236756325,-0.0000011101365089416504
1761391721957440300,2.762440185546875,-0.002478497102856636,0.0008914200589060783,0.00098718935623765
1761391721967506400,2.77250634765625,-0.00041268207132816315,0.0005203923210501671,-0.0015009362250566483
1761391721977572400,2.782572265625,0.00022194907069206238,0.002243724651634693,-0.0006497898139059544
1761391721987638500,2.792638427734375,0.002015381585806608,0.002936074510216713,0.0006234711036086082
1761391721997705500,2.80270556640625,0.0002648853696882725,0.0002779737114906311,-0.00017174845561385155
1761391722007771400,2.812771484375,0.0008683055639266968,0.0026575755327939987,-0.00263160839676857
1761391722017837300,2.82283740234375,0.0017910911701619625,-0.0006133178249001503,0.0002688402310013771
1761391722027903200,2.8329033203125,-0.0009478353895246983,-0.0001437254250049591,0.0023462907411158085
1761391722037969400,2.842969482421875,-0.002656786236912012,0.0007771961390972137,-0.001069480087608099
1761391722048035300,2.853035400390625,0.0006889388896524906,-0.000775984488427639,0.0011525051668286324
1761391722058101500,2.8631015625,-0.00009376415982842445,0.0028200820088386536,-0.00003260187804698944
1761391722068167400,2.87316748046875,0.0013513178564608097,0.0027602482587099075,-0.0011278153397142887
1761391722078233600,2.883233642578125,0.0023590577766299248,-0.0012438148260116577,0.0011981893330812454
1761391722088299300,2.89329931640625,-0.0013911183923482895,0.0018213223665952682,0.0010453136637806892
1761391722098366200,2.9033662109375,0.0006083827465772629,-0.002181675285100937,0.00018378067761659622
1761391722108432400,2.913432373046875,-0.0025179064832627773,-0.0012929756194353104,0.0014679073356091976
1761391722118498300,2.923498291015625,-0.00046407710760831833,0.002753165550529957,-0.0011718180030584335
1761391722128564500,2.933564453125,0.001084380317479372,-0.0012458404526114464,-0.0005926690064370632
1761391722138630400,2.94363037109375,-0.00010871607810258865,-0.00009828433394432068,0.002278218511492014
1761391722148696300,2.9536962890625,0.00019231019541621208,-0.0012995647266507149,0.0027039414271712303
1761391722158762500,2.963762451171875,0.0012138988822698593,-0.0005027465522289276,0.0008330708369612694
1761391722168828400,2.973828369140625,-0.0005576349794864655,-0.00003330036997795105,0.0014733229763805866
1761391722178894300,2.983894287109375,0.0010466533713042736,-0.0013523641973733902,0.00009300606325268745
1761391722188960300,2.993960205078125,0.0001764209009706974,0.0003208750858902931,0.0011072796769440174
1761391722199027200,3.004027099609375,0.0017572729848325253,0.0005515050143003464,0.0004545389674603939
1761391722209093400,3.01409326171875,-0.00033433176577091217,-0.0005853762850165367,-0.0017252573743462563
1761391722219159300,3.0241591796875,0.00009150756523013115,0.0014263754710555077,0.002221813891083002
1761391722229225500,3.0342255859375,-0.00038676150143146515,-0.0006967457011342049,0.0009512435644865036
1761391722239291400,3.04429150390625,-0.0010142023675143719,-0.0017715971916913986,-0.0030248560942709446
1761391722249357600,3.054357666015625,0.001634370069950819,0.0005952240899205208,-0.0017632045783102512
1761391722259423500,3.064423583984375,0.0023030899465084076,-0.0016583427786827087,0.0005982206203043461
1761391722269489400,3.074489501953125,-0.00044390326365828514,-0.0016395756974816322,0.00047412654384970665
1761391722279555300,3.084555419921875,-0.0007030288688838482,-0.0030135000124573708,-0.0017107310704886913
1761391722289622300,3.094622314453125,-0.000017546582967042923,-0.0006255898624658585,-0.0009485576301813126
1761391722299688400,3.1046884765625,-0.0012772218324244022,-0.001476735807955265,0.0020682713948190212
1761391722309754400,3.11475439453125,0.00044389208778738976,-0.000520302914083004,0.0006337650120258331
1761391722319820300,3.1248203125,-0.00038887839764356613,0.000013127923011779785,0.0034833475947380066
1761391722329886500,3.134886474609375,-0.0014533456414937973,0.0009433738887310028,0.0025870460085570812
1761391722339952400,3.144952392578125,0.0011528241448104382,-0.0002174973487854004,0.001599279697984457
1761391722350018300,3.155018310546875,0.00029742438346147537,-0.0010442668572068214,0.0010356889106333256
1761391722360084200,3.165084228515625,-0.0005156388506293297,0.0010319333523511887,0.0000013173557817935944
1761391722370150400,3.175150390625,-0.00025921035557985306,0.0012462930753827095,-0.002748440485447645
1761391722380216300,3.18521630859375,0.0020361682400107384,0.002563757821917534,0.0011925054714083672
1761391722390283300,3.195283203125,0.0002897484228014946,0.000009765848517417908,0.002405291423201561
1761391722400349400,3.205349365234375,0.0015819142572581768,-0.0005023600533604622,-0.0008315141312777996
1761391722410415400,3.215415283203125,0.0020039398223161697,0.00038089044392108917,0.00028668995946645737
1761391722420481500,3.2254814453125,-0.0015492495149374008,0.00043575093150138855,-0.0005564666353166103
1761391722430547500,3.23554736328125,-0.0002924390137195587,0.0008500302210450172,0.0011585643514990807
1761391722440613400,3.24561328125,0.001412516925483942,-0.0002804817631840706,-0.0005724900402128696
1761391722450679300,3.25567919921875,0.00004863785579800606,-0.0005212416872382164,-0.00021923240274190903
1761391722460745200,3.2657451171875,0.00003452319651842117,0.001737917773425579,0.00013656634837388992
1761391722470811400,3.275811279296875,0.0015105688944458961,-0.00015005096793174744,0.0033138454891741276
1761391722480878300,3.28587841796875,0.001298314891755581,0.0011652838438749313,-0.0015237866900861263
1761391722490944500,3.295944580078125,0.0007855868898332119,-0.0008531790226697922,0.0017009666189551353
1761391722501010400,3.306010498046875,-0.0019180546514689922,0.0011846711859107018,-0.0007837628945708275
1761391722511076400,3.316076416015625,0.0006039259023964405,0.0005882987752556801,0.0010134987533092499
1761391722521142500,3.326142578125,0.001052402425557375,-0.0008601946756243706,-0.0005721468478441238
1761391722531208400,3.33620849609375,-0.0005149589851498604,-0.0013959817588329315,0.00046215998008847237
1761391722541274600,3.346274658203125,-0.001435880083590746,-0.00021247286349534988,0.0003971788100898266
1761391722551340500,3.356340576171875,0.0036513630766421556,0.00010112021118402481,-0.0012823878787457943
1761391722561406700,3.36640673828125,0.0019402820616960526,-0.0015745405107736588,-0.0008315145969390869
1761391722571472600,3.37647265625,0.0005567623302340508,-0.000296236015856266,0.0029713106341660023
1761391722581539600,3.38653955078125,-0.00080144964158535,-0.0009835977107286453,-0.0014460748061537743
1761391722591605800,3.396605712890625,-0.0012535937130451202,-0.0014664558693766594,0.0009404215961694717
1761391722601671400,3.40667138671875,0.002581890905275941,-0.00020464975386857986,-0.00039941491559147835
1761391722611737600,3.416737548828125,0.00013537704944610596,0.000876324251294136,0.001094588078558445
1761391722621803500,3.426803466796875,-0.0024654665030539036,0.002079539932310581,-0.0015019942075014114
1761391722631869400,3.436869384765625,0.0013793897815048695,0.0007978323847055435,-0.0021940073929727077
1761391722641935600,3.446935546875,-0.002557561732828617,-0.0013007381930947304,-0.0003822590224444866
1761391722652001500,3.45700146484375,0.00001761922612786293,0.0026121921837329865,0.0021300516091287136
1761391722662067700,3.467067626953125,-0.00039170868694782257,-0.0022488757967948914,0.0034552407450973988
1761391722672133400,3.47713330078125,0.00017410842701792717,0.0015952745452523232,0.003130755852907896
1761391722682200300,3.487200439453125,-0.0020115477964282036,-0.0024745678529143333,-0.0006551933474838734
1761391722692266500,3.4972666015625,0.001833633054047823,0.0005988860502839088,-0.002287523355334997
1761391722702332400,3.50733251953125,0.001293277833610773,0.0005677277222275734,0.0009908275678753853
1761391722712398600,3.517398681640625,-0.00021972507238388062,-0.0025039836764335632,-0.0006696120835840702
1761391722722464500,3.527464599609375,-0.0018389266915619373,0.0014777081087231636,0.0011043194681406021
1761391722732530700,3.53753076171875,-0.0018834983929991722,-0.001790044829249382,-0.00023796921595931053
1761391722742596600,3.5475966796875,-0.0008693668060004711,-0.0004283702000975609,0.003045441582798958
1761391722752662800,3.557662841796875,-0.00028570089489221573,-0.00023129116743803024,-0.00016643479466438293
1761391722762728400,3.567728515625,-0.00001006387174129486,-0.0018017571419477463,-0.0017454233020544052
1761391722772794400,3.57779443359375,0.0007729264907538891,-0.0011929059401154518,0.000666080042719841
1761391722782861600,3.587861572265625,-0.00021697068586945534,0.00092350784689188,-0.00013792887330055237
1761391722792927500,3.597927490234375,-0.0023813783191144466,-0.001583256758749485,-0.0005145017057657242
1761391722802993400,3.607993408203125,-0.000683080404996872,0.0030703507363796234,0.00025381986051797867
1761391722813059600,3.6180595703125,0.002608512295410037,-0.0008107088506221771,0.000646667554974556
1761391722823125500,3.62812548828125,0.0012596212327480316,0.00014643091708421707,-0.0013573616743087769
1761391722833191700,3.638191650390625,-0.0006093154661357403,0.0004412773996591568,-0.0014513763599097729
1761391722843257300,3.64825732421875,-0.00012621842324733734,-0.0006495537236332893,0.0020003472454845905
1761391722853323500,3.658323486328125,-0.0013576638884842396,0.0007375320419669151,-0.0001611257903277874
1761391722863389400,3.668389404296875,0.0005198647268116474,-0.0013139015063643456,0.000011713709682226181
1761391722873456400,3.678456298828125,0.0003187684342265129,-0.00102216936647892,0.0017628418281674385
1761391722883522600,3.6885224609375,0.0005003958940505981,0.0007685404270887375,-0.0006561079062521458
1761391722893588500,3.69858837890625,0.0005133668892085552,-0.0006472505629062653,-0.0008304561488330364
1761391722903654700,3.708654541015625,-0.0015412615612149239,0.0016292193904519081,-0.0016328664496541023
1761391722913720600,3.718720458984375,0.001019323244690895,-0.002101154997944832,0.0011811871081590652
1761391722923786800,3.728786865234375,-0.0012086774222552776,0.00012178625911474228,0.001149228774011135
1761391722933852400,3.738852294921875,-0.0025460273027420044,0.0003752186894416809,0.001604745164513588
1761391722943918600,3.748918701171875,-0.001394743099808693,0.0025403685867786407,-0.00023523252457380295
1761391722953984500,3.758984619140625,-0.0002502300776541233,0.002381952479481697,-0.0014374935999512672
1761391722964050400,3.769050537109375,-0.0011048386804759502,0.0012631593272089958,-0.0018257824704051018
1761391722974117600,3.77911767578125,0.0030823368579149246,-0.00008032936602830887,0.0018695658072829247
1761391722984183600,3.78918359375,0.0002117156982421875,0.006668919697403908,0.003080771304666996
1761391722994249500,3.79924951171875,-0.001382963266223669,0.0015396596863865852,-0.0025631668977439404
1761391723004315600,3.809315673828125,0.0003129378892481327,0.00039955973625183105,-0.0006891004741191864
1761391723014381600,3.819381591796875,-0.001065220683813095,-0.0005528144538402557,-0.00017280690371990204
1761391723024447500,3.829447509765625,-0.0025579221546649933,-0.00025880057364702225,-0.0014841477386653423
1761391723034513400,3.839513427734375,0.0010841111652553082,0.0016203001141548157,0.0003601894713938236
1761391723044579600,3.84957958984375,-0.0007777046412229538,0.0034309839829802513,0.0016363761387765408
1761391723054645500,3.8596455078125,0.0016954843886196613,0.0006102304905653,-0.0005469610914587975
1761391723064711700,3.869711669921875,0.0000568414106965065,-0.0002574268728494644,0.0017974190413951874
1761391723074778600,3.879778564453125,0.001509097870439291,-0.0009984709322452545,0.0013225395232439041
1761391723084844500,3.889844482421875,-0.0024891062639653683,0.0008066194131970406,0.0016208132728934288
1761391723094910700,3.89991064453125,0.0012252293527126312,-0.0005339626222848892,-0.0006212340667843819
1761391723104976600,3.9099765625,0.0023831715807318687,0.0010964246466755867,-0.0004555853083729744
1761391723115042600,3.92004248046875,0.001619537826627493,0.0028109876438975334,-0.0002905861474573612
1761391723125108500,3.9301083984375,-0.0006595952436327934,0.0003403732553124428,-0.00013612257316708565
1761391723135174400,3.94017431640625,0.0011192569509148598,0.003273353911936283,0.0005092178471386433
1761391723145240600,3.950240478515625,-0.0021412516944110394,-0.000019378960132598877,0.002205119002610445
1761391723155306500,3.960306396484375,0.002060159109532833,-0.0010564234107732773,-0.002416193950921297
1761391723165372700,3.97037255859375,0.0028567106928676367,0.0004511922597885132,-0.0005280124023556709
1761391723175439600,3.980439697265625,0.00005138479173183441,0.0002775946632027626,0.0011883936822414398
1761391723185505500,3.990505615234375,-0.0007361122407019138,-0.00018712691962718964,0.0003020940348505974
1761391723195571700,4.00057177734375,0.0009628585539758205,0.001536305993795395,-0.003943262621760368
1761391723205637400,4.010637451171875,-0.0008763205260038376,0.00168624147772789,-0.000528823584318161
1761391723215703600,4.02070361328125,0.0004015234299004078,0.0014473553746938705,-0.000008026603609323502
1761391723225769500,4.03076953125,0.0020138011313974857,-0.0007779821753501892,-0.0029020835645496845
1761391723235835600,4.040835693359375,0.0013591311872005463,0.0004771305248141289,-0.00008176825940608978
1761391723245901600,4.050901611328125,-0.00029176240786910057,0.000231853686273098,0.002163809258490801
1761391723255967700,4.0609677734375,0.0016198419034481049,-0.0011640330776572227,0.003473029937595129
1761391723266033700,4.07103369140625,0.0013772277161478996,0.0014477288350462914,-0.0018080184236168861
1761391723276100600,4.0811005859375,-0.0002788035199046135,0.0006376812234520912,0.0007456704042851925
1761391723286166500,4.09116650390625,0.0005419827066361904,0.0037383995950222015,-0.00032891519367694855
1761391723296232400,4.101232421875,-0.00030512968078255653,-0.0004503857344388962,0.0010433210991322994
1761391723306298400,4.11129833984375,-0.00107877841219306,0.0013696188107132912,-0.00022487621754407883
1761391723316364500,4.121364501953125,0.0002715042792260647,0.00015390850603580475,-0.00249061593785882
1761391723326430500,4.131430419921875,9.271316230297089e-7,-0.0002519572153687477,-0.0020613144151866436
1761391723336496600,4.14149658203125,-0.0009857676923274994,0.001062905415892601,0.0011272672563791275
1761391723346562600,4.1515625,0.0015961667522788048,-0.0009922562167048454,-0.004557516425848007
1761391723356628700,4.161628662109375,-0.00038657616823911667,0.0004637008532881737,-0.0005310946144163609
1761391723366694400,4.1716943359375,0.0002563111484050751,0.00013107247650623322,-0.00016863830387592316
1761391723376761300,4.18176123046875,0.0036594541743397713,-0.001985308714210987,0.00162537582218647
1761391723386827500,4.19182763671875,-0.000529964454472065,0.001173732802271843,0.0021910304203629494
1761391723396893400,4.2018935546875,0.0025610183365643024,-0.0006776805967092514,-0.0004509813152253628
1761391723406959600,4.211959716796875,0.0011897566728293896,0.0007231421768665314,0.0003764629364013672
1761391723417025500,4.222025634765625,-0.0009789573960006237,-0.00032406486570835114,-0.00044422829523682594
1761391723427091700,4.232091796875,0.0005385116674005985,0.0026698606088757515,-0.0045793186873197556
1761391723437157600,4.24215771484375,0.003540629055351019,0.0000014221295714378357,0.0004460616037249565
1761391723447223600,4.2522236328125,-0.00036463048309087753,-0.0002587689086794853,0.0023377053439617157
1761391723457289500,4.26228955078125,0.00016104616224765778,-0.00021939165890216827,-0.0013838610611855984
1761391723467355400,4.27235546875,-0.00027917418628931046,-0.0010255305096507072,-0.0001092720776796341
1761391723477422600,4.282422607421875,0.0026841110084205866,-0.00045647192746400833,-0.00070179533213377
1761391723487488500,4.292488525390625,-0.0001763901673257351,-0.0013430388644337654,0.0026069157756865025
1761391723497554400,4.302554443359375,-0.00026416080072522163,-0.0002540918067097664,-0.000023842789232730865
1761391723507620600,4.31262060546875,-0.00047801248729228973,-0.0001848498359322548,0.0019993609748780727
1761391723517686500,4.3226865234375,-0.0006617624312639236,-0.000028843991458415985,-0.0006670048460364342
1761391723527752400,4.33275244140625,-0.0011595073156058788,0.0004585143178701401,-0.0006456999108195305
1761391723537818400,4.342818359375,0.0006054248660802841,0.0014679394662380219,-0.0006297486834228039
1761391723547884500,4.352884521484375,-0.001188746653497219,-0.0006391536444425583,0.0007716063410043716
1761391723557950500,4.362950439453125,0.002715321257710457,0.0008359318599104881,-0.0015240898355841637
1761391723568016600,4.3730166015625,-0.002032295800745487,-0.00042321067303419113,-0.0004055625759065151
1761391723578083600,4.38308349609375,-0.00018714182078838348,-0.0028862077742815018,-0.0025218897499144077
1761391723588149500,4.3931494140625,-0.0036178259178996086,0.00039667077362537384,0.0014566071331501007
1761391723598215700,4.403215576171875,-0.00006694765761494637,-0.0004359288141131401,-0.0006526550278067589
1761391723608281600,4.413281494140625,0.0006435834802687168,-0.002588828094303608,-0.0001945910044014454
1761391723618347500,4.423347412109375,0.0005211229436099529,0.0012735780328512192,0.001186093781143427
1761391723628413400,4.433413330078125,-0.0024552256800234318,0.0010346919298171997,-0.0016307313926517963
1761391723638479400,4.443479248046875,-0.0001842719502747059,0.0027226824313402176,-0.0011372496373951435
1761391723648545500,4.453545654296875,0.00034436536952853203,-0.00024194736033678055,-0.001804105006158352
1761391723658611500,4.463611572265625,-0.00022804131731390953,-0.0019450271502137184,0.001295099500566721
1761391723668677600,4.473677734375,-0.000008862931281328201,0.001961030997335911,-0.0010314378887414932
1761391723678744600,4.48374462890625,0.0013143690302968025,0.001282472163438797,0.00009124260395765305
1761391723688810500,4.493810546875,0.0026411558501422405,1.601874828338623e-7,-0.0021897549740970135
1761391723698876700,4.503876708984375,-0.0013043032959103584,-0.0005630608648061752,-0.0011801263317465782
1761391723708942300,4.5139423828125,0.0019916249439120293,-0.0007348349317908287,-0.0015899869613349438
1761391723719008500,4.524008544921875,0.0002861875109374523,-0.0012957705184817314,0.0016906638629734516
1761391723729074400,4.534074462890625,0.0013655666261911392,0.0009514046832919121,-0.000011362135410308838
1761391723739140600,4.544140625,0.000794433057308197,0.0016631968319416046,0.0029640886932611465
1761391723749206500,4.55420654296875,-0.000008509960025548935,0.001193947158753872,-0.001374466810375452
1761391723759272400,4.5642724609375,-0.001740132924169302,-0.0016773398965597153,0.00013443594798445702
1761391723769338600,4.574338623046875,-0.001420553307980299,-0.0021343380212783813,-0.0015896945260465145
1761391723779405600,4.584405517578125,-0.001140811014920473,0.0008951360359787941,-0.003178057260811329
1761391723789471500,4.594471435546875,-0.0013501355424523354,-0.0003096777945756912,0.000323733314871788
1761391723799537400,4.604537353515625,0.0005401535890996456,0.0021955864503979683,-0.002281024120748043
1761391723809603300,4.614603271484375,-0.0007541426457464695,-0.0008579930290579796,0.00059492327272892
1761391723819669500,4.62466943359375,-0.0010114056058228016,-0.00045245327055454254,-0.0026360079646110535
1761391723829735400,4.6347353515625,0.0013295132666826248,-0.0032066944986581802,0.001738766673952341
1761391723839801600,4.644801513671875,-0.0020893914625048637,-0.0024929316714406013,-0.0007418827153742313
1761391723849867500,4.654867431640625,-0.0011695357970893383,-0.003536890260875225,0.0019124899990856647
1761391723859933700,4.66493359375,0.0010430319234728813,-0.0019999910145998,-0.0002684439532458782
1761391723869999400,4.674999267578125,0.0016864514909684658,-0.0010729450732469559,0.0027313409373164177
1761391723880066300,4.68506640625,-0.0014373664744198322,-0.0033812914043664932,-0.0005137291736900806
1761391723890132500,4.695132568359375,0.00017890660092234612,-0.0009530214592814445,0.0013691261410713196
1761391723900198400,4.705198486328125,0.000765764620155096,0.0015412988141179085,0.0014324183575809002
1761391723910264600,4.7152646484375,0.002114123199135065,-0.0006052087992429733,0.0003442508168518543
1761391723920330500,4.72533056640625,-0.0021519921720027924,0.0012602228671312332,-0.0017861928790807724
1761391723930396700,4.735396728515625,-0.00072427187114954,0.0007949685677886009,-0.0018170853145420551
1761391723940462600,4.745462646484375,-0.0011507179588079453,0.00010702572762966156,0.001680026762187481
1761391723950528500,4.755528564453125,-0.00031049083918333054,-0.001298590563237667,0.0006597694009542465
1761391723960594400,4.765594482421875,-0.00008169375360012054,-0.0018979990854859352,0.0009703603573143482
1761391723970660400,4.775660400390625,0.00008848262950778008,-0.00002313312143087387,-0.00042753294110298157
1761391723980727600,4.7857275390625,-0.0022240369580686092,-0.0018943287432193756,-0.0017373035661876202
1761391723990793500,4.79579345703125,0.0002463115379214287,0.0012665772810578346,0.0031381454318761826
1761391724000859400,4.805859375,0.0003887033089995384,-0.002383824437856674,0.0029830317944288254
1761391724010925600,4.815925537109375,-0.0009593884460628033,0.0012673698365688324,0.0010005747899413109
1761391724020991500,4.825991455078125,0.0015648785047233105,-0.003524377942085266,0.0016296259127557278
1761391724031057700,4.8360576171875,-0.001034633256494999,-0.00030115339905023575,0.0002280040644109249
1761391724041123300,4.846123291015625,0.001720112282782793,0.002353038638830185,0.0035651191137731075
1761391724051189500,4.856189453125,-0.0009230752475559711,-0.002079259604215622,-0.0004645097069442272
1761391724061255400,4.86625537109375,-0.0012877658009529114,-0.00014187395572662354,-0.0003808075562119484
1761391724071321600,4.876321533203125,-0.0034715579822659492,-0.001058001071214676,0.0006940444000065327
1761391724081388500,4.886388427734375,0.00006180582568049431,-0.00013578403741121292,0.0030853934586048126
1761391724091454500,4.896454345703125,-0.0022913627326488495,0.0033156732097268105,0.00048295222222805023
1761391724101520600,4.906520751953125,0.0005005206912755966,0.0016523627564311028,-0.00008186232298612595
1761391724111586600,4.916586669921875,-0.0010981750674545765,0.004434832371771336,-0.005681158509105444
1761391724121652500,4.926652587890625,0.0023058434017002583,0.00021930411458015442,0.0022254157811403275
1761391724131718400,4.936718505859375,0.0038864295929670334,0.003481677733361721,-0.00479920394718647
1761391724141784300,4.946784423828125,0.0014466522261500359,0.0012744097039103508,-0.0015215887688100338
1761391724151850500,4.9568505859375,0.0017590411007404327,0.00002059340476989746,-0.0012294398620724678
1761391724161916400,4.96691650390625,0.0006696605123579502,0.00045516621321439743,0.00011563906446099281
1761391724171982600,4.976982666015625,0.0012630126439034939,0.0006541050970554352,0.0023889136500656605
1761391724182048500,4.987048583984375,-0.0006895726546645164,0.0005677714943885803,-0.0026958235539495945
1761391724192115500,4.997115478515625,0.0009160470217466354,0.000049520283937454224,0.0009710830636322498
1761391724202181600,5.007181640625,0.0016140146180987358,-0.0013016024604439735,-0.0007100002840161324
1761391724212247600,5.01724755859375,-0.0020659412257373333,0.0011272002011537552,-0.0015824520960450172
1761391724222313500,5.0273134765625,0.0008537909016013145,-0.002930937334895134,-0.0005223006010055542
1761391724232379400,5.03737939453125,0.0001243511214852333,-0.0013985540717840195,-0.00044134072959423065
1761391724242445600,5.047445556640625,0.0008129202760756016,-0.0012240111827850342,0.0007861345075070858
1761391724252511500,5.057511474609375,0.0019213282503187656,-0.0017119022086262703,0.002049804199486971
1761391724262577400,5.067577392578125,-0.0003359518013894558,-0.0017590420320630074,-0.00009050080552697182
1761391724272643600,5.0776435546875,0.0006302427500486374,-0.0006445087492465973,0.0022157966159284115
1761391724282709500,5.08770947265625,-0.0022000661119818687,-0.0003727860748767853,-0.002789200283586979
1761391724292776700,5.097776611328125,-0.001490599475800991,-0.0015783989802002907,0.0024194098077714443
1761391724302842600,5.107842529296875,0.0021941843442618847,-0.0032000578939914703,0.001979230437427759
1761391724312908300,5.117908203125,0.001032513566315174,0.00029427558183670044,-0.0005438481457531452
1761391724322974500,5.127974365234375,-0.0003836727701127529,-0.0013311123475432396,-0.00013522431254386902
1761391724333040400,5.138040283203125,0.0003984975628554821,-0.0009292410686612129,0.0019449708051979542
1761391724343106600,5.1481064453125,0.00032250816002488136,-0.0007915599271655083,0.0009783967398107052
1761391724353172500,5.15817236328125,-0.0002127871848642826,-0.0012195296585559845,0.00006839493289589882
1761391724363238700,5.16823876953125,-0.00022630300372838974,0.000262971967458725,0.003227223176509142
1761391724373304600,5.1783046875,-0.0010891668498516083,-0.001898449845612049,-0.0017403708770871162
1761391724383370500,5.18837060546875,-0.002551604527980089,-0.0002991482615470886,-0.0009330199100077152
1761391724393437400,5.1984375,-0.0001742006279528141,0.00164815504103899,0.002842810470610857
1761391724403503400,5.20850341796875,-0.002086073625832796,-0.0003400435671210289,0.0034768213517963886
1761391724413569500,5.218569580078125,-0.001060490496456623,0.0004732860252261162,-0.0008790451101958752
1761391724423635500,5.228635498046875,0.0005484274588525295,-0.00017225928604602814,0.0008381265215575695
1761391724433701600,5.23870166015625,0.0013039661571383476,0.000562240369617939,-0.00047694239765405655
1761391724443767600,5.248767578125,0.0009231595322489738,0.001153525896370411,-0.0029127895832061768
1761391724453833500,5.25883349609375,-0.00005395431071519852,-0.0011250749230384827,-0.0024137133732438087
1761391724463899600,5.268899658203125,-0.0005883709527552128,0.0009389631450176239,0.000011420808732509613
1761391724473965300,5.27896533203125,0.0014159241691231728,0.0027283411473035812,-0.0028823697939515114
1761391724484031500,5.289031494140625,-0.0003485321067273617,-0.0012161610648036003,-0.002347305417060852
1761391724494098400,5.299098388671875,0.0011763940565288067,0.003257150761783123,0.0002343631349503994
1761391724504164400,5.309164306640625,-0.001040325965732336,-0.0003512287512421608,0.0012717056088149548
1761391724514230500,5.31923046875,0.002378373872488737,0.0014898143708705902,-0.0008199410513043404
1761391724524296400,5.32929638671875,-0.000274518970400095,-0.0003054169937968254,-0.00008359365165233612
1761391724534362000,5.339362060546875,0.0023247264325618744,-0.0012883897870779037,0.0012730206362903118
1761391724544428000,5.349427978515625,0.000116709154099226,-0.000700448639690876,-0.0006056744605302811
1761391724554494200,5.359494140625,-0.0002273712307214737,0.001496126875281334,0.0003991364501416683
1761391724564560100,5.36956005859375,-0.00027947407215833664,0.0005166055634617805,0.00016903923824429512
1761391724574626300,5.379626220703125,0.003367725061252713,0.0010708095505833626,0.0024657496251165867
1761391724584692200,5.389692138671875,0.001148240640759468,-0.0001787310466170311,-0.0006863870657980442
1761391724594758100,5.399758056640625,0.0002278522588312626,-0.00020083505660295486,0.0003482508473098278
1761391724604825000,5.4098251953125,0.002639897633343935,0.002322412095963955,-0.00324096716940403
1761391724614891000,5.41989111328125,0.0014819554053246975,-0.0008877627551555634,-0.0008451878093183041
1761391724624957200,5.429957275390625,0.0006368402391672134,0.0017785923555493355,-0.002970028668642044
1761391724635023000,5.440023193359375,0.0021705543622374535,0.0011423630639910698,0.000016173813492059708
1761391724645089000,5.450089111328125,0.0009224442765116692,-0.0002962872385978699,-0.0005526961758732796
1761391724655155200,5.4601552734375,0.0005541290156543255,0.000545538030564785,0.0023884992115199566
1761391724665221000,5.47022119140625,0.0006902865134179592,0.0037578577175736427,-0.0010432968847453594
1761391724675287300,5.480287353515625,-0.0007486194372177124,0.001132514327764511,0.0003857552073895931
1761391724685353000,5.49035302734375,-0.0008425950072705746,0.0002179248258471489,-0.0030014729127287865
1761391724695420000,5.500419921875,-0.00011049211025238037,-0.0011514723300933838,0.0007189628668129444
1761391724705486000,5.510486083984375,-0.00029559340327978134,0.0006928080692887306,0.0012838379479944706
1761391724715552000,5.520552001953125,0.0016080341301858425,0.0011058645322918892,0.0023722718469798565
1761391724725618200,5.5306181640625,-0.0005894182249903679,0.00014316849410533905,0.0006525032222270966
1761391724735684000,5.54068408203125,0.0011032866314053535,0.0025892825797200203,-0.00027401046827435493
1761391724745750300,5.550750244140625,-0.00005379552021622658,0.0003007166087627411,-0.0012739361263811588
1761391724755816200,5.560816162109375,0.001376322004944086,0.00032495148479938507,0.0012576649896800518
1761391724765882000,5.570882080078125,0.0000072838738560676575,0.000598197802901268,-0.0016154628247022629
1761391724775948000,5.580947998046875,-0.00015197275206446648,0.0013534696772694588,0.0010146754793822765
1761391724786014200,5.59101416015625,-0.0018005166202783585,0.00005112309008836746,-0.0004709474742412567
1761391724796080000,5.601080078125,-0.00011500203981995583,-0.00009828060865402222,0.0018095173873007298
1761391724806147000,5.61114697265625,-0.002228441182523966,-0.001939535140991211,0.00043149059638381004
1761391724816213200,5.621213134765625,-0.002439629752188921,-0.0020929332822561264,-0.0015075569972395897
1761391724826279200,5.631279052734375,-0.0005529094487428665,-0.0025269072502851486,-0.0007030032575130463
1761391724836345000,5.641344970703125,0.0016127731651067734,0.0007429216057062149,0.00020140642300248146
1761391724846411300,5.651411376953125,0.0005501545965671539,0.00011823046952486038,-0.0004451149143278599
1761391724856477000,5.661476806640625,0.000042555853724479675,0.0009557940065860748,-0.0025133262388408184
1761391724866543000,5.671543212890625,0.0003237673081457615,-0.0018535135313868523,0.00109569588676095
1761391724876609000,5.681609130859375,-0.00036998651921749115,-0.0020130369812250137,0.0011646714992821217
1761391724886675200,5.69167529296875,0.0014591747894883156,-0.00045573897659778595,0.0004939818754792213
1761391724896741000,5.7017412109375,-0.0002726786769926548,-0.00035693589597940445,-0.0004269392229616642
1761391724906808000,5.71180810546875,0.000823222566395998,-0.0010524634271860123,0.0021637692116200924
1761391724916874200,5.721874267578125,-0.0011581690050661564,-0.0001395316794514656,0.0034223790280520916
1761391724926940200,5.731940185546875,-0.000802985392510891,-0.001990256831049919,0.0024365102872252464
1761391724937006300,5.74200634765625,0.0016561774536967278,-0.0013186074793338776,0.0004375409334897995
1761391724947072000,5.752072021484375,0.00013266969472169876,0.0018448298797011375,-0.00000776723027229309
1761391724957138200,5.76213818359375,-0.00004496332257986069,0.00024134013801813126,-0.00024585379287600517
1761391724967204000,5.7722041015625,0.00011111563071608543,-0.00008342228829860687,0.0010203453712165356
1761391724977270000,5.78227001953125,-0.000538162887096405,0.0011978242546319962,0.0018206252716481686
1761391724987336200,5.792336181640625,-0.0008399891667068005,0.00011325813829898834,0.0022867978550493717
1761391724997402000,5.802402099609375,-0.0007715458050370216,-0.0004968717694282532,-0.0012650596909224987
1761391725007468300,5.81246826171875,-0.00033282535150647163,0.0011924710124731064,-0.000085439532995224
1761391725017535200,5.82253515625,0.00113670714199543,0.000430806539952755,0.0012645162642002106
1761391725027601200,5.83260107421875,0.0008399980142712593,0.00028079189360141754,0.0002464461140334606
1761391725037667000,5.8426669921875,-0.0003238036297261715,-0.000612432137131691,0.0020435466431081295
1761391725047733000,5.85273291015625,0.0014059455133974552,-0.0003178184852004051,0.0012247627601027489
1761391725057799200,5.862799072265625,-0.0012870430946350098,0.0008217478170990944,0.0033526290208101273
1761391725067865000,5.872864990234375,-0.0004526805132627487,-0.00006201770156621933,-0.0012955921702086926
1761391725077931300,5.88293115234375,-0.0020231460221111774,0.00122801773250103,-0.0007235449738800526
1761391725087997200,5.8929970703125,0.002093682996928692,-0.0010265521705150604,0.0027496851980686188
1761391725098063000,5.90306298828125,0.0010987259447574615,-0.0012244246900081635,0.0019709765911102295
1761391725108129000,5.91312890625,-0.000436621718108654,0.0012309327721595764,-0.0011062235571444035
1761391725118196000,5.923196044921875,-0.0007095956243574619,-0.00042635202407836914,0.001976385712623596
1761391725128262100,5.93326220703125,0.0007567144930362701,-0.0010289829224348068,-0.002295425161719322
1761391725138328000,5.943328125,-0.001592992339283228,-0.0007056752219796181,-0.0011401460506021976
1761391725148394000,5.95339404296875,-0.00010744761675596237,0.00003997050225734711,-0.0014206920750439167
1761391725158460200,5.963460205078125,0.00039668846875429153,-0.001661522313952446,0.001926901750266552
1761391725168526000,5.973526123046875,0.0007997932843863964,-0.0012876307591795921,-0.0016337912529706955
1761391725178592300,5.98359228515625,-0.0011171498335897923,-0.0009187832474708557,-0.0002428223378956318
1761391725188658200,5.993658203125,-0.0004935180768370628,-0.0002601165324449539,-0.0022049411199986935
1761391725198724000,6.00372412109375,0.001181610394269228,-0.0014271140098571777,0.0006422447040677071
1761391725208790000,6.0137900390625,-0.0002867896109819412,-0.0004104049876332283,-0.001748417504131794
1761391725218857000,6.02385693359375,0.001564640086144209,0.0015544751659035683,-0.0003009894862771034
1761391725228923100,6.033923095703125,0.0010976726189255714,0.0019014636054635048,0.0011095013469457626
1761391725238989000,6.043989013671875,0.00011683069169521332,-0.004315951839089394,0.00021494552493095398
1761391725249055200,6.05405517578125,-0.0019929222762584686,0.0004507061094045639,-0.0017795325256884098
1761391725259121200,6.06412109375,0.00026224274188280106,0.0003377879038453102,0.0020924368873238564
1761391725269187300,6.074187255859375,0.00045391079038381577,0.0004703644663095474,0.0011035343632102013
1761391725279253200,6.084253173828125,0.0026504858396947384,0.0007787588983774185,-0.0009716004133224487
1761391725289319000,6.09431884765625,-0.0004957928322255611,-0.0004922524094581604,0.002220442518591881
1761391725299385000,6.104385009765625,-0.002056138589978218,-0.0024243760854005814,0.00035117007791996
1761391725309451000,6.114450927734375,-0.0008372822776436806,-0.0018951641395688057,-0.0017240731976926327
1761391725319517200,6.12451708984375,-0.00024206610396504402,-0.0006962092593312263,0.001489829272031784
1761391725329584000,6.134584228515625,0.0006178799085319042,-0.0019701672717928886,0.0007260171696543694
1761391725339650000,6.144650146484375,0.000013874843716621399,0.0003537070006132126,0.000019480474293231964
1761391725349716200,6.15471630859375,-0.0014384160749614239,-0.0009284690022468567,-0.0015139817260205746
1761391725359782100,6.1647822265625,0.00018930761143565178,-0.0005606869235634804,0.002047196961939335
1761391725369849000,6.17484912109375,0.0009806584566831589,-0.0016294820234179497,-0.0017211837694048882
1761391725379915300,6.184915283203125,0.0005628084763884544,-0.001023879274725914,-0.0011105206795036793
1761391725389981000,6.19498095703125,0.0004707123152911663,-0.0003879452124238014,-0.00169836962595582
1761391725400047000,6.205047119140625,0.0018691383302211761,-0.0007125847041606903,0.0032532457262277603
1761391725410113000,6.215113037109375,0.0011852020397782326,-0.00007858965545892715,-0.001875248271971941
1761391725420179200,6.22517919921875,0.002638222649693489,-0.002334287390112877,0.0012832609936594963
1761391725430245000,6.2352451171875,-0.0022992505691945553,-0.00298482459038496,0.002488323487341404
1761391725440311300,6.245311279296875,0.00011117663234472275,0.00071696937084198,0.001730388030409813
1761391725450378200,6.255378173828125,-0.001756066456437111,-0.002103586681187153,0.0008764239028096199
1761391725460444200,6.265444091796875,0.0011047013103961945,-0.00042446330189704895,0.0009286217391490936
1761391725470510300,6.27551025390625,-0.0011392817832529545,-0.0009953966364264488,-0.0017340690828859806
1761391725480576000,6.285575927734375,0.0007515624165534973,-0.000333334319293499,0.0000723525881767273
1761391725490642200,6.29564208984375,0.0012721163220703602,0.002064492553472519,-0.002925537060946226
1761391725500708000,6.3057080078125,0.00032775942236185074,-0.00042289961129426956,0.00009262282401323318
1761391725510774000,6.31577392578125,-0.0009546000510454178,0.001791088841855526,-0.0025478824973106384
1761391725520840200,6.325840087890625,0.001517612487077713,-0.0016044415533542633,-0.0001353248953819275
1761391725530906000,6.335906005859375,-0.00005776016041636467,0.00007651932537555695,-0.0021039764396846294
1761391725540972300,6.34597216796875,0.0001710052601993084,0.0003287205472588539,0.0006127143278717995
1761391725551039200,6.356039306640625,0.002610870636999607,0.0023896191269159317,-0.0013391654938459396
1761391725561105200,6.366105224609375,0.0002720826305449009,0.00037094298750162125,-0.0013428935781121254
1761391725571171300,6.37617138671875,0.0003465344198048115,-0.000303720124065876,-0.0013175318017601967
1761391725581237200,6.3862373046875,0.0005587879568338394,-0.002535714767873287,0.0031595081090927124
1761391725591303400,6.396303466796875,0.001044473610818386,0.0008645132184028625,0.004181466065347195
1761391725601369300,6.406369384765625,-0.0008588875643908978,-0.0010740011930465698,-0.001707049086689949
1761391725611435500,6.416435546875,0.0012773522175848484,0.0005311109125614166,0.0011256160214543343
1761391725621501200,6.426501220703125,0.00038093235343694687,0.0020235450938344,-0.002542089205235243
1761391725631567400,6.4365673828125,0.0013624811545014381,0.0014222757890820503,-0.000021544285118579865
1761391725641633300,6.44663330078125,-0.00029826583340764046,0.0017304038628935814,-0.0027124020271003246
1761391725651699200,6.45669921875,-0.00016961852088570595,-0.0014657620340585709,-0.0009780596010386944
1761391725661766400,6.466766357421875,-0.0012841513380408287,0.00012600887566804886,-0.0024071121588349342
1761391725671832300,6.476832275390625,-0.0008096634410321712,-0.0023315194994211197,0.0006798002868890762
1761391725681898200,6.486898193359375,0.000948555301874876,-0.0011346954852342606,-0.001573499757796526
1761391725691964400,6.49696435546875,-0.001515127718448639,0.001285819336771965,0.0008860453963279724
1761391725702030000,6.507030029296875,0.001993320882320404,-0.003444487228989601,-0.0009920159354805946
1761391725712096300,6.51709619140625,0.00038093654438853264,0.0007125167176127434,0.002907389774918556
1761391725722162200,6.527162109375,-0.0017293523997068405,-0.00022331811487674713,-0.0030754017643630505
1761391725732228400,6.537228271484375,-0.000012617558240890503,-0.0020141182467341423,0.001006833277642727
1761391725742294300,6.547294189453125,-0.00024644332006573677,-0.0003440501168370247,0.0036912988871335983
1761391725752360400,6.5573603515625,-0.00043123355135321617,0.00016576331108808517,-0.0001308796927332878
1761391725762427400,6.567427490234375,-0.0010240529663860798,-0.00007844902575016022,0.002044389955699444
1761391725772493300,6.577493408203125,-0.0010045715607702732,0.0021736472845077515,-0.00024050800129771233
1761391725782559500,6.5875595703125,-0.0010282737202942371,-0.0022429395467042923,-0.001434137113392353
1761391725792625200,6.597625244140625,0.0022035613656044006,0.0017011472955346107,0.0005715666338801384
1761391725802691300,6.60769140625,0.0008674534037709236,0.0010127201676368713,-0.00041673239320516586
1761391725812757200,6.61775732421875,-0.0004461826756596565,0.0006422661244869232,-0.0011477298103272915
1761391725822823200,6.6278232421875,0.001509376335889101,0.0035091591998934746,0.00011993478983640671
1761391725832889300,6.637889404296875,0.000738414004445076,-0.0007849503308534622,-0.0011068782769143581
1761391725842955300,6.647955322265625,0.0013552024029195309,0.0016324007883667946,-0.0014227288775146008
1761391725853021400,6.658021484375,0.0009107887744903564,0.0006539206951856613,-0.002890319563448429
1761391725863088400,6.66808837890625,0.0012783054262399673,0.0013671144843101501,-0.0018029510974884033
1761391725873154300,6.678154296875,0.0011980384588241577,0.0033465344458818436,-0.00042427191510796547
1761391725883220200,6.68822021484375,-0.00021503493189811707,0.00019415095448493958,-0.0033920984715223312
1761391725893286100,6.6982861328125,0.0012809890322387218,0.0022592106834053993,-0.0045752134174108505
1761391725903352300,6.708352294921875,0.002481275936588645,0.003868558444082737,-0.0007826057262718678
1761391725913418200,6.718418212890625,-0.0004341909661889076,0.0033561615273356438,-0.0041370876133441925
1761391725923484400,6.728484375,-0.0006989091634750366,0.002127380110323429,0.0001545967534184456
1761391725933550300,6.73855029296875,-0.003560712095350027,0.001008334569633007,0.0003248555585741997
1761391725943616500,6.748616455078125,-0.001375854481011629,-0.001904098317027092,-0.0008160430006682873
1761391725953682200,6.75868212890625,0.0018314286135137081,-0.0032938914373517036,0.0012112529948353767
1761391725963748000,6.768748046875,-0.003265861887484789,-0.0023556603118777275,-0.0003224611282348633
1761391725973815300,6.778815185546875,-0.0007530869916081429,-0.0007910532876849174,0.002019469626247883
1761391725983881200,6.788881103515625,0.001114854123443365,-0.0031189220026135445,0.0004063928499817848
1761391725993947400,6.798947509765625,0.0012125177308917046,-0.0012995852157473564,0.004998014308512211
1761391726004013300,6.809013427734375,-0.0014019072987139225,-0.0009262096136808395,-0.00028756121173501015
1761391726014079200,6.819079345703125,-0.0003931773826479912,-0.0003978237509727478,0.00007057934999465942
1761391726024145400,6.8291455078125,0.000633471179753542,0.0015851659700274467,-0.001463934313505888
1761391726034211300,6.83921142578125,0.00010731304064393044,-0.00007232557982206345,-0.0006463094614446163
1761391726044277200,6.84927734375,0.00002635270357131958,0.001993488520383835,0.00036622490733861923
1761391726054343200,6.85934326171875,0.0015176641754806042,0.002356942743062973,-0.001715660560876131
1761391726064409300,6.869409423828125,0.0013916967436671257,0.002062397077679634,0.002061234787106514
1761391726074476300,6.879476318359375,-0.002135016955435276,0.001275036484003067,-0.0006857858970761299
1761391726084542200,6.889542236328125,0.00046129897236824036,-0.0003734603524208069,-0.0014873971231281757
1761391726094608400,6.8996083984375,0.0009187953546643257,0.0006880946457386017,-0.002774906810373068
1761391726104674300,6.90967431640625,-0.0023438427597284317,-0.0008911602199077606,0.0009263539686799049
1761391726114740500,6.919740478515625,0.00003095390275120735,-0.0014752866700291634,0.0035386914387345314
1761391726124806400,6.929806396484375,-0.0011179335415363312,-0.0013136323541402817,0.0010795285925269127
1761391726134872300,6.939872314453125,-0.00009642262011766434,-0.0010138656944036484,0.0017209267243742943
1761391726144938200,6.949938232421875,-0.0024474607780575752,-0.003984888084232807,0.0038056494668126106
1761391726155004200,6.960004150390625,-0.001457886304706335,-0.0009842021390795708,0.0034908484667539597
1761391726165070300,6.9700703125,-0.002539662644267082,-0.002346675843000412,-0.0029127225279808044
1761391726175136300,6.98013623046875,-0.0025077960453927517,-0.0028588203713297844,-0.0005430858582258224
1761391726185203200,6.990203125,-0.0018728985451161861,-0.0007887445390224457,0.001696898601949215
1761391726195269400,7.000269287109375,-0.0018152468837797642,-0.00016799382865428925,-0.000572392251342535
1761391726205335300,7.010335205078125,-0.00111297145485878,-0.0016678860411047935,0.00034772977232933044
1761391726215401500,7.0204013671875,0.00030887359753251076,-0.002033976837992668,-0.0029368004761636257
1761391726225467100,7.030467041015625,-0.0035889288410544395,-0.001077369786798954,0.00022437144070863724
1761391726235533300,7.040533203125,-0.001045838464051485,-0.0028948234394192696,-0.0003933482803404331
1761391726245599200,7.05059912109375,-0.0014634225517511368,-0.005636547692120075,0.002282063476741314
1761391726255665400,7.06066552734375,-0.00016933772712945938,-0.0013031801208853722,-0.00038273725658655167
1761391726265731300,7.0707314453125,-0.003708945121616125,-0.0030699213966727257,0.00033817999064922333
1761391726275797200,7.08079736328125,-0.002445124089717865,-0.0005951914936304092,-0.000039579346776008606
1761391726285864400,7.090864501953125,-0.0011289902031421661,-0.0011078501120209694,0.0019857538864016533
1761391726295930400,7.100930419921875,-0.0013189851306378841,0.000210639089345932,0.0022969432175159454
1761391726305996300,7.110996337890625,-0.0015165917575359344,-0.0011473074555397034,0.0012655016034841537
1761391726316062200,7.121062255859375,-0.001439366489648819,-0.0026946505531668663,0.0011556772515177727
1761391726326128000,7.131128173828125,-0.002949644811451435,-0.0033199600875377655,-0.001546898391097784
1761391726336194300,7.1411943359375,-0.0011525079607963562,-0.00042174290865659714,-0.0021348497830331326
1761391726346260200,7.15126025390625,-0.002210848033428192,-0.002147205173969269,-0.00204297062009573
1761391726356326400,7.161326416015625,0.0009958459995687008,-0.00010744668543338776,0.0028248149901628494
1761391726366392300,7.171392333984375,-0.0007043164223432541,0.0012060245499014854,-0.0018370486795902252
1761391726376458500,7.18145849609375,0.0016760476864874363,-0.0019628088921308517,0.0016414886340498924
1761391726386524200,7.191524169921875,-0.0002653966657817364,-0.0001499950885772705,0.002182111144065857
1761391726396591000,7.201591064453125,-0.0016491035930812359,-0.0018831733614206314,0.0010810205712914467
1761391726406657300,7.2116572265625,-0.001254422590136528,-0.003324476070702076,0.0011175060644745827
1761391726416723200,7.22172314453125,-0.000941332895308733,-0.0013532154262065887,0.003057059831917286
1761391726426789400,7.231789306640625,-0.0006609018892049789,-0.00163204874843359,-0.0007384773343801498
1761391726436855300,7.241855224609375,-0.001068691723048687,-0.004196145571768284,0.001859431155025959
1761391726446921500,7.25192138671875,0.0019915462471544743,-0.00036971550434827805,0.0011813901364803314
1761391726456987400,7.2619873046875,-0.0006434810347855091,-0.0021697208285331726,0.0003147423267364502
1761391726467053300,7.27205322265625,-0.0023966399021446705,-0.002281040884554386,0.0004122145473957062
1761391726477119200,7.282119140625,-0.0008779107592999935,0.00016287341713905334,0.001206948421895504
1761391726487185200,7.29218505859375,-0.0006669880822300911,0.0010166829451918602,0.0005084015429019928
1761391726497251300,7.302251220703125,0.000911487266421318,-0.00014537572860717773,0.002365575172007084
1761391726507318300,7.312318359375,0.0013991119340062141,0.0016788896173238754,-0.0004832078702747822
1761391726517384200,7.32238427734375,-0.0004505370743572712,-0.0005704667419195175,0.0028377557173371315
1761391726527451000,7.332450927734375,0.00019820919260382652,0.0005485936999320984,0.0006070919334888458
1761391726537516800,7.342516845703125,0.0013657580129802227,0.00034183356910943985,-0.0010365485213696957
1761391726547583000,7.3525830078125,0.0013156905770301819,0.001015080139040947,0.0014042388647794724
1761391726557649000,7.36264892578125,-0.0011354279704391956,-0.0015111733227968216,-0.0013787546195089817
1761391726567714800,7.37271484375,0.0024883351288735867,-0.0006030350923538208,0.00032513588666915894
1761391726577781000,7.382781005859375,0.00011682650074362755,-0.00031990278512239456,0.0010886434465646744
1761391726587847000,7.392846923828125,-0.0025205016136169434,-0.003432871773838997,-0.0017399000935256481
1761391726597912800,7.402912841796875,-0.0026341858319938183,0.0006214817985892296,0.000569111667573452
1761391726607978800,7.412978759765625,-0.0004360121674835682,-0.0031567448750138283,0.0011198539286851883
1761391726618045700,7.423045654296875,0.0002779075875878334,-0.00019514746963977814,0.0002232082188129425
1761391726628112000,7.43311181640625,0.00010799802839756012,0.0029774773865938187,-0.0005049002356827259
1761391726638177800,7.443177734375,-0.0002505616284906864,-0.0013954425230622292,-0.0008484376594424248
1761391726648244000,7.453243896484375,-0.0010234112851321697,0.00196653138846159,-0.0020335442386567593
1761391726658310000,7.463309814453125,0.0024368255399167538,-0.0008357483893632889,-0.0016130385920405388
1761391726668376000,7.4733759765625,0.0025944847147911787,-0.00022694934159517288,0.0004679551348090172
1761391726678441700,7.483441650390625,-0.004011450335383415,-0.0006968583911657333,-0.0007642577402293682
1761391726688508000,7.4935078125,-0.0008374946191906929,-0.0009328145533800125,-0.00017942767590284348
1761391726698573800,7.50357373046875,-0.0003601936623454094,0.00047976430505514145,-0.0019271904602646828
1761391726708639700,7.5136396484375,-0.0004182504490017891,-0.0011660689488053322,-0.0011103986762464046
1761391726718706000,7.523705810546875,-0.0011232774704694748,0.0004944996908307076,0.00028638076037168503
1761391726728772900,7.53377294921875,-0.00034084077924489975,0.0002995561808347702,0.00040063075721263885
1761391726738838800,7.5438388671875,0.00014312705025076866,-0.00017227977514266968,0.0003847423940896988
1761391726748905000,7.553905029296875,0.0017735143192112446,0.0009699501097202301,-0.0014049015007913113
1761391726758971000,7.563970947265625,-0.0012904363684356213,-0.000053023919463157654,-0.00027688173577189445
1761391726769036800,7.574036865234375,0.0001399470493197441,0.00004338286817073822,0.0025663087144494057
1761391726779102700,7.584102783203125,0.0008017895743250847,0.0015933709219098091,0.000012129545211791992
1761391726789169000,7.5941689453125,0.00009099207818508148,-0.00014940090477466583,-0.0007878835313022137
1761391726799234800,7.60423486328125,0.0023579937405884266,0.001418083906173706,-0.0019028722308576107
1761391726809301000,7.614301025390625,0.000895119272172451,0.0007400428876280785,0.0005176747217774391
1761391726819367000,7.624366943359375,0.0012263678945600986,0.000487595796585083,0.00019081775099039078
1761391726829433900,7.634433837890625,0.0009155771695077419,0.0010519195348024368,0.0018619513139128685
1761391726839500000,7.6445,0.00018490571528673172,0.0017493516206741333,0.0020074155181646347
1761391726849566000,7.65456591796875,0.0010395143181085587,0.0018830420449376106,-0.0002837013453245163
1761391726859631900,7.6646318359375,0.0024765762500464916,0.0018166173249483109,0.00020933803170919418
1761391726869697800,7.67469775390625,0.0011503221467137337,0.002598521299660206,-0.0026279943995177746
1761391726879764000,7.684763916015625,0.002190973609685898,0.0038070660084486008,-0.0009774360805749893
1761391726889830000,7.694829833984375,0.0032546401489526033,0.0012954380363225937,-0.005298415198922157
1761391726899895800,7.704895751953125,0.002987960586324334,0.005498155020177364,-0.0007147905416786671
1761391726909962000,7.7149619140625,0.0001482320949435234,0.00122910737991333,-0.001727323979139328
1761391726920028000,7.72502783203125,0.0015262751840054989,0.0004696035757660866,-0.0036457739770412445
1761391726930093800,7.73509375,0.002064233645796776,0.0046742018312215805,-0.0015756990760564804
1761391726940161000,7.7451611328125,0.0007135043852031231,0.0014993082731962204,-0.0038883467204868793
1761391726950226700,7.755226806640625,0.0025926309172064066,0.0004311148077249527,-0.001309874001890421
1761391726960292900,7.76529296875,0.000008536968380212784,0.0031633256003260612,-0.0002665948122739792
1761391726970358800,7.77535888671875,-0.00020664650946855545,-0.0009722961112856865,-0.0004644677974283695
1761391726980425000,7.785425048828125,-0.00034728879109025,0.0012934580445289612,-0.005726930685341358
1761391726990491000,7.795490966796875,-0.001193641684949398,0.0012716203927993774,-0.002200106158852577
1761391727000557000,7.80555712890625,-0.00045154476538300514,0.00244732853025198,-0.0012458995915949345
1761391727010623000,7.815623046875,-1.3923272490501404e-7,0.0016262754797935486,-0.0009955624118447304
1761391727020689000,7.82568896484375,-0.0007230555638670921,-0.00019707158207893372,-0.00022052181884646416
1761391727030754800,7.8357548828125,-0.00008869031444191933,0.002931344322860241,-0.0017515732906758785
1761391727040820700,7.84582080078125,0.0004216195084154606,0.00032631028443574905,-0.003503544721752405
1761391727050888000,7.855887939453125,0.004412899259477854,0.002852584235370159,0.00015910062938928604
1761391727060953900,7.865953857421875,0.00031308364123106003,0.0014287373051047325,-0.001468747854232788
1761391727071019800,7.876019775390625,-0.00023259781301021576,-0.00020298175513744354,0.0010495372116565704
1761391727081086000,7.8860859375,0.0045333136804401875,-0.00010447390377521515,-0.005324305966496468
1761391727091152000,7.89615185546875,0.0005044834688305855,0.00010218657553195953,-0.00042009493336081505
1761391727101218000,7.906218017578125,0.001457851380109787,0.0013108449056744576,0.003521803766489029
1761391727111283700,7.91628369140625,-0.0007858616299927235,-0.0010630972683429718,-0.0013275458477437496
1761391727121350000,7.926349853515625,0.0026210458017885685,-0.0004684124141931534,-0.0008431761525571346
1761391727131415800,7.936415771484375,0.0012516481801867485,0.0029074111953377724,-0.0031161843799054623
1761391727141482000,7.94648193359375,0.0012097787111997604,0.0010298537090420723,0.0008042110130190849
1761391727151548000,7.9565478515625,0.0013139080256223679,0.002810177393257618,-0.0011604027822613716
1761391727161614800,7.96661474609375,0.00021078065037727356,0.00043029338121414185,-0.001139146275818348
1761391727171681000,7.976680908203125,-0.0016060280613601208,-0.0003236476331949234,-0.00010797008872032166
1761391727181747000,7.986746826171875,0.0007194783538579941,0.0008555874228477478,0.00147931557148695
1761391727191813000,7.996813232421875,0.00034051062539219856,0.0012366864830255508,-0.0010970267467200756
1761391727201878800,8.006878662109376,-0.0010492396540939808,-0.0018345322459936142,0.0014033475890755653
1761391727211944700,8.01694482421875,0.0013348222710192204,-0.0016814004629850388,0.0022843219339847565
1761391727222011000,8.027010986328126,0.0006731548346579075,-0.001197085715830326,0.002690541557967663
1761391727232076800,8.037076904296875,0.0015298938378691673,0.0013787243515253067,-0.004000383894890547
1761391727242143000,8.04714306640625,0.000811997801065445,-0.0019234856590628624,-0.0002896231599152088
1761391727252209000,8.057208984375,-0.001869272906333208,-0.00046194251626729965,-0.00032850541174411774
1761391727262275000,8.067275146484375,-0.0017657624557614326,0.0007902812212705612,0.0005678609013557434
1761391727272342000,8.077342041015624,0.0015290998853743076,-0.0010427730157971382,-0.0013442886993288994
1761391727282407700,8.08740771484375,0.0016233166679739952,0.0006957566365599632,-0.000051856040954589844
1761391727292473900,8.097473876953124,0.0019895010627806187,-0.0002880143001675606,0.0002163248136639595
1761391727302539800,8.107539794921875,0.0015045376494526863,0.00039565470069646835,-0.000542676541954279
1761391727312606000,8.11760595703125,-0.00018124328926205635,-0.002283218316733837,-0.00032190047204494476
1761391727322671900,8.127671875,0.0010813651606440544,0.0006803777068853378,0.0010611191391944885
1761391727332738000,8.137738037109376,0.00012262724339962006,0.0000598616898059845,-0.0008891131728887558
1761391727342804000,8.147803955078125,0.0010175351053476334,-0.004180476069450378,-0.0006259963847696781
1761391727352870000,8.157869873046875,-0.000477030873298645,-0.0008089141920208931,-0.0010544988326728344
1761391727362935800,8.167935791015625,-0.001656914595514536,0.0006078248843550682,-0.0027026445604860783
1761391727373001700,8.178001708984375,-0.0008917879313230515,-0.0011213654652237892,-0.0007665264420211315
1761391727383068700,8.188068603515624,-0.000699829775840044,-0.0008648224174976349,-0.0008933315984904766
1761391727393134800,8.198134765625,0.002004344016313553,0.0015996675938367844,-0.0011593815870583057
1761391727403200800,8.20820068359375,0.000412763562053442,0.00004761572927236557,-0.00014859670773148537
1761391727413267000,8.218266845703125,0.001435949932783842,0.001393045298755169,-0.00018614763393998146
1761391727423332900,8.228332763671874,0.0002499525435268879,-0.000004046596586704254,-0.0003286763094365597
1761391727433399000,8.23839892578125,-0.0012028017081320286,0.0030937427654862404,-0.002108733169734478
1761391727443465000,8.24846484375,0.00006358372047543526,-0.000635501928627491,-0.0005632629618048668
1761391727453531000,8.25853076171875,-0.0016624107956886292,-0.0010653361678123474,-0.00026765232905745506
1761391727463596800,8.2685966796875,0.000039836857467889786,0.001810266636312008,0.0004588952288031578
1761391727473663000,8.2786630859375,0.00028697820380330086,-0.001095241867005825,0.0009867334738373756
1761391727483729000,8.28872900390625,0.0014314837753772736,-0.00036611687391996384,-0.0004619262181222439
1761391727493795800,8.2987958984375,0.0020743710920214653,0.002450442872941494,-0.0029956577345728874
1761391727503862000,8.308862060546875,-0.0008748485706746578,-0.0013752738013863564,0.004278827458620071
1761391727513928000,8.318927978515624,0.00026951171457767487,0.0024993587285280228,-0.0017337915487587452
1761391727523993000,8.3289931640625,-0.0005904464051127434,0.00043027475476264954,0.0004973839968442917
1761391727534059000,8.33905908203125,-0.0004295911639928818,-0.0012342017143964767,0.0011386731639504433
1761391727544125200,8.349125244140625,-0.001442010048776865,-0.0022342409938573837,-0.0012094583362340927
1761391727554191000,8.359191162109376,0.000028853770345449448,0.0006206678226590157,-0.0021080090664327145
1761391727564257000,8.369257080078125,0.00004086550325155258,0.0024097273126244545,-0.001070997677743435
1761391727574323000,8.379322998046876,0.000696269329637289,0.000012083910405635834,-0.0003724507987499237
1761391727584388900,8.389388916015625,-0.0013570156879723072,0.0006807809695601463,-0.001366795040667057
1761391727594456000,8.3994560546875,0.0014502224512398243,-0.002083846367895603,-0.0018946337513625622
1761391727604522000,8.40952197265625,-0.00038094818592071533,0.0009679784998297691,-0.000781988725066185
1761391727614588000,8.419587890625,-0.0004326137714087963,0.0008398806676268578,0.00006329827010631561
1761391727624654000,8.429654052734374,0.001430930569767952,-0.002511334605515003,-0.0012719128280878067
1761391727634720000,8.439719970703125,0.0009132120758295059,-0.0014039920642971992,-0.0037361355498433113
1761391727644786200,8.4497861328125,0.0005257516168057919,0.0014092111960053444,0.0004853745922446251
1761391727654852000,8.45985205078125,-0.0004553566686809063,-0.0008715195581316948,0.0030276281759142876
1761391727664918000,8.46991796875,-0.00010955659672617912,0.000399773009121418,-0.0010860944166779518
1761391727674984000,8.47998388671875,0.00294721988029778,-0.001428486779332161,0.00042764656245708466
1761391727685050000,8.490050048828126,0.00012822821736335754,0.003571420907974243,-0.002324134111404419
1761391727695116000,8.500115966796875,-0.0011570132337510586,-0.002477949485182762,-0.0015446268953382969
1761391727705183000,8.510182861328126,-0.001346769742667675,-0.0005025062710046768,0.00015812786296010017
1761391727715249200,8.520249267578125,0.0001613781787455082,-0.0006535081192851067,0.0045946878381073475
1761391727725315000,8.530315185546876,-0.00021106796339154243,-0.0010581230744719505,-0.002242093440145254
1761391727735381200,8.54038134765625,0.002836919855326414,-0.0020861029624938965,0.0007030968554317951
1761391727745447200,8.550447265625,-0.0005259248428046703,-0.0008224071934819221,0.0007851016707718372
1761391727755512800,8.560512939453124,0.0013726428151130676,0.0022767139598727226,-0.000772048719227314
1761391727765579000,8.5705791015625,0.0011455011554062366,-0.0014493046328425407,-0.002732766792178154
1761391727775645000,8.58064501953125,-0.0002731648273766041,-0.0002604695037007332,-0.0017439350485801697
1761391727785711000,8.590711181640625,0.0001925881952047348,0.00043587107211351395,-0.001215777825564146
1761391727795777000,8.600777099609376,0.0019769063219428062,-0.0005079526454210281,0.0023613800294697285
1761391727805843200,8.61084326171875,0.0011618267744779587,0.002587374299764633,-0.0018683290109038353
1761391727815910100,8.62091015625,-0.00046749552711844444,0.0011125151067972183,-0.0020749904215335846
1761391727825976000,8.63097607421875,0.0030436960514634848,0.00455321092158556,-0.0016693626530468464
1761391727836042000,8.6410419921875,-0.0005774041637778282,-0.0003193095326423645,-0.0012182234786450863
1761391727846108000,8.65110791015625,0.0018845424056053162,-0.00031880196183919907,-0.003065579105168581
1761391727856174000,8.661174072265625,0.0011084973812103271,0.002406409941613674,-0.0012170788832008839
1761391727866240000,8.671239990234374,-0.0025807516649365425,-0.0013488689437508583,0.001014679204672575
1761391727876306200,8.68130615234375,-0.0015410534106194973,-0.0020681889727711678,0.0033630547113716602
1761391727886372000,8.6913720703125,0.0014131739735603333,-0.001230970025062561,-0.002737472765147686
1761391727896438000,8.70143798828125,0.0032917677890509367,0.0008353767916560173,-0.001584323588758707
1761391727906504200,8.711504150390626,0.000734768807888031,-0.0014092503115534782,0.0011285007931292057
1761391727916569900,8.72156982421875,-0.0010309070348739624,0.0007833298295736313,0.0018145306967198849
1761391727926637000,8.731636962890626,-0.00009088637307286263,-0.00015662796795368195,0.0012966669164597988
1761391727936703000,8.741702880859375,0.0009200498461723328,0.0005605621263384819,-0.0030685202218592167
1761391727946769000,8.751768798828126,-0.0012246733531355858,-0.0002781962975859642,0.0011040386743843555
1761391727956835000,8.7618349609375,-0.0007069548591971397,0.0005116965621709824,-0.0015700412914156914
1761391727966901000,8.77190087890625,-0.0007323706522583961,-0.00015529431402683258,-0.0006849323399364948
1761391727976967200,8.78196728515625,-0.0023704813793301582,0.0016788244247436523,-0.0015776236541569233
1761391727987033000,8.792033203125,-0.0007155272178351879,-0.002447899430990219,-0.0015695542097091675
1761391727997099300,8.802099365234374,-0.0018652137368917465,0.0007039513438940048,0.00015138089656829834
1761391728007165000,8.8121650390625,0.00029836874455213547,0.0004103993996977806,0.0009596268646419048
1761391728017231000,8.822231201171874,0.0021149106323719025,0.0007781814783811569,0.001903983298689127
1761391728027297000,8.832297119140625,-0.0002472377382218838,-0.0006290031597018242,-0.00013544689863920212
1761391728037364000,8.842364013671874,0.0005660918541252613,-0.00046974606812000275,-0.0007527675479650497
1761391728047430100,8.85243017578125,-0.00005522649735212326,-0.0006604921072721481,0.0014714696444571018
1761391728057496000,8.86249609375,0.0003921845927834511,-0.001972098834812641,0.0009694634936749935
1761391728067562000,8.87256201171875,0.0013107825070619583,-0.0019644824787974358,-0.0028869053348898888
1761391728077628200,8.882628173828126,0.00041010137647390366,-0.0018896479159593582,-0.001775568351149559
1761391728087693800,8.89269384765625,-0.0016994411125779152,-0.0024822456762194633,-0.0019846996292471886
1761391728097760000,8.902760009765625,-0.0029985313303768635,0.0014195516705513,-0.0021069389767944813
1761391728107826000,8.912825927734374,-0.001478592399507761,0.0008602039888501167,0.0004920964129269123
1761391728117892000,8.92289208984375,-0.0006002816371619701,-0.001796032302081585,0.0022740173153579235
1761391728127958000,8.9329580078125,-0.0011194748803973198,0.001469215378165245,-0.0005106208845973015
1761391728138024200,8.943024169921875,-0.0000361013226211071,0.0022239554673433304,-0.0005582915619015694
1761391728148091100,8.953091064453124,0.0009927642531692982,0.0024306876584887505,-0.0009101955220103264
1761391728158157000,8.963156982421875,-0.0012421603314578533,0.001383800059556961,0.0020637563429772854
1761391728168223200,8.97322314453125,-0.00009662751108407974,-0.0005094241350889206,0.0021749394945800304
1761391728178289000,8.983288818359375,-0.0016308743506669998,-0.001879621297121048,0.00025373464450240135
1761391728188355000,8.99335498046875,-0.0005676406435668468,-0.0009802784770727158,-0.0025351564399898052
1761391728198421000,9.0034208984375,-0.00039959559217095375,0.0003307955339550972,0.0005695573054254055
1761391728208487000,9.01348681640625,0.0025601652450859547,0.001469840295612812,-0.0034801545552909374
1761391728218553000,9.023552978515625,-0.0022745374590158463,0.0006602387875318527,-0.0007269782945513725
1761391728228619000,9.033618896484375,-0.00027110055088996887,0.00037658214569091797,-0.0019230032339692116
1761391728238685200,9.043685302734374,0.0005600717850029469,-0.0014716517180204391,0.0024704141542315483
1761391728248751000,9.053751220703125,0.0010854564607143402,-0.0010639335960149765,0.0013417829759418964
1761391728258818000,9.063818115234374,-0.0010626488365232944,0.0008159922435879707,0.0006064842455089092
1761391728268884000,9.073884033203125,0.002385752974078059,0.0015570968389511108,0.002484421245753765
1761391728278950000,9.083949951171874,0.0003180745989084244,0.00046040769666433334,-0.0018211114220321178
1761391728289016000,9.09401611328125,0.0013078749179840088,0.0008511785417795181,-0.0011387630365788937
1761391728299082000,9.10408203125,-0.00025460170581936836,-0.0004175519570708275,-0.0003406140021979809
1761391728309148200,9.114148193359375,-0.00015189731493592262,-0.0012719007208943367,-0.0003225822001695633
1761391728319214000,9.124214111328126,0.00042600883170962334,-0.001171499490737915,0.0000028563663363456726
1761391728329280300,9.1342802734375,0.0021068276837468147,0.001196686178445816,-0.0003818864934146404
1761391728339346000,9.144345947265625,-0.0029587713070213795,-0.0025490503758192062,-0.0014269109815359116
1761391728349411800,9.154411865234374,-0.0000880868174135685,0.0014961548149585724,-0.0005502826534211636
1761391728359478000,9.16447802734375,-0.0016348506323993206,-0.0002519441768527031,-0.0012466991320252419
1761391728369545000,9.174544921875,-0.0006147096864879131,-0.002331934869289398,-0.0016763722524046898
1761391728379611100,9.184611083984375,0.0008902424015104771,0.0014777164906263351,-0.0028345808386802673
1761391728389677000,9.194677001953124,0.00006361491978168488,0.002363552339375019,0.0003855135291814804
1761391728399743000,9.204742919921875,0.0011888006702065468,0.0021560927852988243,-0.0016025365330278873
1761391728409809200,9.21480908203125,-0.00005634501576423645,0.0028055282309651375,0.001139079686254263
1761391728419875000,9.224875,-0.0006449036300182343,-0.0021681925281882286,-0.0010284669697284698
1761391728429941000,9.23494091796875,0.0010179784148931503,-0.0004447847604751587,-0.000575103797018528
1761391728440007000,9.2450068359375,0.0023450313601642847,-0.0016152439638972282,0.0024076364934444427
1761391728450073000,9.255072998046876,-0.0009977095760405064,-0.003157944418489933,0.0032295850105583668
1761391728460139000,9.265138916015625,-0.0012131594121456146,-0.003144095651805401,0.0006798743270337582
1761391728470205200,9.275205078125,-0.00067137461155653,-0.003023550845682621,0.003681207075715065
1761391728480272100,9.285272216796875,-0.0005563260056078434,-0.0010394956916570663,-0.0006381734274327755
1761391728490338000,9.295338134765625,-0.001055144239217043,-0.001397300511598587,0.00341994222253561
1761391728500404200,9.305404296875,-0.0014130729250609875,-0.0011235270649194717,-0.000805961899459362
1761391728510470100,9.31547021484375,-0.0017348104156553745,0.0004695160314440727,0.00038788095116615295
1761391728520536000,9.3255361328125,-0.001953988801687956,0.00015233363956212997,0.0034728869795799255
1761391728530602500,9.3356025390625,0.0008107777684926987,-0.0005231015384197235,0.0008706473745405674
1761391728540668400,9.34566845703125,0.001763390377163887,-0.00023068580776453018,-0.0012044874019920826
1761391728550734600,9.355734619140625,0.0018277280032634735,0.002464326098561287,-0.0005008717998862267
1761391728560800300,9.36580029296875,5.331821739673615e-7,0.0032259896397590637,-0.0002356208860874176
1761391728570866400,9.375866455078125,0.001765999011695385,0.0016666380688548088,-0.0013925661332905293
1761391728580932400,9.385932373046876,-0.0024662967771291733,0.0006833989173173904,0.0006090658716857433
1761391728590999300,9.395999267578125,0.0005365456454455853,-0.0008739782497286797,0.00027983449399471283
1761391728601065500,9.4060654296875,-0.0005028862506151199,-0.00039008259773254395,-0.0007678531110286713
1761391728611131400,9.41613134765625,0.0006082328036427498,0.001493292860686779,-0.0028643161058425903
1761391728621197600,9.426197509765625,0.0007653594948351383,-0.0009767888113856316,-0.0016877315938472748
1761391728631263500,9.436263427734374,-0.0018864055164158344,0.0010967077687382698,0.0025545083917677402
1761391728641329400,9.446329345703125,-0.001720490399748087,0.00010388065129518509,0.0006833714433014393
1761391728651395300,9.456395263671874,-0.00029479339718818665,-0.003221479244530201,0.001000016462057829
1761391728661461200,9.466461181640625,-0.0017147911712527275,0.0017117606475949287,0.0017488976009190083
1761391728671527400,9.47652734375,-0.0014224415645003319,-0.0009630108252167702,0.003388545010238886
1761391728681593300,9.48659326171875,-0.000897532794624567,-0.002412836067378521,-0.0002413433976471424
1761391728691659500,9.496659423828126,0.0010550818406045437,0.00017317943274974823,-0.0007406366057693958
1761391728701726500,9.5067265625,-0.00034041423350572586,-0.0009629251435399055,0.0015052068047225475
1761391728711792400,9.51679248046875,-0.0023667174391448498,-0.0015053777024149895,0.0014710966497659683
1761391728721858600,9.526858642578125,-0.00209640571847558,-0.0019581150263547897,0.0005688173696398735
1761391728731924500,9.536924560546876,0.00014124205335974693,-0.0007388796657323837,-0.0014791274443268776
1761391728741990400,9.546990478515625,-0.0014324202202260494,-0.0005711009725928307,0.00027163419872522354
1761391728752056300,9.557056396484375,-0.0019398345611989498,0.0015956414863467216,0.0013421643525362015
1761391728762122500,9.56712255859375,-0.0015994827263057232,-0.0008400855585932732,-0.002829411532729864
1761391728772188400,9.5771884765625,-0.0027900533750653267,0.0008550761267542839,-0.0017402935773134232
1761391728782254300,9.58725439453125,0.001099493820220232,-0.000025099143385887146,-0.002353353425860405
1761391728792320500,9.597320556640625,0.00017050420865416527,0.0003888094797730446,-0.0016505075618624687
1761391728802386400,9.607386474609376,0.0018863789737224579,-0.0020061712712049484,0.0043650404550135136
1761391728812452400,9.617452392578125,-0.001650173682719469,0.0007484965026378632,0.0021677236072719097
1761391728822519300,9.627519287109376,-0.0004144669510424137,-0.0003689657896757126,0.0013290946371853352
1761391728832585200,9.637585205078125,0.0018691164441406727,-0.0001903316006064415,0.0014786324463784695
1761391728842651400,9.6476513671875,0.0034837909042835236,0.0010906495153903961,0.002187300007790327
1761391728852717300,9.65771728515625,0.0005963449366390705,-0.0014044390991330147,-0.0004155742935836315
1761391728862783500,9.667783447265625,-0.00142233120277524,-0.0006899125874042511,0.00018656626343727112
1761391728872849400,9.677849365234374,-0.0020840889774262905,-0.0013818331062793732,0.0015647253021597862
1761391728882915600,9.68791552734375,0.0016438039019703865,-0.0005005933344364166,0.0014217142015695572
1761391728892981500,9.6979814453125,0.00018788594752550125,0.0007034093141555786,0.0002770824357867241
1761391728903047400,9.70804736328125,-0.0016688704490661621,-0.00029421038925647736,0.001347939483821392
1761391728913113300,9.71811328125,-0.0026385597884655,-0.001994691789150238,-0.0022783903405070305
1761391728923179300,9.72817919921875,-0.0022449446842074394,-0.0013653868809342384,-0.002138840965926647
1761391728933246500,9.73824658203125,-0.00025365501642227173,-0.004242880269885063,0.0006491742096841335
1761391728943312400,9.7483125,-0.0015918933786451817,-0.0008470835164189339,0.0009378609247505665
1761391728953377500,9.75837744140625,0.0009378911927342415,-0.00016166456043720245,-0.0006964290514588356
1761391728963443500,9.768443359375,-0.0031274245120584965,-0.0012279944494366646,0.00012622075155377388
1761391728973509400,9.77850927734375,0.0016704369336366653,0.0018896134570240974,0.001249824184924364
1761391728983575300,9.7885751953125,-0.0016902056522667408,0.00382786151021719,0.002324942033737898
1761391728993641500,9.798641357421875,0.00018488755449652672,-0.0012662168592214584,-0.0011965068988502026
1761391729003707400,9.808707275390624,-0.0006430894136428833,0.0036798054352402687,-0.0025784214958548546
1761391729013774300,9.8187744140625,-0.0012621157802641392,0.0006309300661087036,-0.0005015227943658829
1761391729023840500,9.828840576171874,0.0013120956718921661,0.002647208981215954,-0.0015569333918392658
1761391729033906400,9.838906494140625,0.0023705458734184504,0.00030391477048397064,0.0022801505401730537
1761391729043972600,9.84897265625,0.0013268529437482357,0.00040058791637420654,0.000517670065164566
1761391729054038500,9.85903857421875,-0.001992371864616871,0.0016897274181246758,-0.00026139523833990097
1761391729064104200,9.869104248046876,0.00011125905439257622,-0.0007316181436181068,-0.0002352963201701641
1761391729074170400,9.87917041015625,-0.0006168424151837826,-0.0005817944183945656,-0.000055194366723299026
1761391729084236300,9.889236328125,-0.0013838326558470726,-0.0020372122526168823,0.0019227354787290096
1761391729094302500,9.899302490234374,-0.0008697197772562504,-0.0015636803582310677,-0.0006395210511982441
1761391729104368400,9.909368408203125,0.0008687917143106461,-0.0013522254303097725,0.00008752243593335152
1761391729114434600,9.9194345703125,-0.0012755775824189186,0.0005727261304855347,0.002106704283505678
1761391729124500500,9.92950048828125,0.00004774704575538635,0.0004614051431417465,0.0016859243623912334
1761391729134567400,9.9395673828125,-0.00005203345790505409,0.00009063258767127991,0.0032636807300150394
1761391729144633600,9.949633544921875,-0.0006403257139027119,-0.0005000568926334381,-0.0017678295262157917
1761391729154699300,9.95969921875,-0.0013796617276966572,-0.0011995388194918633,-0.0006496179848909378
1761391729164765400,9.969765380859375,-0.0008379747159779072,-0.0016631949692964554,0.00007396284490823746
1761391729174831400,9.979831298828126,0.0018681096844375134,-0.0012600664049386978,-0.001242972444742918
1761391729184897500,9.9898974609375,-0.0012424620799720287,0.0016158809885382652,0.0017946287989616394
1761391729194963500,9.99996337890625,-0.0022902186028659344,-0.0022373758256435394,0.0017361105419695377
1761391729205029400,10.010029296875,-0.00003665219992399216,0.00052645243704319,-0.003368103876709938
1761391729215095600,10.020095458984375,-0.0004757256247103214,-0.0018212823197245598,0.0018161465413868427
1761391729225161200,10.0301611328125,-0.0009444421157240868,-0.0012891832739114761,0.0010025505907833576
1761391729235227400,10.040227294921875,-0.0001329788938164711,-0.001169087365269661,-0.0016251946799457073
1761391729245294300,10.05029443359375,-0.00028211576864123344,-0.000603698194026947,-0.000032357871532440186
1761391729255360300,10.0603603515625,-0.0016744104214012623,-0.0008082417771220207,-0.00008162856101989746
1761391729265426400,10.070426513671874,0.00020152051001787186,0.0003619510680437088,0.00026165274903178215
1761391729275492400,10.080492431640625,0.0013277530670166016,-0.0011333487927913666,-0.00046304333955049515
1761391729285558500,10.09055859375,0.0007517114281654358,-0.002591961994767189,0.0006967633962631226
1761391729295624400,10.10062451171875,-0.0010974775068461895,-0.0019359532743692398,0.0008707498200237751
1761391729305690600,10.110690673828126,0.00009828200563788414,0.0007149567827582359,0.0034665330313146114
1761391729315756300,10.12075634765625,-0.0001759813167154789,-0.000989982858300209,-0.00022031087428331375
1761391729325822500,10.130822509765625,-0.001229527872055769,-0.0027330219745635986,0.0034838798455893993
1761391729335888400,10.140888427734374,-0.0012958543375134468,-0.0017675412818789482,0.000838148407638073
1761391729345954300,10.150954345703125,-0.001275880727916956,-0.0001912163570523262,-0.0004625394940376282
1761391729356021500,10.161021484375,-0.0012206030078232288,-0.0006505539640784264,0.0005245539359748363
1761391729366087400,10.17108740234375,-0.0016978411003947258,-0.0016319286078214645,0.0026191300712525845
1761391729376153300,10.1811533203125,0.0002228114753961563,-0.0007799789309501648,-0.0016563655808568
1761391729386219500,10.191219482421875,-0.001242992002516985,-0.003074292093515396,0.0017423606477677822
1761391729396285400,10.201285400390624,-0.0023141964338719845,-0.00011367164552211761,-0.0020066178403794765
1761391729406351400,10.211351318359375,0.0007817279547452927,0.0001747487112879753,0.0007359050214290619
1761391729416417300,10.221417236328126,0.0009184069931507111,-0.00018488429486751556,-0.0014367764815688133
1761391729426483500,10.2314833984375,-0.0009101196192204952,0.0004787761718034744,-0.0009787129238247871
1761391729436550400,10.24155029296875,0.00021365517750382423,-0.0009398087859153748,-0.0004707411862909794
1761391729446616300,10.2516162109375,-0.0005016699433326721,0.00015022233128547668,-0.00022493116557598114
1761391729456682500,10.2616826171875,-0.0008797645568847656,-0.0004829876124858856,-0.001845820341259241
1761391729466748400,10.27174853515625,0.0015442445874214172,-0.0008976422250270844,-0.0017933561466634274
1761391729476814600,10.281814697265625,0.0001451997086405754,-0.003586381673812866,0.001176158431917429
1761391729486880300,10.29188037109375,-0.0007299152202904224,-0.0008811429142951965,-0.0004129498265683651
1761391729496946400,10.301946533203125,0.00047043850645422935,-0.0011618789285421371,0.0008807443082332611
1761391729507012400,10.312012451171874,-0.0014020302332937717,0.0006163129583001137,-0.0013230214826762676
1761391729517078300,10.322078369140625,-0.000058836303651332855,0.0010073613375425339,0.000011450611054897308
1761391729527144400,10.33214453125,-0.0006394051015377045,0.000026518478989601135,-0.0014098784886300564
1761391729537210000,10.342210205078125,0.000216764397919178,0.0009807348251342773,0.0006388146430253983
1761391729547277300,10.35227734375,-0.0014317319728434086,0.0010798042640089989,-0.00037318700924515724
1761391729557343200,10.36234326171875,-0.0017545735463500023,-0.0019239289686083794,0.002344714943319559
1761391729567409200,10.3724091796875,-0.0015207482501864433,0.0007831742987036705,-0.0007323017343878746
1761391729577475300,10.382475341796875,0.0002868231385946274,0.0012048333883285522,0.0010812035761773586
1761391729587541200,10.392541259765625,-0.0017843176610767841,0.0008972380310297012,-0.0013089836575090885
1761391729597607400,10.402607421875,-0.0015438618138432503,0.0012086527422070503,-0.0006944304332137108
1761391729607673300,10.41267333984375,-0.0022373488172888756,-0.0029440149664878845,-0.0029341490007936954
1761391729617739300,10.4227392578125,0.0004329490475356579,-0.00004802178591489792,-0.001578706782311201
1761391729627805200,10.43280517578125,-0.001157224178314209,-0.0006006276234984398,0.00000880332663655281
1761391729637871400,10.442871337890624,-0.0006971694529056549,-0.003787582740187645,-0.000017898157238960266
1761391729647937300,10.452937255859375,-0.0016377978026866913,0.0006636250764131546,-0.0006109843961894512
1761391729658004200,10.463004150390624,0.0004370477981865406,-0.003810378722846508,0.0007579224184155464
1761391729668070400,10.4730703125,-0.0005666972137987614,-0.000682496465742588,0.0021776538342237473
1761391729678136300,10.48313623046875,-0.001032684464007616,-0.0008181286975741386,0.00031408900395035744
1761391729688202500,10.493202392578125,-0.0016729086637496948,0.000298268161714077,-0.000003625638782978058
1761391729698268400,10.503268310546876,0.0003514098934829235,0.002475753426551819,-0.002252997364848852
1761391729708334000,10.513333984375,-0.00015698745846748352,0.0038459505885839462,0.0016091186553239822
1761391729718400300,10.523400146484375,0.0019500390626490116,0.001094604842364788,-0.002920619212090969
1761391729728466200,10.533466064453124,0.002719159936532378,0.0017707813531160355,-0.00045719556510448456
1761391729738532400,10.543532470703125,0.0016444064676761627,0.0019182562828063965,-0.0018826373852789402
1761391729748598300,10.553598388671874,0.005210379138588905,0.0032897843047976494,0.0008564237505197525
1761391729758664400,10.56366455078125,0.004702905658632517,0.00576440803706646,-0.0024980446323752403
1761391729768730400,10.57373046875,0.00563980545848608,0.008193477988243103,0.00036591896787285805
1761391729778797300,10.58379736328125,0.002560428576543927,0.0037286365404725075,0.0007263594307005405
1761391729788863200,10.59386328125,0.002161487005650997,0.004940374754369259,0.00019505945965647697
1761391729798929200,10.60392919921875,0.0018094074912369251,0.003774949349462986,-0.0026590321213006973
1761391729808995300,10.613995361328126,0.0033503123559057713,0.002764812670648098,0.0007428894750773907
1761391729819061200,10.624061279296875,0.003562732832506299,0.005054290406405926,0.0017616134136915207
1761391729829127400,10.63412744140625,0.00023617828264832497,0.0026404010131955147,0.0004907529801130295
1761391729839193300,10.644193359375,-0.0002167872153222561,0.001468447968363762,-0.0011591245420277119
1761391729849259300,10.65425927734375,0.0008239760063588619,0.00302266888320446,0.0029530618339776993
1761391729859325400,10.664325439453124,-0.0004536178894340992,-0.0017925351858139038,0.004579681903123856
1761391729869391000,10.67439111328125,-0.00002405000850558281,-0.004497242160141468,0.0015263678506016731
1761391729879457300,10.684457275390624,-0.0009113210253417492,-0.0022972095757722855,0.001847192645072937
1761391729889524200,10.694524169921875,0.000618398655205965,-0.004327337257564068,-0.0006540482863783836
1761391729899590100,10.704590087890624,0.0001851394772529602,-0.004286223091185093,0.00002778228372335434
1761391729909656300,10.71465625,0.0008357497863471508,-0.0021413136273622513,0.0014504427090287209
1761391729919722200,10.72472216796875,-0.0007416871376335621,0.00007670465856790543,0.0009124842472374439
1761391729929788400,10.734788330078125,-0.0012687267735600471,-0.0019813859835267067,0.00251464219763875
1761391729939854300,10.744854248046876,-0.0019368990324437618,-0.0028921151533722878,-0.0011728550307452679
1761391729949920300,10.754920166015625,-0.0013528680428862572,-0.001231900416314602,0.0021997718140482903
1761391729959986200,10.764986083984375,-0.001674748957157135,-0.0045533981174230576,0.0014121136628091335
1761391729970052400,10.77505224609375,-0.003222311846911907,-0.0031871963292360306,-0.00020069675520062447
1761391729980118300,10.7851181640625,-0.001478521153330803,-0.003148178569972515,0.003894565161317587
1761391729990184200,10.79518408203125,-0.00239385012537241,-0.0007992703467607498,-0.0021867631003260612
1761391730000251400,10.80525146484375,-0.0010829474776983261,-0.0016392385587096214,0.0011257678270339966
1761391730010317300,10.8153173828125,-0.0007031806744635105,-0.0005987416952848434,-0.002099586185067892
1761391730020383200,10.82538330078125,0.0005925660952925682,-0.0012322114780545235,-0.00016825972124934196
1761391730030449400,10.835449462890624,-0.001968862023204565,0.0010370677337050438,-0.002334741409868002
1761391730040515000,10.84551513671875,-0.0001918538473546505,0.0024002445861697197,0.0020139734260737896
1761391730050581200,10.855581298828126,0.0002488992176949978,0.0014598816633224487,-0.0034958403557538986
1761391730060647200,10.865647216796875,0.004707202780991793,0.006003241054713726,0.0034440155141055584
1761391730070713300,10.87571337890625,0.0029412605799734592,0.005262882448732853,0.003476771991699934
1761391730080779300,10.885779296875,0.005460677202790976,0.002312549389898777,0.0046683200635015965
1761391730090845400,10.895845458984375,0.0013306471519172192,0.0032158931717276573,0.0006434847600758076
1761391730100911400,10.905911376953124,-0.003450151067227125,-0.000722852535545826,-0.004663732834160328
1761391730110978300,10.915978271484375,-0.004265610594302416,-0.006001237779855728,-0.0021957815624773502
1761391730121044500,10.92604443359375,-0.0006231958977878094,-0.002967073582112789,-0.005840245634317398
1761391730131110100,10.936110107421875,-0.00034383032470941544,0.0011507067829370499,0.0020845229737460613
1761391730141176300,10.94617626953125,-0.0017500794492661953,-0.0032566012814641,-0.0026832809671759605
1761391730151242200,10.9562421875,-0.003203100059181452,-0.002709588035941124,0.00040998077020049095
1761391730161308400,10.966308349609376,-0.0010650143958628178,-0.0019212495535612106,-0.0010600709356367588
1761391730171374300,10.976374267578125,0.000329683069139719,-0.006227314937859774,0.0010763169266283512
1761391730181440300,10.986440185546876,0.0026314533315598965,-0.00034119654446840286,0.0016780216246843338
1761391730191506400,10.99650634765625,0.0008205035701394081,0.002984825521707535,0.002696414478123188
1761391730201572000,11.006572021484375,0.003583139507099986,-0.004476139321923256,0.0020795599557459354
1761391730211638300,11.01663818359375,0.0049322969280183315,0.001204383559525013,0.005639940034598112
1761391730221704200,11.0267041015625,0.006980552338063717,0.08411795645952225,0.2339543253183365
1761391730231771100,11.036771240234375,0.0009674010798335075,0.015421985648572445,-0.18591324985027313
1761391730241837300,11.04683740234375,0.003957855515182018,-0.20317617058753967,0.09866833686828613
1761391730251903200,11.0569033203125,-0.005672401282936335,0.12712238729000092,-0.10205677896738052
1761391730261969400,11.066969482421875,-0.006134378723800182,-0.018079284578561783,0.08110690116882324
