time,seconds_elapsed,z,y,x
1761341828870617300,0.074617431640625,-0.06011456922292709,-0.006118720342312008,-0.011366105776769109
1761341828880683500,0.08468359375,-0.06894318784475326,0.0012253588101826607,-0.005348672118154354
1761341828890749400,0.09474951171875,-0.06954056921601295,0.00011573533415794372,-0.00898285933546722
1761341828900815400,0.1048154296875,-0.06924304757416248,0.010065138146840036,-0.00940663313891273
1761341828910882600,0.114882568359375,-0.06565057604014873,0.004047119966335594,-0.005142080162768252
1761341828920948500,0.124948486328125,-0.07298106505870819,-0.0021473324933089315,-0.010699869553535244
1761341828931014700,0.1350146484375,-0.06355389602184296,0.008951258620806039,-0.005519950731564313
1761341828941080600,0.14508056640625,-0.06265548587739467,-0.0007615589570254088,-0.006123579180520027
1761341828951146200,0.155146240234375,-0.06101122580170631,0.00381168550895527,-0.0020143583299824966
1761341828961212400,0.16521240234375,-0.05786942064464092,0.006668627576343715,0.005443223100388422
1761341828971279400,0.175279296875,-0.05936871929168701,0.0016787651334889233,-0.004535561070404946
1761341828981345500,0.185345458984375,-0.08032149094939231,0.0003214139740914106,-0.0017779968574177473
1761341828991411500,0.195411376953125,-0.06101824006438255,-0.0016541421488858758,0.001150256880512461
1761341829001477400,0.205477294921875,-0.06072481007575988,0.0033481779167428612,-0.00899401548372116
1761341829011543600,0.21554345703125,-0.0671598115593195,-0.0014056838131509721,-0.007596766138775274
1761341829021609500,0.225609375,-0.06012801322638988,0.007753043545875698,-0.005716779344761743
1761341829031676400,0.235676513671875,-0.06282090557217597,0.0008850574725307523,-0.0017151150885038077
1761341829041742600,0.24574267578125,-0.06177227330207825,0.012222316180728375,-0.006475808417983352
1761341829051808300,0.255808349609375,-0.06895604732632636,0.003108670072443783,-0.00025749559213873
1761341829061874400,0.26587451171875,-0.057880526560544966,-0.00113563470011577,-0.007147602165746502
1761341829071940400,0.2759404296875,-0.06715922703742981,0.002191756156925112,-0.0033139514201553535
1761341829082006500,0.286006591796875,-0.07419394797980786,0.01256440761666745,0.0011157244232483207
1761341829092073500,0.296073486328125,-0.06866144829392433,0.00496933111147955,-0.00516512311163824
1761341829102139400,0.306139404296875,-0.06671966657638549,-0.0002808627679944038,-0.007885825912957079
1761341829112205600,0.31620556640625,-0.06791384479701519,0.00008703896263614296,-0.0054783035469241435
1761341829122271500,0.326271484375,-0.06417173565924167,0.006597736030910164,-0.007946077333367428
1761341829132337700,0.336337646484375,-0.05983049158453941,0.0015858261530287564,-0.01048637293332722
1761341829142403300,0.3464033203125,-0.0741962860673666,0.0007056457850150764,0.0022063098386628554
1761341829152470300,0.35647021484375,-0.0701572398096323,0.01003607644913718,0.0005496834717458114
1761341829162536400,0.366536376953125,-0.056689855471253395,0.003928553354274482,-0.007889428942417726
1761341829172602400,0.376602294921875,-0.06596914047002791,0.0038310112639330326,-0.011580319349607453
1761341829182668500,0.38666845703125,-0.06537175909876823,0.0020991642363369463,-0.007958265528082847
1761341829192734500,0.396734375,-0.06388005923628806,0.004533935368899256,-0.003921502558980137
1761341829202800600,0.406800537109375,-0.07001578551232815,0.005744589800294488,-0.002456421275367029
1761341829212867600,0.41686767578125,-0.058937926658988,0.008835852080211043,-0.00439177325211931
1761341829222933500,0.42693359375,-0.06163432613611221,0.005194372039008886,-0.003408086843858473
1761341829232999700,0.436999755859375,-0.06702127987146377,0.00636858518384397,-0.006784061516402289
1761341829243065300,0.4470654296875,-0.0622357991605997,0.0038057672248221932,-0.004237235710956156
1761341829253131300,0.45713134765625,-0.060438394349813455,0.0004177504880353808,-0.0022038301872089505
1761341829263197400,0.467197509765625,-0.07405833890140057,-0.0022885675949044526,-0.0037988990926183758
1761341829273263400,0.477263427734375,-0.0686760613411665,0.005533321669790894,-0.006558326469128951
1761341829283330600,0.48733056640625,-0.05550853673219681,0.009828297183662653,-0.0030270927362143992
1761341829293396500,0.497396484375,-0.0638829818457365,0.0046894547241739925,-0.008232465659850276
1761341829303462400,0.50746240234375,-0.0605932926505804,0.006279482128284871,-0.009868683992978185
1761341829313528600,0.517528564453125,-0.06732464673221111,0.008431088937912137,-0.006583470043540001
1761341829323594500,0.527594482421875,-0.07076806518435477,0.011493216454889625,-0.007202556356531568
1761341829333660400,0.537660400390625,-0.0691290658056736,0.007245477616228162,-0.002408339783363044
1761341829343727400,0.547727294921875,-0.06598901421427726,0.008229209690261632,-0.0076699866386130446
1761341829353793300,0.557793212890625,-0.06569207709431647,0.001162632304895669,-0.002285252259811386
1761341829363859500,0.567859375,-0.06763502785563469,0.002549063428305089,-0.00390211287192069
1761341829373925400,0.57792529296875,-0.07377192317545414,0.002925422460027039,-0.0065951193821383635
1761341829383991600,0.587991455078125,-0.0679307959318161,-0.0014977825433947144,-0.007401353164529428
1761341829394057500,0.598057373046875,-0.0658393766105175,0.005189768929127604,-0.011481028260174206
1761341829404124400,0.60812451171875,-0.07137655247151851,0.005943400308024138,-0.005859959808271378
1761341829414190600,0.618190673828125,-0.06374795728921889,0.0030651962568983434,0.0013029403913067652
1761341829424256500,0.628256591796875,-0.06854103678464889,0.005480897362809628,-0.0036806841070065274
1761341829434322400,0.638322509765625,-0.0712333446085453,0.016670984418969602,-0.003398912590136751
1761341829444388400,0.648388427734375,-0.06494681168496608,0.004759195492137223,-0.004160905372002162
1761341829454454500,0.65845458984375,-0.06674246293008328,0.0008787373295985162,-0.006941681497218087
1761341829464521500,0.668521484375,-0.06838789204955101,0.0043454087931662794,-0.007887479013926349
1761341829474587400,0.67858740234375,-0.060760465911030764,0.010829674512241035,-0.0028135047844611107
1761341829484653600,0.688653564453125,-0.06690086836218834,0.006106226186919957,-0.006464040348376147
1761341829494719500,0.698719482421875,-0.06899462577104568,0.0021746406253427266,-0.006589392894250341
1761341829504785700,0.70878564453125,-0.07049158633053303,0.002768971522990614,-0.005872695992258377
1761341829514851600,0.7188515625,-0.06061725804805755,-0.00017703706733882427,-0.0033001009913161397
1761341829524918500,0.72891845703125,-0.06779752494096755,0.0009053696081973611,-0.005027733068098314
1761341829534984400,0.738984375,-0.06824351514279842,0.0011139891238883138,-0.007328192030196077
1761341829545050400,0.74905029296875,-0.06809329301714896,0.0072545559718273575,-0.008538330438360572
1761341829555116300,0.7591162109375,-0.06225742647051811,0.00651352834617719,-0.014749619868374428
1761341829565182500,0.769182373046875,-0.0653951399743557,0.008470580698084085,-0.011605997213558292
1761341829575248400,0.779248291015625,-0.06988309904336928,-0.00009147767573595046,-0.007157137179072014
1761341829585315600,0.789315673828125,-0.0632990444779396,0.006208444452378899,-0.003986046562017872
1761341829595381500,0.799381591796875,-0.06494213550984859,0.0007184870002791285,-0.008451209277333692
1761341829605447400,0.809447509765625,-0.07571604298055172,0.0029530228530056774,-0.011003250114014372
1761341829615513600,0.819513671875,-0.05925707561075687,-0.0023918087736703453,-0.010886437067622318
1761341829625579300,0.829579345703125,-0.06569324613809585,-0.001397427441459149,-0.008812178943678736
1761341829635645400,0.8396455078125,-0.0652466714143753,0.009205397778656333,-0.005860612828820012
1761341829645712400,0.84971240234375,-0.05761456910073757,0.00760346074104309,-0.0058129514619242395
1761341829655778300,0.8597783203125,-0.07437748785316943,0.007029606375843286,-0.008855766923655755
1761341829665844500,0.869844482421875,-0.06989245139360427,0.006426544182468206,-0.008922000560280866
1761341829675910400,0.879910400390625,-0.06585282061398029,0.0015216931419447064,0.00008058182238601148
1761341829685976600,0.8899765625,-0.06091887134313583,0.004041786204092204,-0.008189279538672416
1761341829696042500,0.90004248046875,-0.06735621091425419,0.0020672529944218694,-0.014603247367357835
1761341829706109400,0.910109375,-0.0702004944294691,0.005999751871451735,-0.002559014000161551
1761341829716175600,0.920175537109375,-0.07184884615838527,0.008465849724039435,-0.0020010330575285476
1761341829726241300,0.9302412109375,-0.06451368096470833,0.0039024507986381647,-0.00471272600190714
1761341829736307500,0.940307373046875,-0.057628597626090045,0.00653837052648887,-0.0034517159230308607
1761341829746373400,0.950373291015625,-0.06436404336094856,0.006325458428170532,-0.0038422359108459202
1761341829756439600,0.960439453125,-0.0631686960965395,0.0027745975461788475,-0.005302024531411007
1761341829766506500,0.970506591796875,-0.06002864450514316,0.004931483319122344,-0.00809670131781604
1761341829776572400,0.980572509765625,-0.0705056148558855,0.009872666048351676,-0.006617367746564559
1761341829786638600,0.990638671875,-0.0657213031888008,0.007330945676285773,-0.0024168975491542367
1761341829796704500,1.00070458984375,-0.06931552828848361,0.00717802013689652,-0.005365627819532528
1761341829806770700,1.010770751953125,-0.06722235540151596,0.010701262359600514,-0.01059735902713146
1761341829816836400,1.02083642578125,-0.06093699152171612,0.006717161159496754,-0.0024236697832355275
1761341829826903600,1.030903564453125,-0.060786184874176974,0.006203750010952353,-0.0035624873877037316
1761341829836969500,1.040969482421875,-0.06752221513092517,0.0057101578077301375,-0.003064931395417079
1761341829847035400,1.051035400390625,-0.06707564040720462,0.005942231264244765,-0.006133155293040909
1761341829857101600,1.0611015625,-0.06468319231271744,0.005559588622208685,-0.007058841603482142
1761341829867167500,1.07116748046875,-0.0738081635326147,0.005590239488799125,0.0010307586866896599
1761341829877233400,1.0812333984375,-0.06992460009753704,-0.0011433796151541172,-0.002667675706138834
1761341829887299600,1.091299560546875,-0.07277180622220039,0.004876629593037069,-0.008471845639985985
1761341829897366500,1.101366455078125,-0.07202595629096031,0.006153992585092783,-0.002375026602228172
1761341829907432400,1.111432373046875,-0.06544073268175125,0.005652363205887377,-0.0069003128737909715
1761341829917498400,1.121498291015625,-0.06544014815986156,0.0020118695453740657,-0.0005141829001018778
1761341829927564300,1.131564208984375,-0.05616027863919735,0.0031603637270629405,-0.016856606651563195
1761341829937630500,1.14163037109375,-0.06274491772651672,0.010076883383560924,-0.01592502032329794
1761341829947696400,1.1516962890625,-0.06424304732978343,0.008019366331864147,-0.0029589000379433854
1761341829957763300,1.161763427734375,-0.0637958880841732,0.010354403416998684,-0.0024667417399818078
1761341829967829500,1.17182958984375,-0.0655909548074007,0.0076633194358088075,-0.015432122239819726
1761341829977895400,1.1818955078125,-0.06678630207180976,0.01298243209933862,-0.002370058166165836
1761341829987961600,1.191961669921875,-0.06633797378242015,0.007471851984318345,-0.007905580926197581
1761341829998027500,1.202027587890625,-0.0766623839199543,-0.000051748453546315427,-0.011264513132395222
1761341830008093400,1.212093505859375,-0.07112520805895328,0.0028873920045793056,-0.0043478245125385
1761341830018160600,1.22216064453125,-0.07172258943021297,0.003860584418289363,-0.003845313783921301
1761341830028226300,1.232226318359375,-0.07052548860013484,0.004916230951063335,-0.008020512542757206
1761341830038292500,1.24229248046875,-0.07157295182645321,0.01118142882566899,-0.005618894761125557
1761341830048358400,1.2523583984375,-0.06618599809110164,0.006558974923100322,-0.004835270102764479
1761341830058424600,1.262424560546875,-0.06139408763945102,0.0025895415691658853,-0.0009136853453936054
1761341830068490500,1.272490478515625,-0.0645364773184061,0.009626911126356571,-0.008348068563267589
1761341830078557400,1.282557373046875,-0.060651160317659374,0.008516995389387012,-0.0060196895477827635
1761341830088623600,1.29262353515625,-0.07113046875596046,0.013252956136409193,-0.0014644784954143688
1761341830098689500,1.302689453125,-0.07442074247300624,0.01021300391862169,-0.0018730318968417123
1761341830108755500,1.31275537109375,-0.07262567574977874,0.004266936729475855,-0.00648520643399097
1761341830118821400,1.3228212890625,-0.06514671817123889,0.0003230579419061541,-0.00890791723600123
1761341830128887300,1.33288720703125,-0.06918225729763508,0.008367028992064297,-0.007741672768490388
1761341830138954500,1.34295458984375,-0.06768763482570647,0.005034194774925708,-0.0014648575213272123
1761341830149020400,1.3530205078125,-0.06080430505275726,0.0014500344115309417,-0.0036619611402275037
1761341830159086600,1.363086669921875,-0.05481763185858726,0.006383015567995608,-0.012015450230706482
1761341830169152500,1.373152587890625,-0.06484276678860187,0.007102817742526531,-0.004396773654222488
1761341830179218400,1.383218505859375,-0.06963409271836281,0.01158593623964116,-0.00616074655286502
1761341830189284600,1.39328466796875,-0.06649170303940773,0.005325195344444364,-0.010856763448566198
1761341830199351600,1.4033515625,-0.060655836492776866,0.005487856826558709,-0.005116119171027094
1761341830209417500,1.41341748046875,-0.07172843464910984,-0.0010963073367252945,-0.005328286917251534
1761341830219483400,1.4234833984375,-0.0621533815741539,0.00782988990806043,-0.007317433174164034
1761341830229549300,1.43354931640625,-0.06693769324123859,0.0053155324669554825,-0.0059589129709871486
1761341830239615500,1.443615478515625,-0.06768295865058899,0.007046922836825251,-0.006950481291604228
1761341830249681400,1.453681396484375,-0.07142389874458313,0.011216025215014814,-0.0019147795461816712
1761341830259747600,1.46374755859375,-0.06738309892117977,0.007020436688698828,-0.0009506472217617555
1761341830269814500,1.473814453125,-0.060948681959509844,0.011662800868134945,-0.009573276676400564
1761341830279880400,1.48388037109375,-0.06109948860704899,0.0072149546138010915,0.00009122651398647576
1761341830289946600,1.493946533203125,-0.06723579940497874,0.004905088502541184,-0.003707649745745584
1761341830300012300,1.50401220703125,-0.07157879704535007,0.006821936708223075,-0.0069309089414542535
1761341830310078500,1.514078369140625,-0.06065525197088718,0.0000519859155640006,-0.00790444384845905
1761341830320144400,1.524144287109375,-0.07262392218410968,0.0038334224167279897,0.0029672842737985773
1761341830330211300,1.53421142578125,-0.06663724898993968,0.005629840846825391,-0.0012236554768634959
1761341830340277500,1.544277587890625,-0.05840484269559383,0.011290971881058067,-0.009515874800202436
1761341830350343400,1.554343505859375,-0.07306523621082306,0.0036533531420864162,-0.00015932788071222604
1761341830360409600,1.56440966796875,-0.062438043734431264,0.009630673986021429,-0.00570571909463033
1761341830370475500,1.5744755859375,-0.06004676468372345,0.007218132951576263,-0.0008575255782110616
1761341830380541400,1.58454150390625,-0.06648351973295212,0.009974884313810616,0.0009758866942953318
1761341830390608600,1.594608642578125,-0.06663374185860156,0.008654686827026307,-0.00009602142011281103
1761341830400674600,1.604674560546875,-0.06603636048734188,-0.0056532765213400124,-0.001543398083676584
1761341830410740500,1.614740478515625,-0.060952773612737654,0.005683342866040766,-0.00827285246916581
1761341830420806400,1.624806396484375,-0.06245090321600437,0.005143774362932891,0.00031136750411242244
1761341830430872300,1.634872314453125,-0.056015317210555075,0.009293185659963637,0.0038970942035084586
1761341830440938500,1.6449384765625,-0.07441957342922687,0.00877034909594804,-0.0013640914274379611
1761341830451004400,1.65500439453125,-0.0742699358254671,0.004097187919449061,-0.0035784293089294802
1761341830461071600,1.665071533203125,-0.06618716713488101,0.0032433475690893825,-0.009068765786942094
1761341830471137500,1.675137451171875,-0.06289513985216617,0.005315842994209378,-0.00443241578976158
1761341830481203500,1.685203369140625,-0.05556172822415829,0.008702453225199133,-0.007334525872860103
1761341830491269400,1.695269287109375,-0.06080313600897789,0.007825871320068836,-0.000294790828647092
1761341830501335300,1.705335205078125,-0.07037818908393383,0.006373151761107147,0.0015077239820966495
1761341830511401500,1.7154013671875,-0.06214636731147766,0.008547810652758926,-0.011646041529579088
1761341830521468400,1.725468505859375,-0.057058688783645624,0.006630615387205034,0.00506131111071445
1761341830531534300,1.735534423828125,-0.06065174483954906,0.0030973084282130002,-0.0022913669067667797
1761341830541600500,1.7456005859375,-0.07292202834784985,0.003405917719658464,-0.004659808504581451
1761341830551666400,1.75566650390625,-0.07067454168200492,0.011971300561726093,0.000734908412117511
1761341830561732600,1.765732666015625,-0.06049450845122337,0.006326627471949905,-0.008437760707293636
1761341830571798500,1.775798583984375,-0.06393149716258048,0.005433003100473433,-0.00261084008552134
1761341830581864400,1.785864501953125,-0.07036357603669166,0.002961717616114765,-0.007932450666814111
1761341830591931600,1.795931640625,-0.07784487170279025,0.0056348458155058324,0.0005179777258075773
1761341830601997300,1.805997314453125,-0.06438216353952884,0.01090666700489819,0.008711129721999169
1761341830612063500,1.8160634765625,-0.06064239248931408,0.007645802045427262,-0.002199939463380724
1761341830622129400,1.82612939453125,-0.05764671780467033,-0.0031069895720109344,-0.005497757166065275
1761341830632195600,1.836195556640625,-0.05914075575470924,0.007103347465489059,-0.005801256457553245
1761341830642261500,1.846261474609375,-0.06542378154695033,0.011414159869309513,0.000943281332636252
1761341830652328400,1.856328369140625,-0.06617313860952853,0.004908230307698249,-0.002590925242076628
1761341830662394600,1.86639453125,-0.07171323707997798,0.004465747237205505,-0.00792792062216904
1761341830672460500,1.87646044921875,-0.06094049865305423,0.006611052170209586,0.0008706544878426939
1761341830682526500,1.8865263671875,-0.07171382160186768,0.00504696292495355,0.004215686032851227
1761341830692592400,1.89659228515625,-0.06662614307403564,0.005083678206149488,-0.0016768334713065996
1761341830702658300,1.906658203125,-0.057796939930319785,0.0034398017229512333,-0.004574751436477527
1761341830712725500,1.9167255859375,-0.07291384504139423,0.0019390965701080857,-0.005493195155379362
1761341830722791400,1.92679150390625,-0.06483633704781532,0.0005732150443829596,-0.005008188117411919
1761341830732857300,1.936857421875,-0.06693243254423141,0.008976557458844035,-0.0011840221527963876
1761341830742923500,1.946923583984375,-0.06409107163846492,0.007671064350847154,-0.008913246431667358
1761341830752989400,1.956989501953125,-0.06454699871242046,0.012417601290810853,-0.0015638289503520353
1761341830763055900,1.967055908203125,-0.07157879704535007,0.006350391940027475,-0.008592992368200793
1761341830773121800,1.977121826171875,-0.061109425479173654,0.005818221292085945,-0.004132218133634887
1761341830783188700,1.987188720703125,-0.06485153461694718,0.005574566995631903,-0.00019003811280708758
1761341830793254700,1.997254638671875,-0.07024258000552654,0.002135514191351831,-0.009332841816917061
1761341830803320600,2.007320556640625,-0.06754851861596108,0.0030515695903450247,-0.012366569789894855
1761341830813386800,2.01738671875,-0.06590075140893459,0.0035784064760431646,-0.0005277639008825645
1761341830823452700,2.02745263671875,-0.05631751502752304,-0.00009401669269427656,-0.00023708755834959445
1761341830833518800,2.037518798828125,-0.0699351214915514,0.005785415001027285,-0.012020400400459765
1761341830843585800,2.047585693359375,-0.0621574732273817,0.013996011322364211,-0.006227414014330133
1761341830853651700,2.057651611328125,-0.0636520956993103,0.009075469522364437,-0.0034371394084068015
1761341830863718000,2.0677177734375,-0.06874211231470108,0.010328282595053315,-0.0037259343211073427
1761341830873783800,2.07778369140625,-0.06455284393131733,0.0033285599008202552,0.0007962147118756547
1761341830883849700,2.087849609375,-0.06515080982446671,0.002981426963582635,-0.004675846323929727
1761341830893915600,2.09791552734375,-0.0630552988499403,0.0001492905438877642,-0.004700830068136565
1761341830903981600,2.107981689453125,-0.056767012360692023,0.00662308966787532,-0.008055661487951874
1761341830914048800,2.118048828125,-0.05885726263821125,0.004345938516128808,-0.012951502671535126
1761341830924114700,2.12811474609375,-0.06903437325954437,0.0034719138942658897,-0.007304797454876825
1761341830934180900,2.138180908203125,-0.06005260990262031,0.0033288338954560455,-0.0072910703236237166
1761341830944246800,2.148246826171875,-0.06573416267037391,0.015074070616345851,-0.009022478959802538
1761341830954312700,2.158312744140625,-0.06573240910470485,0.008703969328850506,-0.006343816068768501
1761341830964379000,2.16837890625,-0.06349135217964649,0.007792297844029962,-0.011755529786041006
1761341830974445800,2.17844580078125,-0.06603051526844501,0.006252612387668341,-0.011461218448006547
1761341830984511500,2.188511474609375,-0.06782441294789314,0.0034057533228769895,-0.0058693943568971
1761341830994577700,2.19857763671875,-0.07036708316802978,0.00320984715828672,0.003000017499621026
1761341831004643600,2.2086435546875,-0.062138768526911733,0.00461976875513792,-0.004788736680452712
1761341831014709800,2.218709716796875,-0.06288987915515899,0.009847696003876626,-0.005249970117188058
1761341831024775700,2.228775634765625,-0.07067337263822555,0.008937960747815669,-0.013312924429029226
1761341831034842600,2.238842529296875,-0.05541150609850883,0.007394932556897401,-0.007145063148788176
1761341831044908800,2.24890869140625,-0.0678349343419075,0.008251421522069723,0.00020417623601388184
1761341831054974700,2.258974609375,-0.06364858856797218,0.004786576689407229,-0.012430008681234903
1761341831065041000,2.269041015625,-0.06514905625879765,0.004206128186639398,-0.011781349213887005
1761341831075106600,2.2791064453125,-0.0669458765476942,0.001305803635250777,-0.009421629778645
1761341831085172700,2.2891728515625,-0.058712885731458664,0.005981686491798609,-0.0020124403675319627
1761341831095239700,2.29923974609375,-0.07233224576115607,0.007140720333810895,-0.0017401170990196987
1761341831105305600,2.3093056640625,-0.06664660134017467,0.003733323043119162,-0.0028747380189830434
1761341831115371800,2.319371826171875,-0.07039046404361725,0.003549929300229996,-0.00047945408001542086
1761341831125437700,2.329437744140625,-0.06140986973047256,0.008525598820950836,-0.00952233650702983
1761341831135504000,2.33950390625,-0.06290916837751866,0.004323690151702612,0.0003948034372879192
1761341831145569800,2.34956982421875,-0.06126081664860248,0.0051343489474616946,-0.005666912321047857
1761341831155635700,2.3596357421875,-0.06440320632755756,0.006932228682283312,-0.010595395398908294
1761341831165703000,2.369702880859375,-0.07158288869857787,0.008626374047994613,-0.005867759522236883
1761341831175768600,2.3797685546875,-0.06904021847844123,-0.0005899104508571327,-0.010191330942930654
1761341831185834800,2.389834716796875,-0.06649228756129741,0.00505202269256115,-0.007718077263771556
1761341831195900700,2.399900634765625,-0.07038461882472039,0.006898746537789702,0.006707274519721977
1761341831205966600,2.409966552734375,-0.07098492280542851,0.004868811612762511,0.0056254614992300046
1761341831216032800,2.42003271484375,-0.06365326474308967,0.0006679441231302916,-0.00418686636374332
1761341831226099700,2.430099609375,-0.06978606840968131,0.003239840437751263,-0.008051268440624698
1761341831236166000,2.440165771484375,-0.07741232550442219,0.008550367936026305,-0.008103953042509965
1761341831246231800,2.450231689453125,-0.07232347793281078,-0.000008091974910348654,-0.007896799398120493
1761341831256297700,2.460297607421875,-0.06469663631618022,0.003015475363656878,-0.004919687850051559
1761341831266363600,2.47036376953125,-0.06275543912053108,0.003185790429264307,-0.004192547185858712
1761341831276429600,2.4804296875,-0.0735293465912342,0.007205565730948001,-0.003949130351422354
1761341831286496500,2.49049658203125,-0.06574585310816765,0.0008357567043974995,0.0004568860551808029
1761341831296562700,2.500562744140625,-0.05346913985908031,0.004318685183022171,-0.002253487148368731
1761341831306628600,2.510628662109375,-0.06618424452543259,0.010270305330120027,-0.009439174568490125
1761341831316694800,2.52069482421875,-0.06393734238147736,0.005809526528976858,-0.009805057871970347
1761341831326760700,2.5307607421875,-0.0703705902993679,0.010851192224305122,-0.0017600182427326217
1761341831336827000,2.540826904296875,-0.06303834771513939,0.007149743890482932,-0.0023416768884751945
1761341831346892800,2.550892822265625,-0.060498600104451176,0.0059655390745960175,-0.007190464059938676
1761341831356959700,2.560959716796875,-0.06274257963895798,0.011614194219745695,-0.001246666459692642
1761341831367025700,2.571025634765625,-0.06858253783881664,0.006380531349964439,-0.004298994101863354
1761341831377091600,2.581091552734375,-0.06858253783881664,0.00443533383263275,-0.0030770510914735496
1761341831387157800,2.59115771484375,-0.0654389791160822,0.004104494443070143,-0.003786514535080641
1761341831397223700,2.6012236328125,-0.05900514667630195,0.0035381657972000536,0.000303047200338915
1761341831407289900,2.611289794921875,-0.06873159092068672,0.011155874259304255,-0.0070493979217018925
1761341831417356800,2.621356689453125,-0.07845686612129212,0.010830131169967352,-0.010588499867240898
1761341831427422700,2.631422607421875,-0.06947977893948555,0.008917685144767165,-0.0017007714693201704
1761341831437489000,2.641489013671875,-0.06499123534858227,0.008901903053745627,-0.006359292199113406
1761341831447554800,2.651554931640625,-0.07352350137233733,0.0013731880493462086,-0.008463607534603216
1761341831457620700,2.661620849609375,-0.0684404990196228,0.005147062298562377,-0.00879392633435782
1761341831467686700,2.671686767578125,-0.06649462564885616,0.0040347536751069125,0.0027274202364729718
1761341831477752600,2.681752685546875,-0.06619535044133663,-0.0032722814026288688,0.0027507326134014872
1761341831487819800,2.69181982421875,-0.06245499486923217,0.0021217231280170378,-0.0023221456375205887
1761341831497885700,2.7018857421875,-0.0649982496112585,0.005697444456629455,-0.0025822761447401718
1761341831507951600,2.71195166015625,-0.07352350137233733,0.010482815569639205,-0.0010471252996008843
1761341831518017800,2.722017822265625,-0.06080664314031601,0.00506026079794392,-0.01061571666772943
1761341831528083700,2.732083740234375,-0.06499298891425133,0.00970346522759646,-0.007302258437918499
1761341831538150000,2.74214990234375,-0.0685842914044857,0.00803841809220612,-0.002385639327787794
1761341831548216800,2.752216796875,-0.06169920806586742,0.009790741652250289,-0.0023468919197097418
1761341831558282500,2.762282470703125,-0.06498889726102351,0.014181743152812122,-0.0016941727651748806
1761341831568348700,2.7723486328125,-0.07232172436714172,0.008259787491615862,-0.006838892409601249
1761341831578414600,2.78241455078125,-0.07157236730456353,0.004940616473648697,-0.001798021298716776
1761341831588480800,2.792480712890625,-0.06453706184029578,0.010242010817397385,-0.005798196850786917
1761341831598546700,2.802546630859375,-0.06139817929267883,0.008610975549463181,0.004347545951325446
1761341831608612900,2.81261279296875,-0.06603928309679032,0.008089034034591167,-0.0002936811503721401
1761341831618679800,2.8226796875,-0.07202478724718094,0.004311908382363617,-0.007006741523486562
1761341831628745700,2.832745849609375,-0.061253217864036556,0.007403645586315542,-0.00932375432816334
1761341831638812000,2.84281201171875,-0.05975508826076984,0.010497976606152952,-0.0018277634164318441
1761341831648877600,2.852877685546875,-0.06738660605251788,0.008857680319529026,-0.009741153189749456
1761341831658943700,2.86294384765625,-0.07636778488755226,0.008385386632662266,-0.007575179928052239
1761341831669009700,2.873009765625,-0.054071197405457495,0.0068869647684507065,-0.003579246726259589
1761341831679076600,2.88307666015625,-0.06798924812078476,0.004152918428368866,-0.0030690367483766747
1761341831689142800,2.893142822265625,-0.0672422291457653,0.004668923392798751,-0.004912801451538689
1761341831699208700,2.903208740234375,-0.06185644445419311,0.0009954773107543587,-0.011723554612044244
1761341831709275000,2.91327490234375,-0.06634732613265514,0.004054901413992047,-0.007683028783276677
1761341831719340800,2.9233408203125,-0.06844225258529185,0.004360624628607183,-0.005636074224789627
1761341831729406700,2.93340673828125,-0.06889233444035053,0.010395374748203902,-0.011427795669017358
1761341831739474000,2.943473876953125,-0.06290799933373928,0.0029596352568827568,-0.002597017056145705
1761341831749539600,2.95353955078125,-0.0675514412254095,-0.005953665973711758,-0.006438389883888885
1761341831759606000,2.96360595703125,-0.07203823125064372,0.006208444452378899,-0.0055854674155591056
1761341831769672200,2.973672119140625,-0.05737666869163513,0.006141096570901572,-0.00046581371373031284
1761341831779738000,2.983738037109375,-0.061864043238759034,0.009530337150394915,-0.004135003745765425
1761341831789804300,2.99380419921875,-0.06665244655907154,0.013438651434239,-0.0026845857417443766
1761341831799870000,3.003869873046875,-0.06739537388086318,0.009675609106291085,0.0005489071536110714
1761341831809937200,3.013937255859375,-0.06769406456649303,0.0065276664693839845,-0.002937149430438876
1761341831820003000,3.024003173828125,-0.07188333294987678,0.004388005825877189,-0.007917618423863314
1761341831830069000,3.034069091796875,-0.06649930182397365,0.001214289426896721,-0.007325077624502591
1761341831840135200,3.04413525390625,-0.05751520037949085,0.0074381141114979975,-0.0033898525008466095
1761341831850201000,3.054201171875,-0.06199731422960758,0.007332498312555253,-0.005300526694068685
1761341831860267300,3.064267333984375,-0.06109481243193149,0.004786558423098176,-0.004529145029350184
1761341831870334200,3.074334228515625,-0.06273614989817142,0.007148757509794086,-0.0066433881038101385
1761341831880400100,3.084400146484375,-0.06348492243885993,0.006902071006037295,-0.0038310158305102956
1761341831890466300,3.09446630859375,-0.05046703543365001,0.001675422398932278,-0.005030048322770745
1761341831900532200,3.1045322265625,-0.06423427950143813,0.0061934295463375744,-0.0017464737745700404
1761341831910598100,3.11459814453125,-0.06513093608021736,0.011382029431685805,-0.006037275436823256
1761341831920664000,3.1246640625,-0.060792614614963526,0.013670304765645415,-0.0003944472442613914
1761341831930730000,3.13472998046875,-0.0637830286026001,0.013294511989504099,-0.0024126688986085354
1761341831940797200,3.144797119140625,-0.06797521959543228,0.006053272156976163,-0.0016926475283689797
1761341831950863000,3.154863037109375,-0.07201718846261501,0.005819025009684264,-0.005892752399598248
1761341831960929300,3.16492919921875,-0.0592991611868143,0.007402531341463327,0.0001831791137577966
1761341831970995200,3.1749951171875,-0.0603448708474636,0.012118892338871956,0.0039849368837429205
1761341831981061000,3.18506103515625,-0.06424187828600406,0.008680515388026833,-0.0020649514394812285
1761341831991127000,3.195126953125,-0.06933306394517422,0.004910659726802259,-0.007102438716613687
1761341832001194200,3.2051943359375,-0.06843465380072593,0.006379508436657488,0.00109973683624994
1761341832011260200,3.21526025390625,-0.06139876381456852,0.009110869629308582,-0.0021248603665968402
1761341832021326000,3.225326171875,-0.06513970390856266,0.008491148562077432,-0.004449175128317438
1761341832031392000,3.23539208984375,-0.07067629524767398,0.008210724185500293,-0.003365457845106721
1761341832041458200,3.245458251953125,-0.0631944150596857,0.0008559227095916867,-0.003676350425183773
1761341832051524000,3.255524169921875,-0.06439210041165351,0.013148016190901397,-0.0026549760547699406
1761341832061590300,3.26559033203125,-0.061847676625847815,0.007301902244891971,-0.000574105526949279
1761341832071657200,3.2756572265625,-0.06992986079454422,0.004685618799272925,-0.0028914334254572164
1761341832081723100,3.28572314453125,-0.0661877516567707,0.005091971110459417,-0.009814702483150176
1761341832091789300,3.295789306640625,-0.05885434002876282,0.0011673267463222145,-0.006408885228191502
1761341832101855000,3.30585498046875,-0.06184124688506126,0.004073295587208122,0.0013979525978444144
1761341832111921200,3.315921142578125,-0.07396364635527133,0.00446773826489225,-0.001210919292876497
1761341832121987000,3.325987060546875,-0.07081774954497813,0.008683437997475266,0.005127558447071351
1761341832132054000,3.336053955078125,-0.06094283674061298,0.010824413815233856,0.0019724736833246423
1761341832142120200,3.3461201171875,-0.05345861846506595,0.005208692825306207,-0.012354861085792071
1761341832152186000,3.35618603515625,-0.06962006419301033,0.009852098184358327,-0.0026359288610052316
1761341832162252300,3.366252197265625,-0.0711158557087183,0.0027920236050151285,0.001714809127827175
1761341832172318200,3.376318115234375,-0.05794774657785892,0.009857084886729716,-0.0009239053453085944
1761341832182384000,3.386384033203125,-0.06498246752023697,0.009460523317195475,-0.000643417036649771
1761341832192450000,3.396449951171875,-0.06408230381011963,0.010288114981446415,-0.0015001845630351453
1761341832202517000,3.40651708984375,-0.06094342126250267,0.009331179582793265,0.0007106553202727809
1761341832212583200,3.416583251953125,-0.057953591796755785,0.007625818703323602,-0.0016870717375306412
1761341832222649000,3.426649169921875,-0.06079729079008102,0.0007735781883820891,-0.00013476882819086312
1761341832232715000,3.436715087890625,-0.056008302947878834,-0.0005851429441943764,0.0014016652251593767
1761341832242781200,3.44678125,-0.05885375550687313,0.008181625955179333,-0.003266833475953899
1761341832252847000,3.45684716796875,-0.05735737946927547,0.011468520405050366,0.00005438793520443141
1761341832262914300,3.466914306640625,-0.06109715051949024,0.005876929209381342,-0.005382921447628177
1761341832272980200,3.476980224609375,-0.0684276395380497,-0.007072678332589566,0.007889154947781935
1761341832283046100,3.487046142578125,-0.06333762292265892,0.0037580556255765256,0.008531599303474649
1761341832293112000,3.497112060546875,-0.0693207889854908,0.0017526158209890126,-0.006146033040923066
1761341832303178000,3.507177978515625,-0.06961947967112064,0.003974931512959301,-0.0026048989685019475
1761341832313244200,3.517244140625,-0.06572890197336673,0.01729413955230266,-0.00452645074876491
1761341832323310000,3.52731005859375,-0.0640875645071268,0.007194587679207325,-0.0026358055634191258
1761341832333377000,3.537376953125,-0.06797931124866008,0.004510554493311792,-0.003834911120915785
1761341832343443200,3.547443115234375,-0.07007716031074523,0.01121916702017188,-0.0006589114333037287
1761341832353509000,3.557509033203125,-0.0679834029018879,0.007347988142631948,0.0033234453342854977
1761341832363575300,3.5675751953125,-0.071869888946414,0.00475627288268879,-0.008673085566819646
1761341832373641000,3.577640869140625,-0.0684317311912775,0.003800049870088696,-0.004319516300084069
1761341832383707100,3.58770703125,-0.06245148773789405,0.004303597211744636,-0.004982546786079183
1761341832393774000,3.597774169921875,-0.06888765826523303,0.0023073270943015814,-0.00038075664562638845
1761341832403840000,3.607840087890625,-0.06963467724025249,0.008980685644689948,0.006758000059961341
1761341832413906200,3.61790625,-0.06858662949204444,0.003246672037336975,-0.005476919874013401
1761341832423972000,3.62797216796875,-0.06424304732978343,0.0024570377632975576,-0.0031668071675812824
1761341832434038300,3.638038330078125,-0.06319675314724445,0.00681691347323358,-0.0057003624995006245
1761341832444104200,3.648104248046875,-0.06858604497015476,0.007186623568460345,-0.004424981401977129
1761341832454170000,3.658170166015625,-0.06319792219102383,0.005198956882581114,-0.007526929472689517
1761341832464237300,3.6682373046875,-0.06603694500923156,0.006238328133989125,-0.004078117892798036
1761341832474303200,3.67830322265625,-0.05810381392240524,0.011088252383191138,-0.005177772530657239
1761341832484369200,3.688369140625,-0.05989537351429462,0.0021169008224271235,-0.005240056077949702
1761341832494435000,3.69843505859375,-0.06827274123728275,0.009477017794270067,-0.0011151718673994763
1761341832504501000,3.7085009765625,-0.06617781478464603,0.00932047552568838,-0.009120692337001673
1761341832514567200,3.718567138671875,-0.06587795505523682,0.007916581810824573,-0.0029643114320002497
1761341832524634000,3.728634033203125,-0.06632569882273674,0.005480714699719101,-0.0007952054983004927
1761341832534700000,3.738699951171875,-0.060489832276105875,0.010595957087911665,-0.00047044878965243696
1761341832544766200,3.74876611328125,-0.06153554193675518,0.0004891352238133549,-0.01061425079642795
1761341832554832100,3.75883203125,-0.06123451316356659,0.010446812674496321,-0.0035772693983046337
1761341832564898000,3.76889794921875,-0.06632452977895736,0.012587825024873017,-0.007213484175922349
1761341832574964000,3.7789638671875,-0.06348141530752181,0.006335523164458573,0.0006733737834962085
1761341832585030100,3.789030029296875,-0.06288344941437245,0.005486267657671124,-0.0029956792512210086
1761341832595097000,3.79909716796875,-0.06063946987986564,0.007715652411244809,-0.0018902341933920979
1761341832605163000,3.8091630859375,-0.0684229633629322,0.002126307971589267,-0.004743536698701791
1761341832615229200,3.819229248046875,-0.06797288150787353,0.004782137976307422,-0.0006912656332133337
1761341832625295000,3.829295166015625,-0.06393149716258048,0.00653776773829013,-0.00006814246592111885
1761341832635361300,3.839361328125,-0.06393149716258048,0.003266911107767373,-0.009681198596861213
1761341832645427200,3.84942724609375,-0.06722235540151596,0.0052704146835952995,-0.01164674934905488
1761341832655494100,3.859494140625,-0.06946458137035369,0.00531774269035086,-0.009864971365663222
1761341832665560300,3.869560302734375,-0.06707096423208714,0.003059752896800637,-0.012980399972456506
1761341832675626000,3.8796259765625,-0.0727536860436201,0.011150412632897495,-0.008800844698911531
1761341832685692200,3.889692138671875,-0.07095978836417198,0.0032915340923704204,-0.006989822354726493
1761341832695758000,3.899758056640625,-0.06078560035228729,0.00045057504540309306,-0.0011797843690961598
1761341832705824300,3.90982421875,-0.0637783524274826,0.00813124747481197,-0.007300431807013228
1761341832715890200,3.91989013671875,-0.06542261250317097,0.004458605110365897,-0.002962384336395189
1761341832725957000,3.92995703125,-0.06751753895580768,0.006095028939470649,-0.006443477050960064
1761341832736023300,3.940023193359375,-0.06183364810049533,0.007545428677182644,0.00212816656853538
1761341832746089200,3.950089111328125,-0.06647416738271712,0.004771908843237907,-0.003870854650554247
1761341832756155100,3.960155029296875,-0.06362929934561252,0.004601228451449424,-0.0025204538217512887
1761341832766221300,3.97022119140625,-0.06811725841462611,0.006508304181788116,-0.0033539820364443585
1761341832776287200,3.980287353515625,-0.05689210004508495,0.00432219231436029,0.0035117116151144726
1761341832786354200,3.990354248046875,-0.060930561780929565,0.009704743869230151,-0.0022346043513854965
1761341832796420000,4.000420166015625,-0.0666191288113594,0.00844590291455388,-0.00701621260473039
1761341832806486000,4.010486083984375,-0.07050912198722362,0.008673154065478592,-0.009592136640497483
1761341832816552200,4.02055224609375,-0.06467383996248245,0.007141323122009635,-0.003930653979815542
1761341832826618000,4.0306181640625,-0.0643710576236248,0.002840666786022484,-0.011298620897973887
1761341832836684300,4.040684326171875,-0.06496960803866386,0.00675027797780931,-0.0136915621828055
1761341832846750200,4.050750244140625,-0.0708060591071844,0.004203771832771599,0.006789121284009888
1761341832856817200,4.060817138671875,-0.06616729339063167,0.012613178661838174,0.001816164310183376
1761341832866883300,4.07088330078125,-0.0592775338768959,0.0032620705358684062,-0.0037091658493969585
1761341832876949200,4.08094921875,-0.06346504869461059,0.008435217123758047,-0.0063001458904007445
1761341832887015200,4.09101513671875,-0.056581134399771686,0.006205393978767097,-0.00591374495527707
1761341832897081000,4.1010810546875,-0.05972703121006488,0.004677599889598786,-0.0030003188937203955
1761341832907147300,4.111147216796875,-0.0636170243859291,0.007162877366691828,-0.005371436505811289
1761341832917214200,4.121214111328125,-0.06990180374383927,0.010726177605148404,-0.002618621533177793
1761341832927280000,4.131280029296875,-0.05912731175124645,0.005172836060635745,-0.00756067647866439
1761341832937346300,4.14134619140625,-0.07379121239781379,0.0005062872880138456,0.002232206898322329
1761341832947412200,4.151412109375,-0.06361819342970848,0.01163644258417189,0.0005754389675101265
1761341832957478400,4.161478515625,-0.06197159526646137,0.0009802066763862968,-0.0034846089790575205
1761341832967544300,4.17154443359375,-0.06197042622268199,0.0029006168123334643,-0.0004052928652614355
1761341832977610000,4.18160986328125,-0.06436462788283824,0.015086382108647375,-0.006499540920020081
1761341832987677200,4.19167724609375,-0.06361936247348784,0.004897599315829575,-0.0038481267955154178
1761341832997743000,4.2017431640625,-0.06422317358553409,-0.0025045849657617508,0.0006667431133100763
1761341833007809300,4.211809326171875,-0.06916004546582698,0.0028598829431459305,-0.009333065579202956
1761341833017875200,4.221875244140625,-0.06437281118929386,0.008422430707421153,-0.00565857831754256
1761341833027941000,4.231941162109375,-0.05165010773837566,0.00781679296446964,-0.004037169394479133
1761341833038007300,4.24200732421875,-0.06287058993279934,0.004411057907901704,0.004997977250651456
1761341833048074200,4.25207421875,-0.06286825184524059,0.0019035320663824675,-0.0013109410346718504
1761341833058140200,4.26214013671875,-0.07184592354893685,0.002934482549317181,-0.00890617737006396
1761341833068206300,4.272206298828125,-0.07124737313389777,0.012983034887537359,-0.001939932253747247
1761341833078272000,4.28227197265625,-0.05942015721797943,0.0067543696310371154,-0.006383837551902979
1761341833088338200,4.292338134765625,-0.06809563110470772,-0.0014813428652472793,0.0004704807556932792
1761341833098404000,4.302404052734375,-0.07243687517940997,0.00938117447067052,-0.006880914053576998
1761341833108470300,4.31247021484375,-0.0682528674930334,0.010050506833288819,-0.003923479886935092
1761341833118537200,4.322537109375,-0.05942424887120723,0.0018462854538112878,-0.009113116385322063
1761341833128603100,4.33260302734375,-0.06855214270055293,0.005441277738474309,0.0001669677644735202
1761341833138669300,4.34266943359375,-0.0681008918017149,-0.004848444678168744,-0.002668885849113576
1761341833148735200,4.3527353515625,-0.05613222158849239,0.009599402064923197,-0.008466772172646596
1761341833158801400,4.362801513671875,-0.05658288796544075,0.008600198427122086,0.0031547514036064967
1761341833168867000,4.3728671875,-0.07079962936639786,0.004478497120924294,0.0003405844654422253
1761341833178934000,4.38293408203125,-0.06256663855016231,0.004329297908581793,-0.007203862397628836
1761341833189000200,4.393000244140625,-0.059870823594927784,0.0023086240022443232,-0.009032977520930581
1761341833199066000,4.403066162109375,-0.058823360368609426,0.003964263988472521,-0.002271287666540593
1761341833209132300,4.41313232421875,-0.06451075835525989,0.008394026596844196,-0.0036276433120947327
1761341833219199200,4.42319921875,-0.07349076814651488,0.009273750307131559,-0.008369234648882411
1761341833229265200,4.43326513671875,-0.0734901836246252,0.0032690665322355926,-0.0011603946820367126
1761341833239331300,4.443331298828125,-0.06570376753211021,0.004399623198434711,-0.0034346643235301597
1761341833249397200,4.453397216796875,-0.07707856350541115,0.007599423886742443,0.003825398940476589
1761341833259463400,4.46346337890625,-0.0694470457136631,0.008195891942549497,-0.0034213344844989477
1761341833269529000,4.473529052734375,-0.05403261896073818,0.007972787243779748,-0.0038891209596069527
1761341833279596300,4.48359619140625,-0.0651075552046299,0.009213380155712365,-0.0056329141533235086
1761341833289662200,4.493662109375,-0.06510638616085052,0.008854629845917224,-0.002376844099978916
1761341833299728100,4.50372802734375,-0.06345920347571372,0.0028198979926295576,-0.004163649884937331
1761341833309794300,4.513794189453125,-0.067947747066617,0.007437456524372101,0.0006141224435064942
1761341833319860200,4.523860107421875,-0.06450491313636303,0.010081742221768945,-0.00028954383137170224
1761341833329926100,4.533926025390625,-0.07138532029986382,0.002621471077390015,0.00016863913175184278
1761341833339993300,4.543993408203125,-0.05821721116900444,0.0016002382708713411,0.0012838886309647932
1761341833350059300,4.554059326171875,-0.06315408304929733,0.001904993371106684,-0.011672244549915193
1761341833360125200,4.564125244140625,-0.06555062279701232,0.00451141300983727,-0.00844948311112821
1761341833370191000,4.574191162109375,-0.055821840465068814,0.009988638844527303,0.004491411401424557
1761341833380257000,4.584257080078125,-0.0616565379679203,0.009598269553761928,-0.013406986787496133
1761341833390323200,4.5943232421875,-0.06868599821329116,0.009317607715167105,-0.002445529988594353
1761341833400389000,4.60438916015625,-0.06823883896768093,0.007155680440925061,-0.004973285767389461
1761341833410456000,4.6144560546875,-0.07227963879108429,0.00580643952274695,-0.006389454441936686
1761341833420522200,4.624522216796875,-0.06568856996297837,0.007160466213896871,-0.008320057178335264
1761341833430588200,4.634588134765625,-0.06583645400106906,-0.00007881912356242537,0.0008585256586316972
1761341833440654300,4.644654296875,-0.06344400590658188,0.003452789068687707,0.0018149541672086342
1761341833450720300,4.65472021484375,-0.0739215607792139,0.0024082484518177807,0.0048541711660567664
1761341833460786200,4.6647861328125,-0.07451601954102516,0.0008832856405526399,-0.006174172290018759
1761341833470853400,4.674853271484375,-0.0679307959318161,0.0010017974536865948,-0.004934186732862144
1761341833480919000,4.6849189453125,-0.06897884368002415,-0.002420085020083934,0.0005851064115762711
1761341833490985200,4.694985107421875,-0.06852934634685516,0.004757405393850058,0.0027249862507916986
1761341833501051100,4.705051025390625,-0.07032792020142078,0.003673866207152605,-0.0008986430398887022
1761341833511117300,4.715117431640625,-0.06898585794270039,-0.0026990480919368565,-0.00742116754327435
1761341833521183200,4.725183349609375,-0.05821078142821789,0.002333466182556003,-0.010702878927951678
1761341833531249400,4.73524951171875,-0.06793664115071296,0.006912080943398177,-0.0054339666482759634
1761341833541316400,4.74531640625,-0.06479658955931664,0.004749697011429816,-0.0009868099471088498
1761341833551382300,4.75538232421875,-0.06599544395506382,0.007500420491676777,-0.004389700026041828
1761341833561448200,4.7654482421875,-0.07063537871539592,0.006779650202766061,-0.0027748761073919013
1761341833571514000,4.77551416015625,-0.07018821946978569,0.0034174254943616688,0.0007515124870464205
1761341833581580300,4.785580322265625,-0.062110711476206774,0.004277220661472529,-0.0022290605265880004
1761341833591646200,4.795646240234375,-0.06929273193478584,0.007687083903886377,-0.0020836744062602518
1761341833601713200,4.805713134765625,-0.05732172363400459,0.004246734191663563,0.0018249321385286747
1761341833611779300,4.815779296875,-0.07049217085242271,0.013160492079984395,-0.004728873419109732
1761341833621845200,4.82584521484375,-0.07797580460608006,0.0006431567417457699,0.005099684059456922
1761341833631911200,4.8359111328125,-0.057175593161582945,0.0059792205400764934,-0.007725954609550535
1761341833641977300,4.845977294921875,-0.0600181231111288,0.007159004909172654,-0.003323614297644235
1761341833652043000,4.85604296875,-0.06286065306067466,0.0047373489865101875,0.0008382454890059306
1761341833662109200,4.866109130859375,-0.06750000329911708,0.014636044525261967,-0.001883429993269965
1761341833672176000,4.876176025390625,-0.06525660828649997,0.007512129195779561,0.005000776562513783
1761341833682242000,4.886241943359375,-0.069747489964962,0.009713548230193554,0.001547361872741021
1761341833692308200,4.89630810546875,-0.06301321327388286,0.006083521164767444,0.004098959751427173
1761341833702374100,4.9063740234375,-0.06062134970128536,0.006519793690182268,-0.0023277579609770325
1761341833712440300,4.9164404296875,-0.06855038913488387,0.0017015066882595418,0.001968427695869468
1761341833722506200,4.92650634765625,-0.06764905638098716,0.012627809975389391,-0.010591322011989542
1761341833732573200,4.9365732421875,-0.056876317954063414,0.0061353974824771285,-0.005381167881959118
1761341833742639400,4.946639404296875,-0.06555237636268138,0.008846044680662453,-0.0016850350440712645
1761341833752705000,4.956705078125,-0.06720248165726661,0.004059340127091854,-0.002784196491586044
1761341833762770200,4.966770263671875,-0.07169219429194927,0.00988815587842837,0.0013278054045047611
1761341833772836000,4.976836181640625,-0.06495791760087014,0.01043039126265794,0.004939009038452059
1761341833782902300,4.98690234375,-0.06435702909827232,0.005390424334071576,-0.00014416684419848023
1761341833792968000,4.996968017578125,-0.07078969249427318,0.000965100438799709,-0.007962462212587706
1761341833803035100,5.00703515625,-0.07108604509234429,0.010885368488542735,-0.004350600991514511
1761341833813101000,5.01710107421875,-0.05761515362262726,0.013748740296717733,-0.004138218616158701
1761341833823167000,5.0271669921875,-0.06359831968545913,0.01261666752686724,-0.002433442258578725
1761341833833233200,5.037233154296875,-0.06180325296223163,0.007459430894162506,-0.0067481042870320375
1761341833843299000,5.047299072265625,-0.06943593979775906,0.007181015811581164,-0.005007662961026654
1761341833853365200,5.057365234375,-0.07123042199909686,0.0017542597888037562,-0.0017378246772335841
1761341833863432200,5.06743212890625,-0.06658990271687507,0.004337115888856351,-0.003748794606886804
1761341833873498000,5.077498046875,-0.06808627875447273,0.0012090287298895418,-0.0020540007872041316
1761341833883564300,5.087564208984375,-0.07272504447102546,0.002896123300306499,0.0013155669774394482
1761341833893630000,5.0976298828125,-0.07018237425088882,0.0006919643195345997,0.003261577345523983
1761341833903696100,5.107696044921875,-0.06105331137776374,0.00047017479501664633,0.004822017895546741
1761341833913762000,5.117761962890625,-0.06314473069906235,0.003618775019049644,0.0019926899208687243
1761341833923828200,5.127828125,-0.06957680957317351,0.014266681489907205,-0.003181488713482395
1761341833933895200,5.137895263671875,-0.07271744568645953,0.010427413854282348,-0.01303192923029419
1761341833943961000,5.147961181640625,-0.05745090297162533,0.002775930986739695,0.0005484550624620169
1761341833954027300,5.15802734375,-0.06403261944949626,0.005817234911397099,-0.0026003963233204555
1761341833964093200,5.16809326171875,-0.061337389016151427,0.0036683132492005823,0.001346254376647994
1761341833974159400,5.178159423828125,-0.06283434957563877,0.002922116258088499,-0.004869332202570513
1761341833984225000,5.18822509765625,-0.0691243896305561,0.0007207702889107168,0.00041790118508506564
1761341833994291000,5.198291015625,-0.06823065566122531,-0.001812693711463362,-0.01040980513235554
1761341834004358100,5.208358154296875,-0.059848611763119695,0.01034857646441087,-0.002340051186969504
1761341834014424000,5.218424072265625,-0.06897124489545822,0.006874616743531078,0.0019193598231766371
1761341834024490200,5.228490234375,-0.06687690296471119,0.002572499102819711,0.0033138646551873533
1761341834034556200,5.23855615234375,-0.05864683475792408,0.010064352695550768,-0.005118416159390472
1761341834044622000,5.2486220703125,-0.06807049666345119,0.003621149639226496,-0.002343124493467621
1761341834054688300,5.258688232421875,-0.05909282495975494,0.006451368096470832,0.0011416032165987417
1761341834064755200,5.268755126953125,-0.05819616838097572,0.004094575837254524,-0.00651771133095026
1761341834074821000,5.278821044921875,-0.06792085905969142,0.0028179252312518655,0.004085552280582487
1761341834084887000,5.288886962890625,-0.06372866806685924,0.011254804589133709,0.0003044400064041838
1761341834094953000,5.298952880859375,-0.0676209993302822,0.007874130908586085,-0.0070529370190808545
1761341834105019100,5.30901904296875,-0.07241466334760188,0.005671816825028509,-0.0046156908016419034
1761341834115085000,5.3190849609375,-0.07136953820884227,-0.0009634016720578074,0.003449423501244746
1761341834125151200,5.329151123046875,-0.05969780511558056,0.0022647117952816188,0.002823656285717152
1761341834135218200,5.33921826171875,-0.06777472858726978,0.002284749936312437,-0.01017559908425901
1761341834145284000,5.3492841796875,-0.07121463990807533,0.006263937499281018,-0.005963689610804431
1761341834155350300,5.359350341796875,-0.059093994003534316,0.0034096075140871104,0.0012049599095480515
1761341834165416200,5.369416259765625,-0.06537818883955478,-0.0006749035868793726,-0.00630696835683193
1761341834175482000,5.379482177734375,-0.07136427751183509,0.0014833886918611823,-0.004101937159802765
1761341834185548000,5.389548095703125,-0.06822130331099033,0.0037310032218694686,-0.007340238661016337
1761341834195615000,5.399614990234375,-0.07061959662437439,0.003861333336960524,-0.0017680645518703385
1761341834205681200,5.40968115234375,-0.05969488250613212,0.0034790194884873923,-0.0007107283855089917
1761341834215747000,5.4197470703125,-0.06807400379478931,0.0006296214067377149,-0.004842905419948511
1761341834225813200,5.429813232421875,-0.05595277336835861,0.0045003618928603824,-0.003427704859781079
1761341834235879200,5.439879150390625,-0.06493161411583423,-0.0011166742713190614,-0.0001068031090311706
1761341834245945000,5.449945068359375,-0.06074234573245048,0.005091441387496888,-0.005387775719258934
1761341834256011300,5.46001123046875,-0.06807575736045837,0.0030482268557883796,-0.006399085353384726
1761341834266078200,5.470078125,-0.07376198630332946,0.003661828709486872,-0.0004914961442584172
1761341834276144000,5.48014404296875,-0.064484454870224,0.0017380758389830588,-0.002248386281565763
1761341834286210000,5.4902099609375,-0.06972177100181579,0.011313238511793314,-0.0018039898151997475
1761341834296276000,5.50027587890625,-0.07002455334067344,0.0012719378982670605,-0.0009225673381704837
1761341834306342100,5.510342041015625,-0.05595569597780704,0.003708042471390217,-0.008946477414411493
1761341834316408000,5.520407958984375,-0.05999532675743103,0.004789371434692293,-0.0036615364485420286
1761341834326474200,5.53047412109375,-0.06537994240522384,0.0024555399259552357,-0.007393224657000973
1761341834336541200,5.540541259765625,-0.06402794327437877,0.003148655022960156,0.000054903958435170346
1761341834346607000,5.550607177734375,-0.05863923597335815,0.00263898846777156,-0.005750092525896616
1761341834356673300,5.56067333984375,-0.059534723508358,0.004346943163126706,-0.008676136040431447
1761341834366739000,5.570739013671875,-0.0703098000228405,0.005919051318056881,0.004696738414908759
1761341834376805000,5.58080517578125,-0.06836275760829448,-0.0008471000823192298,0.00394897965437267
1761341834386871000,5.59087109375,-0.0643225423067808,-0.0014309095859527587,-0.00541853618370369
1761341834396938000,5.60093798828125,-0.06851122616827487,0.005724058468919247,-0.005943560138228349
1761341834407004200,5.611004150390625,-0.06536942101120949,-0.00011215513758361339,-0.003911720950482413
1761341834417070000,5.621070068359375,-0.056541386911273,0.006186616213060915,-0.006696520230267197
1761341834427136300,5.63113623046875,-0.06791442931890487,0.008588873315509409,-0.006285414112149737
1761341834437202200,5.6412021484375,-0.06761398506760596,0.002677292917855084,-0.011114546735072508
1761341834447268400,5.651268310546875,-0.05923486377894878,0.005415102117601781,0.00477822441959288
1761341834457334000,5.661333984375,-0.0662707537651062,0.00107082583559677,-0.007573458328424021
1761341834467401000,5.67140087890625,-0.07315349901616573,0.0015169073689728974,-0.0023678890419658273
1761341834477467100,5.681467041015625,-0.06596855594813823,0.010572375282924621,-0.004566814725194126
1761341834487533000,5.691532958984375,-0.05489712683558464,0.009563234772998839,-0.004484027245990001
1761341834497599200,5.70159912109375,-0.06357610785365105,0.005852379290014505,-0.0036960278066108
1761341834507665200,5.7116650390625,-0.059982467275857924,-0.0020110475614666936,-0.0012047589801484717
1761341834517731000,5.72173095703125,-0.06492109272181987,0.00009783435128629207,-0.007652204386750236
1761341834527797200,5.73179736328125,-0.06941022083461285,0.0019114779108203946,-0.00024405158867593852
1761341834537864200,5.7418642578125,-0.05759001918137073,-0.0003042984425090253,0.004303898605844006
1761341834547930400,5.751930419921875,-0.0617787030428648,0.0062114949259907005,-0.008648170321271754
1761341834557996000,5.76199609375,-0.0671639032125473,0.005373783726524561,-0.003166437274822965
1761341834568062000,5.77206201171875,-0.07464519887864589,0.007888524760119616,0.002979107142332941
1761341834578128100,5.782128173828125,-0.06372340736985206,0.003800707457214594,-0.00626708843759261
1761341834588194000,5.792194091796875,-0.06536883648931979,0.0016745638824068008,-0.007036136581329629
1761341834598261000,5.802260986328125,-0.06507189936935902,-0.0013868695148266852,-0.011972917130077258
1761341834608327200,5.8123271484375,-0.06552081218063831,0.00506121064601466,0.0009560038168914616
1761341834618393000,5.82239306640625,-0.07045885310471058,0.0002801503819413483,0.003812644490180537
1761341834628459300,5.832459228515625,-0.0716512777596712,0.003388144600950181,-0.009504079331131652
1761341834638525200,5.842525146484375,-0.06536883648931979,0.005565872232522815,-0.010886925691389477
1761341834648591000,5.852591064453125,-0.058787120011448854,0.005794328959845006,-0.007034771174727938
1761341834658657000,5.862656982421875,-0.06507306841313838,0.001804181611444801,-0.0019472935762954876
1761341834668724000,5.872723876953125,-0.06686813513636589,0.00026993951518088576,-0.0046863174855941905
1761341834678790100,5.8827900390625,-0.06866320185959339,0.005209204281959682,-0.0017813395919743925
1761341834688856000,5.89285595703125,-0.06447334895431996,0.007895191962923855,0.0012966796138789503
1761341834698922200,5.902922119140625,-0.07120704112350941,0.006399674441851675,-0.00551671302828472
1761341834708988200,5.91298828125,-0.07929039433598518,0.010120704258978366,-0.0014668576821684836
1761341834719054300,5.923054443359375,-0.07300970663130282,0.0023444259679876265,-0.00499834257683251
1761341834729120000,5.9331201171875,-0.06897299846112728,0.00565042697712779,-0.0014954033566405996
1761341834739187200,5.943187255859375,-0.07032032141685485,0.012854878463223576,-0.00579945265953429
1761341834749253000,5.953253173828125,-0.07062076566815376,0.011219514080043881,-0.00805941978103947
1761341834759319800,5.96331982421875,-0.0673293229073286,0.0065880731534212825,-0.002870632666023448
1761341834769385700,5.9733857421875,-0.057308279630541796,0.005408197452779859,-0.009290966303413733
1761341834779451600,5.98345166015625,-0.06239478911459446,0.0008754311276599764,-0.002733361353492364
1761341834789517600,5.993517578125,-0.054909401795268056,0.00015856982888653873,-0.0023085509370081125
1761341834799584500,6.00358447265625,-0.06283961027264595,0.0038620639893226323,-0.01000223354503978
1761341834809650700,6.013650634765625,-0.06284253288209438,0.01206721695056185,-0.0033935011960798873
1761341834819716600,6.023716552734375,-0.06344166781902313,0.009809665548428893,0.002359422607719898
1761341834829782800,6.03378271484375,-0.06957739409506321,0.004455207576882094,-0.009787800776492803
1761341834839848700,6.0438486328125,-0.06239362007081508,0.0009991305725648998,-0.0029391587244346736
1761341834849915000,6.053914794921875,-0.06284779357910156,0.0025718963146209714,0.000871923996321857
1761341834859980800,6.063980712890625,-0.06374561920166015,0.006452153547760099,0.0008381267579970881
1761341834870047700,6.0740478515625,-0.06643675798177719,0.006804200122132897,-0.0005037482710555195
1761341834880113700,6.08411376953125,-0.0677823273718357,0.0005050086463801563,-0.005342507238849066
1761341834890179600,6.0941796875,-0.06807751092612743,0.008277085686288774,0.0010280004740227014
1761341834900245800,6.104245849609375,-0.06852876182496548,0.0046121699705719945,-0.0046176863959059115
1761341834910311700,6.114311767578125,-0.06703355483114719,-0.0011722403834573923,-0.0022064011702081186
1761341834920377900,6.1243779296875,-0.06104629711508751,0.0030966691073961556,-0.006877986877551302
1761341834930443800,6.13444384765625,-0.06867781490683555,0.0005562821758911013,-0.00641660274376627
1761341834940510700,6.1445107421875,-0.06687982557415961,0.0028328305394388735,-0.0049279305220115924
1761341834950577000,6.154576904296875,-0.0564063623547554,0.002292695780750364,-0.00795136999641545
1761341834960642800,6.164642822265625,-0.056711482781171794,0.0009122194740921258,-0.005783670568512752
1761341834970708700,6.174708740234375,-0.05835457381308078,0.009483191806729883,0.004766406117635779
1761341834980774700,6.184774658203125,-0.06239595815837383,0.0108793954054825,-0.004491059774975292
1761341834990840600,6.194840576171875,-0.06120002637207508,0.0019839403588324785,-0.006362945460923947
1761341835000906800,6.20490673828125,-0.06374795728921889,0.009317753845639527,-0.00023662176746875045
1761341835010973700,6.2149736328125,-0.0655389323592186,-0.003740958360303193,-0.002464412785577588
1761341835021039600,6.22503955078125,-0.06508943502604961,-0.0009176993668079376,-0.008741109301731921
1761341835031105800,6.235105712890625,-0.06359188994467257,0.00565751430504024,-0.010719852895638905
1761341835041171700,6.245171630859375,-0.06748422120809555,0.008728921107016504,-0.006969272757042199
1761341835051238000,6.25523779296875,-0.0673334145605564,0.0019382380535826085,0.001678733167448081
1761341835061303600,6.265303466796875,-0.06464169125854968,0.00544047402087599,0.001557887833332643
1761341835071370500,6.27537060546875,-0.06479132886230946,0.007515709392353892,-0.006753739443374798
1761341835081436700,6.285436767578125,-0.0673339990824461,0.004582962142396718,-0.006467981304554268
1761341835091502600,6.295502685546875,-0.06508592789471149,0.005481080025900155,0.0035381064316956324
1761341835101568800,6.30556884765625,-0.07107026300132274,0.004106686400156468,0.0018524777325801551
1761341835111634700,6.315634765625,-0.07196341244876385,0.000982234236691147,-0.0010557698303600772
1761341835121700900,6.325700927734375,-0.06762392193973064,0.004459280963800848,-0.0018617981167742981
1761341835131766800,6.335766845703125,-0.06582943973839282,0.008833221731707454,-0.013453803337598219
1761341835141833700,6.345833740234375,-0.06388415088951588,0.005533212071936577,-0.004440663028298877
1761341835151900000,6.35589990234375,-0.06522796671390534,0.0012674443862400948,-0.001502399353007786
1761341835161965600,6.365965576171875,-0.05131108504235744,0.007831278147548436,-0.010573585425899363
1761341835172031700,6.37603173828125,-0.06298281813561916,0.010217095571849494,-0.004635391015955247
1761341835182097700,6.38609765625,-0.06268237388432026,0.009398436132725327,0.0021818284179549664
1761341835192163600,6.39616357421875,-0.06417991896569729,0.0021350575336255132,0.0015318081105826422
1761341835202229800,6.406229736328125,-0.06926467488408088,0.006629428077116608,0.0011293236903380602
1761341835212296700,6.416296630859375,-0.07135726324915885,0.005006411718856543,0.001335979577805847
1761341835222363000,6.42636279296875,-0.061029345980286594,0.0026538572433404623,-0.002374907871219329
1761341835232428800,6.4364287109375,-0.06073007077276706,0.003695073391962796,-0.0034036937965312973
1761341835242494700,6.44649462890625,-0.06432078874111175,0.0020558365512639283,-0.004673494536639191
1761341835252560600,6.456560546875,-0.07060790618658065,0.0008027860165573656,-0.0005239142762497067
1761341835262626600,6.46662646484375,-0.06866378638148307,0.00006130173318088054,0.003250010205316357
1761341835272693800,6.47669384765625,-0.060139703664183614,0.004914349521230906,-0.003378431491111405
1761341835282759700,6.486759765625,-0.06568097117841243,0.005826605527941137,-0.007654437443031929
1761341835292825600,6.49682568359375,-0.05939852990806102,0.00874590877443552,-0.005377368489676155
1761341835302891800,6.506891845703125,-0.05999766484498977,0.007283325408585369,-0.0017020227114902808
1761341835312957700,6.516957763671875,-0.06463467699587344,-0.008045596751663834,-0.005734785358910448
1761341835323024000,6.52702392578125,-0.0694207422286272,0.0005422901831567287,0.0008772988577606156
1761341835333089800,6.53708984375,-0.06717734721601008,0.0020741941918618976,-0.0055073789443587885
1761341835343156700,6.54715673828125,-0.07166822889447212,0.003921886151470244,-0.00853740798975341
1761341835353222700,6.55722265625,-0.0638870734989643,0.00274707021843642,-0.006811812606430612
1761341835363288600,6.56728857421875,-0.06553484070599079,0.0016046221850439905,-0.0034817594348452983
1761341835373354800,6.577354736328125,-0.06104746615886688,0.0019859131202101706,-0.00444309701398015
1761341835383420700,6.587420654296875,-0.0671808543473482,0.006688355190120637,-0.0037249662067275493
1761341835393486800,6.59748681640625,-0.06104454354941845,0.010140541470609605,-0.007007193614635616
1761341835403552800,6.607552734375,-0.06658171941041946,0.0064209546918980774,0.00020222630752250552
1761341835413619700,6.61761962890625,-0.06478197651207447,0.0025099004616960883,-0.0016303000489948317
1761341835423686000,6.627685791015625,-0.05565408268272876,0.008825805610232055,0.00003964702379889786
1761341835433751800,6.637751708984375,-0.06298515622317791,0.005817435840796679,-0.00031437687852885573
1761341835443817700,6.647817626953125,-0.06627426089644432,-0.000980188410077244,-0.0049142490565311165
1761341835453883600,6.657883544921875,-0.0631295331299305,0.002802234471775591,-0.012383822318795137
1761341835463949600,6.667949462890625,-0.06731880151331425,0.005277611609362066,-0.00205083614916075
1761341835474016800,6.678016845703125,-0.07345628135502338,0.009170344731584191,-0.00371572345434688
1761341835484082700,6.688082763671875,-0.06777005241215228,0.010223287850618362,0.0052771138524403795
1761341835494148600,6.698148681640625,-0.06806874309778213,0.00921833032546565,-0.004837247430719435
1761341835504214800,6.70821484375,-0.06492810698449611,0.0012111110891215502,-0.00799404009436257
1761341835514280700,6.71828076171875,-0.07061316688358783,0.0073149443895556025,-0.0034860794169362633
1761341835524347000,6.728346923828125,-0.06701952630579472,-0.002068148043565452,0.00028551154364831746
1761341835534412500,6.73841259765625,-0.07016425407230853,0.0032346893385984,-0.00043783886141609396
1761341835544479500,6.7484794921875,-0.06761866124272346,0.012311236573196946,0.0010893067737808451
1761341835554545700,6.758545654296875,-0.06582534808516502,0.005675780614092946,-0.0055881753958761686
1761341835564611600,6.768611572265625,-0.06357844594120979,0.0028866248195990917,-0.003372526906710118
1761341835574677800,6.778677734375,-0.0629810645699501,0.004465144449006766,-0.003948249002010561
1761341835584743700,6.78874365234375,-0.06567571048140526,0.016085987605247647,-0.001878073398140259
1761341835594809900,6.798809814453125,-0.05699497589766979,0.0049534942215308546,0.005552633725036867
1761341835604875800,6.808875732421875,-0.06552081218063831,0.001398103294894099,-0.00047440344556234774
1761341835614942700,6.818942626953125,-0.06686696609258651,0.005998071371018886,-0.005443090669647791
1761341835625009000,6.8290087890625,-0.05534136347174644,0.005117635274678468,-0.010663209071266465
1761341835635074600,6.839074462890625,-0.06491758559048176,0.003773490656726062,-0.003863895186805166
1761341835645140700,6.849140625,-0.05893032787442207,0.005190481315180659,-0.004122368026478216
1761341835655206700,6.85920654296875,-0.06985504199266433,0.005124941798299551,0.0002974440100369975
1761341835665272800,6.86927294921875,-0.06641629971563816,0.0059910571083426475,-0.004065463907201774
1761341835675339800,6.87933984375,-0.06552081218063831,0.0030963768464513123,-0.00945649102947209
1761341835685405700,6.88940576171875,-0.06417816540002823,-0.00003702580844983458,-0.005392908552102745
1761341835695471900,6.899471923828125,-0.0592424625635147,0.005297540152538568,0.000435199379757978
1761341835705537800,6.909537841796875,-0.07629764226078986,0.0008229337554425001,0.006700456619868055
1761341835715603700,6.919603759765625,-0.07794599398970603,0.0024101664142683146,-0.0011057099193101747
1761341835725669600,6.929669677734375,-0.06043138008713722,0.00632045345949009,-0.00189637623981107
1761341835735735600,6.939735595703125,-0.06716565677821636,0.0006654964377172291,0.0019724508504383267
1761341835745802800,6.949802734375,-0.06851356425583362,0.0056542081031017,-0.004139218696579337
1761341835755868700,6.95986865234375,-0.062227615854144096,0.004685783196054399,-0.0030298874814994633
1761341835765934600,6.9699345703125,-0.06148118140101432,0.0060984812718816095,-0.010237120013148523
1761341835776000800,6.980000732421875,-0.07375029586553573,0.004396097800787538,-0.00786135819198098
1761341835786066700,6.990066650390625,-0.06955927391648292,0.010029336181096731,-0.007759783813916146
1761341835796132900,7.0001328125,-0.0703092155009508,0.00707594800191,-0.013820111332763917
1761341835806198500,7.010198486328125,-0.06926467488408088,0.0009180281603708863,-0.00854154987533111
1761341835816265700,7.020265625,-0.06686871965825557,0.00730999421980232,-0.0005573187889298424
1761341835826331600,7.03033154296875,-0.061626142829656595,0.006144695033784955,-0.006202302405959926
1761341835836397600,7.0403974609375,-0.06252163036465644,0.0017069135157391428,-0.011051299639977514
1761341835846463700,7.050463623046875,-0.05818681603074073,0.007667940811999141,0.0008302402790635823
1761341835856529700,7.06052978515625,-0.06297580387294292,0.006065711513441056,-0.0019850089379120617
1761341835866595800,7.070595947265625,-0.0677653762370348,0.003143558722734451,0.007081551192211918
1761341835876661800,7.080661865234375,-0.06312836408615112,0.0041190892240032554,-0.00513486040411517
1761341835886728700,7.090728759765625,-0.06776771432459354,0.010440090672764926,-0.010355334998760372
1761341835896795000,7.100794921875,-0.07135843229293823,0.002439958764333278,-0.0029898522986331953
1761341835906860800,7.11086083984375,-0.06626490854620933,0.0011669066212140022,-0.00037486576095689087
1761341835916926700,7.1209267578125,-0.05743570540249347,-0.0007685366870835423,0.001352601919043809
1761341835926992600,7.13099267578125,-0.06042845747768879,-0.0028568690021522343,-0.0018697439612122251
1761341835937058600,7.14105859375,-0.06746142485439777,0.005548409641068428,0.0019435763824032619
1761341835947124700,7.151124755859375,-0.06326923386156559,0.0018660496002063155,-0.0040531935140956194
1761341835957191700,7.161191650390625,-0.070901920697093,0.0016508176806382833,-0.01167435430861078
1761341835967257900,7.1712578125,-0.07045066979825496,0.011434892130084336,-0.01072933311003726
1761341835977323800,7.18132373046875,-0.0683534052580595,0.0065778622866608195,0.001065341376303695
1761341835987389700,7.1913896484375,-0.0683493136048317,0.0037356611306779085,-0.0020452512251678853
1761341835997455600,7.20145556640625,-0.06730068133473396,-0.002022811064496636,-0.00745628908900544
1761341836007521500,7.211521484375,-0.07059446218311786,0.009297076383791864,0.0005376551072346046
1761341836017588700,7.221588623046875,-0.06955284417569636,-0.00005425093788653612,-0.004449576987116597
1761341836027654700,7.231654541015625,-0.05623685100674629,0.0022716164601035414,0.0037502102458383886
1761341836037720600,7.241720458984375,-0.058330023893713945,0.008644585558120161,0.0006378458123886958
1761341836047786800,7.251786865234375,-0.06879939545989036,0.004244396104104817,-0.007538501179474405
1761341836057852700,7.261852783203125,-0.06670505352914333,0.010238795947004109,-0.0050201845158822835
1761341836067918800,7.2719189453125,-0.06625847880542278,0.002477386431582272,0.0050986109138000755
1761341836077984800,7.28198486328125,-0.06835457430183887,0.00638296076906845,-0.0005192335345549509
1761341836088051700,7.2920517578125,-0.0613210224032402,0.005754234411474317,-0.000303124832152389
1761341836098118000,7.302117919921875,-0.06655658496916293,0.0036884061891585586,0.00838345040390268
1761341836108183600,7.31218359375,-0.0601227525293827,0.008329747455287724,0.005624584716395474
1761341836118249700,7.322249755859375,-0.06177110425829887,0.00038647856693714854,-0.003995503943529911
1761341836128315600,7.332315673828125,-0.06985445747077465,0.010529485989268868,-0.0010275894820690155
1761341836138381800,7.3423818359375,-0.06566635813117026,-0.002568699710536748,-0.007146912612579762
1761341836148447700,7.35244775390625,-0.06551438243985176,0.004504088219907135,-0.008985813910956495
1761341836158514700,7.3625146484375,-0.06671089874804019,0.010612652494385838,0.002373834725562483
1761341836168580900,7.372580810546875,-0.0604319646090269,0.007590856987796724,-0.003530256485380232
1761341836178646800,7.382646728515625,-0.07150222467780112,0.004031812799349427,-0.004512993045570329
1761341836188712700,7.392712646484375,-0.06566986526250838,0.0019218166417442261,-0.001144822653569281
1761341836198778600,7.402778564453125,-0.06761749219894408,0.004578103304188699,-0.007088656786433421
1761341836208844500,7.412844482421875,-0.07450140649378299,0.00573792259749025,-0.0021938887485070152
1761341836218910700,7.42291064453125,-0.0647761312931776,-0.0012705131261609493,0.00003238616595044732
1761341836228977700,7.432977783203125,-0.0685194094747305,0.003607431641127914,-0.0028473842211766166
1761341836239043800,7.4430439453125,-0.06896598419845104,0.0015563808628357946,-0.002066047418024391
1761341836249109800,7.45310986328125,-0.07001578551232815,0.003456716325134039,-0.002403681874554604
1761341836259175700,7.46317578125,-0.06537877336144447,0.004818232202995568,-0.001549686260567978
1761341836269241900,7.473241943359375,-0.06702654056847095,0.0042885457730852065,-0.007128874632390215
1761341836279307500,7.4833076171875,-0.06358546020388603,0.004631587057095021,-0.0030145209490088742
1761341836289374700,7.493374755859375,-0.062384852242469785,0.006822758692130446,-0.0004567947236355394
1761341836299440600,7.503440673828125,-0.0626852964937687,0.005357197917904705,-0.007443872565426863
1761341836309506600,7.513506591796875,-0.06866846255660057,0.0037816556968726218,-0.009055641443887725
1761341836319572700,7.52357275390625,-0.06148293496668338,0.011892992894817144,-0.0010664647543104364
1761341836329638700,7.533638671875,-0.0583364536345005,0.0036658107648603615,-0.0030812021102057767
1761341836339704800,7.543704833984375,-0.06731412533819675,0.010254030048754066,-0.008664354271092451
1761341836349770800,7.553770751953125,-0.05578910723924636,0.003394428211264312,0.0018488062044605613
1761341836359837700,7.563837646484375,-0.060581017690896986,0.0054794908570125695,-0.007641093904268928
1761341836369903900,7.57390380859375,-0.06356850906908512,0.006783540926594287,0.004850070379674434
1761341836379969500,7.583969482421875,-0.06581424216926098,0.007586728801950812,-0.0086929456113372
1761341836390035700,7.59403564453125,-0.06446516564786434,0.0021185813228599727,-0.001164440669491887
1761341836400101600,7.6041015625,-0.07254384268522263,0.011200206591375172,0.0011363699190551414
1761341836410167800,7.614167724609375,-0.07343640761077404,0.011239935813564807,0.0022561905621085315
1761341836420233700,7.624233642578125,-0.06490881776213646,0.0030957192593254147,-0.0010463855140842497
1761341836430300700,7.63430078125,-0.07074293074309826,0.002095529240835458,0.004292313199327327
1761341836440366800,7.644366943359375,-0.07313596335947513,0.006215550046600401,-0.007816048612375743
1761341836450432800,7.654432861328125,-0.06699789899587631,0.0031110081600025296,-0.004291217220784164
1761341836460498700,7.664498779296875,-0.07193944705128669,0.0007088789217174052,0.00004203077713027596
1761341836470564600,7.674564697265625,-0.06834989812672138,0.0009441307160072028,-0.0004233354120282456
1761341836480630500,7.684630615234375,-0.059819385668635365,0.007911978700943291,-0.003900363872828893
1761341836490696700,7.69469677734375,-0.06131576170623302,-0.000049446898605674504,-0.005339561796514317
1761341836500763600,7.704763671875,-0.07553191858530044,-0.0033405060669407247,-0.0007921869907295331
1761341836510829600,7.71482958984375,-0.0644581513851881,0.003379906495567411,-0.002853626732295379
1761341836520895700,7.724895751953125,-0.05577624775767326,0.008530804719030857,-0.00199107335251756
1761341836530961700,7.734961669921875,-0.0687935502409935,0.011025288415886462,0.0007295381172560155
1761341836541027800,7.74502783203125,-0.05666939720511436,0.005008749806415289,0.0024353373881429432
1761341836551093800,7.75509375,-0.06460486637949943,0.0033302769338712096,-0.008177579967724159
1761341836561159700,7.76515966796875,-0.06729600515961646,0.007733845655061304,-0.005058091673743911
1761341836571226600,7.7752265625,-0.06355564958751202,0.00520122190490365,-0.0057823782271472736
1761341836581292500,7.78529248046875,-0.07477905439138412,0.0022302250037901103,-0.0004487666808068752
1761341836591358700,7.795358642578125,-0.05801964277029037,0.003859031782019883,-0.0006486914333887398
1761341836601424600,7.805424560546875,-0.05143441916108131,-0.002282594511844218,0.0026796995040727777
1761341836611490800,7.81549072265625,-0.06430500665009022,0.005284424942638725,0.004190775353880599
1761341836621556700,7.825556640625,-0.06894026523530483,0.008438267597369849,-0.002824505669088103
1761341836631623700,7.835623779296875,-0.06669862378835678,0.0031628296787850558,-0.007933962203888222
1761341836641689900,7.84568994140625,-0.05532382781505584,0.004428557031974196,0.0022957873535575345
1761341836651755800,7.855755859375,-0.059359951463341706,0.009517642065603285,-0.006792043893458321
1761341836661821700,7.86582177734375,-0.06220365045666694,0.002348627219069749,-0.006023146446770988
1761341836671887600,7.8758876953125,-0.06444762999117375,0.004279284754395485,0.0002559292561374605
1761341836681953800,7.885953857421875,-0.06504442684054375,0.007046941103134304,-0.006035129145509563
1761341836692019700,7.896019775390625,-0.06205050572156906,-0.0009218458189629017,-0.004365351036074571
1761341836702086700,7.906086669921875,-0.06923486426770686,-0.0010143646743148566,-0.006162605149811134
1761341836712152800,7.91615283203125,-0.05531447546482086,0.0037579642940312624,-0.005245887597114779
1761341836722218800,7.92621875,-0.07072539508640766,-0.0003422740990296006,-0.003361685852287337
1761341836732284700,7.93628466796875,-0.07117080076634884,0.003284538096003234,0.0007468089124653488
1761341836742350800,7.946350830078125,-0.06758066731989383,0.006714914403483271,0.002951305819954723
1761341836752416500,7.95641650390625,-0.0708715255588293,0.005323916702810675,-0.002577325974986888
1761341836762483200,7.966483154296875,-0.07027297514379025,-0.0027165472160093486,-0.004341280607320368
1761341836772550100,7.976550048828125,-0.0705710813075304,0.000827409001160413,-0.005531988229230046
1761341836782616000,7.986615966796875,-0.07744856586158275,0.00018145751412957905,-0.008597609177813865
1761341836792682200,7.99668212890625,-0.06877016936540603,0.0018019165891222655,-0.010113466234016232
1761341836802747100,8.0067470703125,-0.05829319901466369,0.0036692265646532177,-0.006602535503613762
1761341836812814000,8.01681396484375,-0.06891454627215862,0.0059659409333951766,-0.00817805489175953
1761341836822880000,8.0268798828125,-0.06681728173196315,0.002703742533363402,-0.011349419503449462
1761341836832946200,8.0369462890625,-0.06472118623554707,0.004919920745491981,-0.006600982867344282
1761341836843012000,8.04701220703125,-0.06247253052592277,0.0001191511339507997,0.0020862773553002624
1761341836853078000,8.057078125,-0.06486848575174808,-0.0005681370104663073,-0.0008369896802585572
1761341836863144200,8.067144287109375,-0.059034957292675966,0.000592431201506406,-0.0016948120859917252
1761341836873211100,8.077211181640624,-0.0651724371343851,0.0012773995246738194,-0.0024248844927875325
1761341836883277000,8.087277099609375,-0.06621990036070347,0.009837649533897638,-0.0041551560512278225
1761341836893343000,8.097343017578124,-0.06682020434141159,0.014389960809703915,-0.0010469335033558309
1761341836903409000,8.107408935546875,-0.06547521947324275,0.006656626611296087,-0.004985670324927196
1761341836913475000,8.11747509765625,-0.052903322669863695,0.004942242175154388,-0.0034029448778601363
1761341836923541000,8.127541015625,-0.06756956140398979,-0.0016976159644313156,0.00008386975801549852
1761341836933607200,8.137607177734376,-0.06667933456599712,-0.0027107019971124827,-0.006521323493565432
1761341836943674000,8.147674072265625,-0.05934592293798923,-0.0009253894829191267,-0.0036723592366557567
1761341836953740000,8.157739990234376,-0.06563128681778907,-0.0001473543151281774,0.0023293653961736706
1761341836963806200,8.16780615234375,-0.06607435441017151,0.003995590708497912,-0.0014718672174261881
1761341836973872000,8.1778720703125,-0.06233399883806705,0.007439374486822635,-0.0025428802826907484
1761341836983938000,8.18793798828125,-0.059791328617930406,0.0037853272249922156,-0.007351203013025224
1761341836994004000,8.19800390625,-0.06862053176164627,0.004889671737700701,-0.0010006284099072218
1761341837004070100,8.208070068359374,-0.06083996088802814,0.0045600196582265195,-0.006518469382775947
1761341837014137000,8.21813720703125,-0.06697451812028885,0.0015552118190564213,-0.004245921340910718
1761341837024203000,8.228203125,-0.05335924974381923,0.0009994045672006905,-0.006478941089985892
1761341837034269200,8.238269287109375,-0.06472995406389236,0.0036227205418050286,-0.0050833128799684345
1761341837044335000,8.248335205078124,-0.0638303748756647,0.0004143164219334721,-0.0068426552692661055
1761341837054401300,8.2584013671875,-0.06741992380023003,0.0006296031404286623,-0.0041045629417290905
1761341837064467200,8.26846728515625,-0.06023498073220253,-0.0034883353061042725,-0.005068480637017637
1761341837074532900,8.278532958984375,-0.05948270106017589,0.006977273400407284,-0.00661104303705506
1761341837084600000,8.28860009765625,-0.05678863967061042,0.0002599113115109503,-0.005394164360850118
1761341837094666000,8.298666015625,-0.07130114914774895,0.0033366701420396564,0.000968050447711721
1761341837104732200,8.308732177734376,-0.07491115633845329,0.0013739735006354748,-0.014218805493880063
1761341837114798000,8.318798095703125,-0.11292962908744811,-0.0011777385424822568,-0.018883189708879217
1761341837124864000,8.328864013671875,-0.032712767556309696,0.0022676344047300517,0.011843276568152941
1761341837134930200,8.33893017578125,-0.11022679986953735,0.009163531398307532,-0.013671460109692998
1761341837144996000,8.34899609375,-0.03734510353207588,-0.0016830942487344146,0.00443076268879231
1761341837155063000,8.35906298828125,-0.07100304298400878,0.004253090867213905,-0.00643892874000594
1761341837165129200,8.369129150390625,-0.06471300292909145,-0.000489811077248305,0.0008797922089463099
1761341837175195000,8.37919482421875,-0.07174947743713855,0.0010038798129186034,-0.008120461219316349
