time,seconds_elapsed,z,y,x
1761341828870617300,0.074617431640625,-0.0000657406635582447,0.001866091974079609,0.0006421450525522232
1761341828880683500,0.08468359375,-0.0011547650210559368,-0.0005448143929243088,0.0004917425103485584
1761341828890749400,0.09474951171875,-0.00019709207117557526,0.0008165938779711723,-0.0003474196419119835
1761341828900815400,0.1048154296875,0.0007262243889272213,-0.0022227661684155464,-0.0003214450553059578
1761341828910882600,0.114882568359375,-0.0004466320388019085,0.0001732800155878067,0.00022583454847335815
1761341828920948500,0.124948486328125,-0.0023511461913585663,-0.0020559970289468765,0.0009639570489525795
1761341828931014700,0.1350146484375,0.00036687590181827545,-0.0030679982155561447,0.0010377271100878716
1761341828941080600,0.14508056640625,0.0003290092572569847,0.0014064833521842957,0.0005740346387028694
1761341828951146200,0.155146240234375,-0.0007080258801579475,-0.0029741497710347176,0.0019460953772068024
1761341828961212400,0.16521240234375,-0.002682388760149479,0.0008349139243364334,-0.0017908350564539433
1761341828971279400,0.175279296875,0.00007584691047668457,0.001567816361784935,0.0026204246096313
1761341828981345500,0.185345458984375,0.0016326550394296646,0.0006131278350949287,0.0025364281609654427
1761341828991411500,0.195411376953125,-0.00005046278238296509,0.0024027731269598007,0.0001379856839776039
1761341829001477400,0.205477294921875,0.00038043735548853874,-0.0020716050639748573,0.0032257437705993652
1761341829011543600,0.21554345703125,-0.0016121394000947475,0.001523129642009735,0.002388712950050831
1761341829021609500,0.225609375,0.001043899916112423,-0.0001585502177476883,-0.0015098308213055134
1761341829031676400,0.235676513671875,-0.0015476220287382603,-0.0012597674503922462,0.0009517287835478783
1761341829041742600,0.24574267578125,-0.0007892255671322346,0.0015313858166337013,-0.0009858682751655579
1761341829051808300,0.255808349609375,-0.0014342432841658592,-0.0013853078708052635,0.0009198896586894989
1761341829061874400,0.26587451171875,-0.0004151049070060253,-0.0006466507911682129,-0.00037596607580780983
1761341829071940400,0.2759404296875,-0.0005962001159787178,0.002089480869472027,-0.0009378930553793907
1761341829082006500,0.286006591796875,0.0007485132664442062,0.0000913599506020546,0.0027139103040099144
1761341829092073500,0.296073486328125,-0.0014278218150138855,0.0006958981975913048,0.0023186970502138138
1761341829102139400,0.306139404296875,0.000810195691883564,-0.00037026870995759964,0.0017402865923941135
1761341829112205600,0.31620556640625,-0.002526478376239538,0.00019591860473155975,0.0005088415928184986
1761341829122271500,0.326271484375,0.0017656940035521984,0.0007971571758389473,-0.0019551431760191917
1761341829132337700,0.336337646484375,-0.0003746883012354374,-0.0007802331820130348,-0.00012555159628391266
1761341829142403300,0.3464033203125,0.001758770551532507,0.0010447734966874123,-0.00020376965403556824
1761341829152470300,0.35647021484375,-0.001442615408450365,-0.001007990911602974,0.0010013105347752571
1761341829162536400,0.366536376953125,-0.0005933009088039398,-0.0009202668443322182,0.0024400115944445133
1761341829172602400,0.376602294921875,-0.0010926434770226479,0.0027503687888383865,0.0005390471778810024
1761341829182668500,0.38666845703125,-0.0006850734353065491,-0.0012168362736701965,0.00236585084348917
1761341829192734500,0.396734375,0.0009519718587398529,0.0014836089685559273,0.00043425988405942917
1761341829202800600,0.406800537109375,-0.0005643055774271488,-0.0002124505117535591,0.002217840403318405
1761341829212867600,0.41686767578125,0.00033744098618626595,-0.0009325696155428886,-0.0016104537062346935
1761341829222933500,0.42693359375,-0.0005247285589575768,-0.00005798880010843277,0.0014089355245232582
1761341829232999700,0.436999755859375,0.0019064713269472122,0.0005404232069849968,-0.0015242700465023518
1761341829243065300,0.4470654296875,0.001858813688158989,0.00045903678983449936,0.0017094817012548447
1761341829253131300,0.45713134765625,-0.0017596231773495674,-0.0011862637475132942,-0.0006080009043216705
1761341829263197400,0.467197509765625,-0.0009936857968568802,-0.0011722035706043243,0.0032511181198060513
1761341829273263400,0.477263427734375,0.00007424177601933479,0.003043048083782196,0.00043269479647278786
1761341829283330600,0.48733056640625,-0.0012565571814775467,0.0003649219870567322,-0.001123454887419939
1761341829293396500,0.497396484375,-0.0001406925730407238,-0.00030140113085508347,0.0016116113401949406
1761341829303462400,0.50746240234375,-0.0005418742075562477,-0.00010837521404027939,-0.0008851783350110054
1761341829313528600,0.517528564453125,-0.001235361211001873,-0.0009584566578269005,-0.001204757485538721
1761341829323594500,0.527594482421875,0.00008023437112569809,0.0018753502517938614,0.00318041630089283
1761341829333660400,0.537660400390625,0.0010863766074180603,0.0004905061796307564,0.003246728330850601
1761341829343727400,0.547727294921875,0.000213556457310915,-0.0018048537895083427,0.0024528284557163715
1761341829353793300,0.557793212890625,0.0018990710377693176,0.0028104055672883987,-0.00029129302129149437
1761341829363859500,0.567859375,-0.0007084510289132595,0.0007409816607832909,0.0007742759771645069
1761341829373925400,0.57792529296875,-0.002172656822949648,0.0005636150017380714,-0.000822022557258606
1761341829383991600,0.587991455078125,-0.00026845792308449745,-0.0000956626608967781,-0.001289276871830225
1761341829394057500,0.598057373046875,-0.0010642106644809246,0.001462552696466446,0.002144070342183113
1761341829404124400,0.60812451171875,-0.0021160580217838287,0.001039690338075161,0.0022542187944054604
1761341829414190600,0.618190673828125,-0.0025962265208363533,-0.0002807043492794037,0.0027253320440649986
1761341829424256500,0.628256591796875,0.001930908765643835,0.0017546629533171654,0.00003039417788386345
1761341829434322400,0.638322509765625,0.0009564580395817757,-0.0012624328956007957,-0.0009722858667373657
1761341829444388400,0.648388427734375,-0.0005232770927250385,0.00003512483090162277,-0.0007956419140100479
1761341829454454500,0.65845458984375,0.0005976473912596703,-0.0011451886966824532,0.0023825746029615402
1761341829464521500,0.668521484375,-0.0009220750071108341,-0.0011394480243325233,-0.00022895447909832
1761341829474587400,0.67858740234375,-0.00006160745397210121,0.0005921395495533943,0.0019873282872140408
1761341829484653600,0.688653564453125,-0.0009161378256976604,0.00006199348717927933,0.0014640018343925476
1761341829494719500,0.698719482421875,-0.0019925874657928944,0.00023350119590759277,-0.0014228648506104946
1761341829504785700,0.70878564453125,-0.0016644648276269436,0.0015358347445726395,0.0002945088781416416
1761341829514851600,0.7188515625,0.0020586345344781876,0.0021747276186943054,-0.0007486511021852493
1761341829524918500,0.72891845703125,-0.0003895200788974762,-0.00038726627826690674,-0.0018713157624006271
1761341829534984400,0.738984375,-0.0027128616347908974,-0.0008983267471194267,0.0009034322574734688
1761341829545050400,0.74905029296875,0.00011260900646448135,0.00023972801864147186,-0.0006120456382632256
1761341829555116300,0.7591162109375,-0.001719379797577858,-0.00013231579214334488,-0.0012445463798940182
1761341829565182500,0.769182373046875,-0.00021866289898753166,-0.0010329829528927803,-0.0019358075223863125
1761341829575248400,0.779248291015625,-0.001703907735645771,-0.0012593520805239677,0.0005382685922086239
1761341829585315600,0.789315673828125,-0.001745680347084999,0.0025860536843538284,0.00011907005682587624
1761341829595381500,0.799381591796875,0.0002516903914511204,-0.0019256062805652618,-0.0009845439344644547
1761341829605447400,0.809447509765625,-0.00031021609902381897,-0.00017967447638511658,-0.00016775261610746384
1761341829615513600,0.819513671875,0.001795012503862381,0.0013670893386006355,0.0006482405588030815
1761341829625579300,0.829579345703125,0.00001530582085251808,0.0006431359797716141,0.002234090119600296
1761341829635645400,0.8396455078125,0.001864071935415268,0.00040877796709537506,0.0005890550091862679
1761341829645712400,0.84971240234375,-0.0017825951799750328,-0.0031342748552560806,0.0010771960951387882
1761341829655778300,0.8597783203125,-0.002728283405303955,0.0008740490302443504,-0.0011412175372242928
1761341829665844500,0.869844482421875,-0.002551804296672344,0.001341712661087513,0.003979817498475313
1761341829675910400,0.879910400390625,0.00014091795310378075,0.000590168870985508,0.001325444784015417
1761341829685976600,0.8899765625,-0.000028868671506643295,0.004582041874527931,0.0020716022700071335
1761341829696042500,0.90004248046875,-0.002234764862805605,-0.00016797147691249847,-0.0005231155082583427
1761341829706109400,0.910109375,0.0008821361698210239,-0.00028875377029180527,0.0007205093279480934
1761341829716175600,0.920175537109375,-0.002651878632605076,0.001751493662595749,-0.0017162831500172615
1761341829726241300,0.9302412109375,0.0011827866546809673,-0.0012304885312914848,0.0007241689600050449
1761341829736307500,0.940307373046875,-0.00011870032176375389,-0.003266475163400173,0.001519388984888792
1761341829746373400,0.950373291015625,0.00039307447150349617,0.0016080886125564575,0.0013606324791908264
1761341829756439600,0.960439453125,0.0007499381899833679,0.0003361627459526062,-0.0004481864161789417
1761341829766506500,0.970506591796875,0.00021603237837553024,0.0001554582267999649,0.0004486599937081337
1761341829776572400,0.980572509765625,0.004356182646006346,0.00021085143089294434,0.002551492303609848
1761341829786638600,0.990638671875,0.00028940383344888687,0.0004546763375401497,0.0013133818283677101
1761341829796704500,1.00070458984375,0.001287822611629963,-0.00020365696400403976,0.0025789160281419754
1761341829806770700,1.010770751953125,0.0002614986151456833,-0.00004432164132595062,-0.0011901948601007462
1761341829816836400,1.02083642578125,-0.0006857877597212791,0.0015748795121908188,0.00015257066115736961
1761341829826903600,1.030903564453125,-0.0017736302688717842,0.0009767888113856316,0.0007171612232923508
1761341829836969500,1.040969482421875,0.0005672886036336422,-0.00006983336061239243,-0.00039790477603673935
1761341829847035400,1.051035400390625,-0.0006178109906613827,0.001771293580532074,0.00039730314165353775
1761341829857101600,1.0611015625,-0.001595191191881895,-0.0009334124624729156,-0.0003465176559984684
1761341829867167500,1.07116748046875,-0.0007124212570488453,0.0006021745502948761,0.002438555471599102
1761341829877233400,1.0812333984375,0.0010932018049061298,0.000354766845703125,0.003233242779970169
1761341829887299600,1.091299560546875,-0.0011059492826461792,0.0009400667622685432,-0.0016078869812190533
1761341829897366500,1.101366455078125,-0.0030604428611695766,0.0011387383565306664,0.0021319896914064884
1761341829907432400,1.111432373046875,-0.0009904978796839714,0.0015797894448041916,-0.0032244049943983555
1761341829917498400,1.121498291015625,0.0002566603943705559,0.0008745845407247543,0.001685132272541523
1761341829927564300,1.131564208984375,0.0009098467417061329,-0.0005497848615050316,0.0015990911051630974
1761341829937630500,1.14163037109375,-0.002911257091909647,0.0016891341656446457,0.0004312945529818535
1761341829947696400,1.1516962890625,-0.0015179929323494434,-0.00012016389518976212,-0.0015557664446532726
1761341829957763300,1.161763427734375,-0.0006652488373219967,-0.001054667867720127,0.0013207136653363705
1761341829967829500,1.17182958984375,-0.0008437177166342735,0.00034350063651800156,-0.0008189957588911057
1761341829977895400,1.1818955078125,-0.0010652928613126278,-0.0009824875742197037,0.0003301585093140602
1761341829987961600,1.191961669921875,-0.0005944706499576569,0.0001933882012963295,-0.0011082729324698448
1761341829998027500,1.202027587890625,0.0014204769395291805,0.0011246958747506142,0.00035939551889896393
1761341830008093400,1.212093505859375,0.0010511279106140137,0.0027821771800518036,0.00017757946625351906
1761341830018160600,1.22216064453125,0.0013155797496438026,0.0008806800469756126,-0.00117184454575181
1761341830028226300,1.232226318359375,-0.0003005615435540676,0.0004082266241312027,-0.000946184154599905
1761341830038292500,1.24229248046875,-0.00036607543006539345,0.0018061194568872452,0.0017073899507522583
1761341830048358400,1.2523583984375,0.0005005118437111378,-0.003221857361495495,-0.0004666210152208805
1761341830058424600,1.262424560546875,0.0008576419204473495,0.0006562378257513046,-0.002221111673861742
1761341830068490500,1.272490478515625,0.0020751571282744408,0.000018872320652008057,0.0011753109283745289
1761341830078557400,1.282557373046875,-0.000630614347755909,-0.0002546338364481926,0.004074960481375456
1761341830088623600,1.29262353515625,-0.0007160264067351818,-0.0019985074177384377,0.0032030311413109303
1761341830098689500,1.302689453125,0.0007718820124864578,0.0017560170963406563,-0.00031207548454403877
1761341830108755500,1.31275537109375,0.0007737013511359692,-0.000028500333428382874,0.001460221130400896
1761341830118821400,1.3228212890625,0.0003475956618785858,0.002492981031537056,-0.004315908998250961
1761341830128887300,1.33288720703125,0.0011559585109353065,-0.0009541986510157585,0.0007396112196147442
1761341830138954500,1.34295458984375,-0.0002089114859700203,-0.0006045261397957802,0.0009569250978529453
1761341830149020400,1.3530205078125,-0.0013142284005880356,-0.00023058243095874786,0.0008330834098160267
1761341830159086600,1.363086669921875,0.0009201639331877232,-0.00045561883598566055,0.00011189933866262436
1761341830169152500,1.373152587890625,-0.00026306137442588806,0.0026496481150388718,0.00032973429188132286
1761341830179218400,1.383218505859375,-0.0007075429894030094,-0.0021770643070340157,0.0036789258010685444
1761341830189284600,1.39328466796875,0.0002460014075040817,-0.0010435385629534721,-0.00003158720210194588
1761341830199351600,1.4033515625,0.0013783774338662624,0.0012169517576694489,-0.0015069781802594662
1761341830209417500,1.41341748046875,0.0010401718318462372,-0.0033387159928679466,0.00022127944976091385
1761341830219483400,1.4234833984375,-0.0026773344725370407,0.00007013045251369476,0.0013419375754892826
1761341830229549300,1.43354931640625,-0.0004878779873251915,-0.0021626614034175873,-0.0012827622704207897
1761341830239615500,1.443615478515625,-0.0010873558931052685,-0.0008084438741207123,-0.0002489234320819378
1761341830249681400,1.453681396484375,0.0023186847101897,0.0009790724143385887,-0.0024750367738306522
1761341830259747600,1.46374755859375,-0.00069761136546731,-0.0013450682163238525,0.0023831012658774853
1761341830269814500,1.473814453125,0.0016095717437565327,0.0016360953450202942,0.00008935108780860901
1761341830279880400,1.48388037109375,-0.0026458934880793095,0.0001769494265317917,0.0016933726146817207
1761341830289946600,1.493946533203125,-0.001749308779835701,-0.0006347429007291794,0.0007653809152543545
1761341830300012300,1.50401220703125,-0.0001804404892027378,-0.000874960795044899,0.002223994117230177
1761341830310078500,1.514078369140625,-0.00014866050332784653,0.001312844455242157,-0.00086572440341115
1761341830320144400,1.524144287109375,-0.0015745172277092934,0.0007067089900374413,-0.00048063136637210846
1761341830330211300,1.53421142578125,0.00030771875753998756,-0.002258448861539364,0.0016317032277584076
1761341830340277500,1.544277587890625,0.0006225043907761574,-0.0032587330788373947,0.0012572621926665306
1761341830350343400,1.554343505859375,0.0009824051521718502,-0.001276436261832714,-0.0008863341063261032
1761341830360409600,1.56440966796875,0.0016916049644351006,0.0026200348511338234,-0.0003494410775601864
1761341830370475500,1.5744755859375,-0.00009572319686412811,-0.001996072009205818,0.002707953564822674
1761341830380541400,1.58454150390625,0.003418584121391177,0.001760050654411316,-0.0007498948834836483
1761341830390608600,1.594608642578125,0.0009076283313333988,-0.000639764592051506,0.002481874544173479
1761341830400674600,1.604674560546875,0.0003760615363717079,0.0007160510867834091,-0.0001804879866540432
1761341830410740500,1.614740478515625,-0.00030964892357587814,0.0017847707495093346,0.00024657975882291794
1761341830420806400,1.624806396484375,0.00036759255453944206,-0.00125149916857481,-0.0006069634109735489
1761341830430872300,1.634872314453125,-0.000715864822268486,-0.0003314092755317688,0.0012875981628894806
1761341830440938500,1.6449384765625,0.0023547601886093616,0.0027629174292087555,-0.0007670302875339985
1761341830451004400,1.65500439453125,-0.0012867809273302555,0.0007914267480373383,-0.000787829514592886
1761341830461071600,1.665071533203125,0.00008927425369620323,-0.0006362935528159142,0.0019083553925156593
1761341830471137500,1.675137451171875,0.00021651014685630798,0.001437673345208168,0.00010054092854261398
1761341830481203500,1.685203369140625,0.0011731176637113094,0.0002467082813382149,-0.0001231646165251732
1761341830491269400,1.695269287109375,-0.0015940549783408642,0.000691533088684082,0.0009209858253598213
1761341830501335300,1.705335205078125,0.00031143659725785255,0.0014164457097649574,0.00009380839765071869
1761341830511401500,1.7154013671875,-0.00025565410032868385,-0.0008939579129219055,-0.00017991941422224045
1761341830521468400,1.725468505859375,-0.00007056444883346558,0.0006038034334778786,0.0027061481960117817
1761341830531534300,1.735534423828125,-0.0016451799310743809,0.0017726216465234756,-0.0005181087180972099
1761341830541600500,1.7456005859375,0.00019746087491512299,-0.000051643699407577515,-0.002093368209898472
1761341830551666400,1.75566650390625,0.000397595576941967,0.0007244618609547615,-0.0010153399780392647
1761341830561732600,1.765732666015625,0.0009736372157931328,-0.0010278988629579544,-0.0016430467367172241
1761341830571798500,1.775798583984375,-0.00032201316207647324,-0.0009326823055744171,-0.0018722969107329845
1761341830581864400,1.785864501953125,0.0005256710574030876,-0.0004652971401810646,-0.00033272383734583855
1761341830591931600,1.795931640625,0.00009455299004912376,-0.002028784714639187,0.00034930137917399406
1761341830601997300,1.805997314453125,-0.0010668514296412468,0.0004887012764811516,0.0009738127700984478
1761341830612063500,1.8160634765625,0.00013102777302265167,0.003444960340857506,-0.0014052693732082844
1761341830622129400,1.82612939453125,-0.0015225289389491081,0.0005788654088973999,-0.001493419986218214
1761341830632195600,1.836195556640625,-0.0010524471290409565,-0.0010318513959646225,-0.0025246930308640003
1761341830642261500,1.846261474609375,0.0000319918617606163,0.00025392230600118637,-0.0006951014511287212
1761341830652328400,1.856328369140625,0.003469511866569519,-0.0009493222460150719,-0.00008903397247195244
1761341830662394600,1.86639453125,-0.002055748365819454,-0.001967715099453926,-0.001016346737742424
1761341830672460500,1.87646044921875,-0.000044032931327819824,0.0001310473307967186,0.002051427960395813
1761341830682526500,1.8865263671875,-0.0008467095904052258,0.0011638207361102104,-0.0008101384155452251
1761341830692592400,1.89659228515625,0.0002901204861700535,-0.0010234862565994263,-0.00142661202698946
1761341830702658300,1.906658203125,-0.0015107090584933758,-0.0016503939405083656,0.0004338719882071018
1761341830712725500,1.9167255859375,0.0011278865858912468,-0.0011509684845805168,0.0009814496152102947
1761341830722791400,1.92679150390625,0.0003318674862384796,0.000466102734208107,0.0011532236821949482
1761341830732857300,1.936857421875,0.0011889208108186722,0.0007364517077803612,-0.0014499146491289139
1761341830742923500,1.946923583984375,-0.0016004741191864014,0.00057985819876194,0.00019618496298789978
1761341830752989400,1.956989501953125,-0.0021558445878326893,0.0030088089406490326,0.00269112316891551
1761341830763055900,1.967055908203125,-0.0013502384535968304,0.00032221246510744095,0.0015563503839075565
1761341830773121800,1.977121826171875,-0.0014824969694018364,0.0007283845916390419,0.0036968346685171127
1761341830783188700,1.987188720703125,-0.0002822102978825569,0.00044582318514585495,0.0012307483702898026
1761341830793254700,1.997254638671875,0.0013237488456070423,-0.0010386733338236809,0.00007999921217560768
1761341830803320600,2.007320556640625,-0.000007032416760921478,-0.0010916702449321747,0.00001581711694598198
1761341830813386800,2.01738671875,-0.0010059336200356483,0.001499047502875328,-0.0001963842660188675
1761341830823452700,2.02745263671875,0.0008279192261397839,-0.0007968638092279434,-0.0009268894791603088
1761341830833518800,2.037518798828125,-0.00002767937257885933,-0.00016074907034635544,0.0032636369578540325
1761341830843585800,2.047585693359375,0.000046090222895145416,-0.000023595988750457764,-0.0027085011824965477
1761341830853651700,2.057651611328125,0.00020913546904921532,0.0029381243512034416,0.001049078069627285
1761341830863718000,2.0677177734375,0.0029055860359221697,0.0002587186172604561,-0.0014758650213479996
1761341830873783800,2.07778369140625,-0.003095231018960476,0.001140400767326355,0.0010697445832192898
1761341830883849700,2.087849609375,-0.0024419575929641724,0.0003145551308989525,-0.0006890068762004375
1761341830893915600,2.09791552734375,-0.0008527967147529125,-0.0031157517805695534,0.00030657416209578514
1761341830903981600,2.107981689453125,-0.0019074087031185627,-0.0007197055965662003,-0.003160861786454916
1761341830914048800,2.118048828125,0.0005607944913208485,-0.0002490207552909851,-0.0008961306884884834
1761341830924114700,2.12811474609375,-0.00015639467164874077,0.0012764371931552887,-0.0009547201916575432
1761341830934180900,2.138180908203125,-0.0003733169287443161,-0.0006722137331962585,0.00040512485429644585
1761341830944246800,2.148246826171875,0.0024741345550864935,-0.0011614365503191948,-0.0027081104926764965
1761341830954312700,2.158312744140625,0.00014529656618833542,0.0010706530883908272,-0.00003831600770354271
1761341830964379000,2.16837890625,-0.000009166542440652847,0.0005827620625495911,0.00048685958608984947
1761341830974445800,2.17844580078125,0.00083506153896451,-0.000795731320977211,-0.0016346611082553864
1761341830984511500,2.188511474609375,0.0031935570295900106,-0.0008053183555603027,-0.0010405099019408226
1761341830994577700,2.19857763671875,-0.00026939017698168755,0.0005912007763981819,-0.0009664059616625309
1761341831004643600,2.2086435546875,0.00219909381121397,0.000006103888154029846,0.003583604469895363
1761341831014709800,2.218709716796875,-0.0004403581842780113,-0.0005201874300837517,0.001923590898513794
1761341831024775700,2.228775634765625,-0.0014880457893013954,-0.0026826737448573112,0.0016817757859826088
1761341831034842600,2.238842529296875,-0.00019340496510267258,-0.00018497556447982788,0.001217514742165804
1761341831044908800,2.24890869140625,0.001558156218379736,0.00029998645186424255,-0.0003151344135403633
1761341831054974700,2.258974609375,0.0008874582126736641,0.0005258629098534584,0.0016749203205108643
1761341831065041000,2.269041015625,-0.0005146963521838188,0.0001775212585926056,0.002237645909190178
1761341831075106600,2.2791064453125,0.0012087873183190823,-0.0037493836134672165,-0.0013439515605568886
1761341831085172700,2.2891728515625,0.0015334268100559711,-0.000830293633043766,0.0012329225428402424
1761341831095239700,2.29923974609375,0.00019638705998659134,-0.0007183905690908432,-0.0001080445945262909
1761341831105305600,2.3093056640625,0.0014214413240551949,0.0017343806102871895,0.0003391001373529434
1761341831115371800,2.319371826171875,-0.0011667250655591488,-0.0005472395569086075,0.0013725645840168
1761341831125437700,2.329437744140625,-0.001116124913096428,0.0008011190220713615,-0.0016706297174096107
1761341831135504000,2.33950390625,-0.0005487687885761261,-0.0020807571709156036,0.0032844734378159046
1761341831145569800,2.34956982421875,0.0008770874701440334,0.0012665698304772377,-0.00137792294844985
1761341831155635700,2.3596357421875,0.001222043763846159,0.0007992302998900414,-0.0013657626695930958
1761341831165703000,2.369702880859375,0.0024582829792052507,-0.0029502343386411667,0.0007003173232078552
1761341831175768600,2.3797685546875,0.0011914647184312344,0.0007337890565395355,-0.002291422802954912
1761341831185834800,2.389834716796875,0.00009584007784724236,0.000844043679535389,-0.00014571426436305046
1761341831195900700,2.399900634765625,0.0019201170653104782,0.0012080399319529533,0.0021024979650974274
1761341831205966600,2.409966552734375,-0.0010695476084947586,0.00013611745089292526,0.0013570794835686684
1761341831216032800,2.42003271484375,0.0016075167804956436,0.0023639369755983353,-0.00135463522747159
1761341831226099700,2.430099609375,-0.00009504193440079689,0.0021905656903982162,-0.00161029864102602
1761341831236166000,2.440165771484375,0.0018069916404783726,-0.0012281965464353561,-0.0043814657256007195
1761341831246231800,2.450231689453125,0.0009763520210981369,-0.00037997961044311523,0.00018212711438536644
1761341831256297700,2.460297607421875,0.0034045735374093056,0.0028378497809171677,0.00033714622259140015
1761341831266363600,2.47036376953125,-0.0011845855042338371,-0.0006184009835124016,0.003458636812865734
1761341831276429600,2.4804296875,-0.0015561729669570923,-0.00021629035472869873,0.0012454143725335598
1761341831286496500,2.49049658203125,0.000034798868000507355,-0.002143353223800659,-0.0023399991914629936
1761341831296562700,2.500562744140625,-0.0015873638913035393,0.001663154922425747,-0.003501689527183771
1761341831306628600,2.510628662109375,-0.0001591108739376068,0.0024005835875868797,-0.00057567423209548
1761341831316694800,2.52069482421875,0.00029379827901721,-0.0006487369537353516,0.0012346706353127956
1761341831326760700,2.5307607421875,0.003307164879515767,0.0014889826998114586,0.0008722138591110706
1761341831336827000,2.540826904296875,0.0008983747102320194,-0.001665954478085041,0.0016472125425934792
1761341831346892800,2.550892822265625,0.0010722791776061058,0.0008025290444493294,0.0014924826100468636
1761341831356959700,2.560959716796875,0.0012542270123958588,0.0018948409706354141,-0.0010166959837079048
1761341831367025700,2.571025634765625,0.0009223967790603638,-0.00008681695908308029,0.0032078763470053673
1761341831377091600,2.581091552734375,0.0007530017755925655,0.0006729094311594963,0.0011077173985540867
1761341831387157800,2.59115771484375,0.00013994239270687103,-0.001958293840289116,0.0011324849911034107
1761341831397223700,2.6012236328125,0.00022466201335191727,0.0012805555015802383,-0.0023304750211536884
1761341831407289900,2.611289794921875,-0.0012294240295886993,-0.0018963292241096497,0.002633657306432724
1761341831417356800,2.621356689453125,-0.002455654554069042,0.0006482722237706184,-0.0012315260246396065
1761341831427422700,2.631422607421875,-0.001435397658497095,0.0016695940867066383,-0.0009018266573548317
1761341831437489000,2.641489013671875,-0.0006538578309118748,0.00004553887993097305,-0.00025660451501607895
1761341831447554800,2.651554931640625,0.000229779165238142,-0.00033422745764255524,0.0033663599751889706
1761341831457620700,2.661620849609375,0.00009196717292070389,0.0021216263994574547,-0.00036999769508838654
1761341831467686700,2.671686767578125,-0.001228427980095148,-0.0011375509202480316,0.0001210891641676426
1761341831477752600,2.681752685546875,-0.00009494926780462265,0.001147303730249405,0.0013199318200349808
1761341831487819800,2.69181982421875,-0.0004518129862844944,0.001239183358848095,0.0014142077416181564
1761341831497885700,2.7018857421875,-0.0008525513112545013,0.0006031300872564316,-0.00021258322522044182
1761341831507951600,2.71195166015625,-0.000219784677028656,0.00032376497983932495,-0.00017183693125844002
1761341831518017800,2.722017822265625,-0.00026733940467238426,-0.0002643205225467682,-0.00004854705184698105
1761341831528083700,2.732083740234375,0.00041283201426267624,0.00039374642074108124,-0.0014429781585931778
1761341831538150000,2.74214990234375,0.0014948351308703423,-0.0017822673544287682,0.0021494324319064617
1761341831548216800,2.752216796875,0.00109003484249115,-0.00233540590852499,-0.0002484782598912716
1761341831558282500,2.762282470703125,0.0005247709341347218,0.0017240112647414207,-0.001917175017297268
1761341831568348700,2.7723486328125,0.0006922842003405094,-0.001974586397409439,0.001907391007989645
1761341831578414600,2.78241455078125,-0.00037711067125201225,0.0014088200405240059,0.0006141024641692638
1761341831588480800,2.792480712890625,0.003007234539836645,-0.0019033532589673996,-0.0012221471406519413
1761341831598546700,2.802546630859375,0.0014995178207755089,0.00026170071214437485,0.000994381494820118
1761341831608612900,2.81261279296875,-0.000370553694665432,0.0006611747667193413,-0.0018701143562793732
1761341831618679800,2.8226796875,0.0002297484315931797,-0.00016100332140922546,-0.0006231837905943394
1761341831628745700,2.832745849609375,0.00037968438118696213,-0.00012185517698526382,-0.0003677862696349621
1761341831638812000,2.84281201171875,0.00020738271996378899,0.00035688746720552444,-0.0022415434941649437
1761341831648877600,2.852877685546875,-0.0008288533426821232,-0.0008897380903363228,-0.0012942571192979813
1761341831658943700,2.86294384765625,-0.00017570704221725464,-0.001397186890244484,-0.00012686708942055702
1761341831669009700,2.873009765625,-0.0007757171988487244,-0.00042566657066345215,0.00005449401214718819
1761341831679076600,2.88307666015625,0.0013958620838820934,-0.0021011848002672195,0.0009647542610764503
1761341831689142800,2.893142822265625,0.002559131011366844,0.0019191233441233635,0.00013198377564549446
1761341831699208700,2.903208740234375,-0.0007022637873888016,-0.00032097194343805313,0.0023073856718838215
1761341831709275000,2.91327490234375,-0.0015358338132500648,0.000851350836455822,-0.00038293981924653053
1761341831719340800,2.9233408203125,0.00033048633486032486,0.0004229256883263588,-0.000180879607796669
1761341831729406700,2.93340673828125,0.00013794004917144775,-0.0007834862917661667,0.0006324499845504761
1761341831739474000,2.943473876953125,0.0013559437356889248,-0.000949622131884098,0.0022996864281594753
1761341831749539600,2.95353955078125,-0.0006755157373845577,0.00008395034819841385,0.001219774130731821
1761341831759606000,2.96360595703125,0.0014441004022955894,0.0012721940875053406,-0.001011081039905548
1761341831769672200,2.973672119140625,0.0006805718876421452,0.0005504768341779709,0.004436681047081947
1761341831779738000,2.983738037109375,0.0008977302350103855,-0.0023855920881032944,-0.0013383151963353157
1761341831789804300,2.99380419921875,-0.0014296062290668488,0.0000639837235212326,0.00018874136731028557
1761341831799870000,3.003869873046875,0.0015714080072939396,-0.00016412511467933655,-0.0014768964610993862
1761341831809937200,3.013937255859375,0.0012387791648507118,-0.0012006275355815887,0.0010163546539843082
1761341831820003000,3.024003173828125,-0.0006644902750849724,-0.0002718167379498482,-0.000169471837580204
1761341831830069000,3.034069091796875,-0.0013646353036165237,0.0000014230608940124512,-0.0003340551629662514
1761341831840135200,3.04413525390625,0.00007050624117255211,0.00008942000567913055,-0.0035239295102655888
1761341831850201000,3.054201171875,-0.0005606627091765404,-0.0025596264749765396,0.0006340639665722847
1761341831860267300,3.064267333984375,-0.0005840733647346497,-0.00042476877570152283,-0.0012215999886393547
1761341831870334200,3.074334228515625,-0.0004855361767113209,0.0002362281084060669,0.0016109379939734936
1761341831880400100,3.084400146484375,0.001991409808397293,-0.0013933703303337097,0.0017354311421513557
1761341831890466300,3.09446630859375,0.0002606213092803955,0.0008663218468427658,-0.0015016412362456322
1761341831900532200,3.1045322265625,0.00020492495968937874,-0.002001366578042507,-0.000023138709366321564
1761341831910598100,3.11459814453125,0.00027443375438451767,0.0007664570584893227,-0.0007123649120330811
1761341831920664000,3.1246640625,-0.0008744364604353905,-0.0003720289096236229,0.0007443581707775593
1761341831930730000,3.13472998046875,-0.00033248355612158775,0.00020640995353460312,0.0002591302618384361
1761341831940797200,3.144797119140625,-0.00011273566633462906,0.000178653746843338,0.0010111150331795216
1761341831950863000,3.154863037109375,0.0004481258802115917,-0.0025209933519363403,0.0017077974043786526
1761341831960929300,3.16492919921875,-0.0013748141936957836,-0.00027453992515802383,0.0008925851434469223
1761341831970995200,3.1749951171875,-0.0011782729998230934,-0.0017741667106747627,0.0033434927463531494
1761341831981061000,3.18506103515625,-0.00036570150405168533,-0.0016438383609056473,0.004644473548978567
1761341831991127000,3.195126953125,-0.0019641309045255184,0.000218244269490242,-0.0003960910253226757
1761341832001194200,3.2051943359375,-0.0016643586568534374,-0.0019685151055455208,0.0002662232145667076
1761341832011260200,3.21526025390625,0.001427571289241314,0.000612887553870678,-0.0025956095196306705
1761341832021326000,3.225326171875,-0.002658406738191843,0.0005117608234286308,0.0023508290760219097
1761341832031392000,3.23539208984375,0.0017616418190300465,-0.0014022532850503922,0.0007521328516304493
1761341832041458200,3.245458251953125,-0.000005470588803291321,-0.0009248331189155579,0.0016863425262272358
1761341832051524000,3.255524169921875,-0.0009735296480357647,0.0018435223028063774,-0.0009360718540847301
1761341832061590300,3.26559033203125,0.0005801855586469173,-0.0008157612755894661,0.0004922840744256973
1761341832071657200,3.2756572265625,0.00027685146778821945,0.00017759762704372406,-0.00020786141976714134
1761341832081723100,3.28572314453125,-0.00100653525441885,0.0007204990833997726,-0.0002804282121360302
1761341832091789300,3.295789306640625,-0.00016843853518366814,-0.0010094903409481049,0.000031960196793079376
1761341832101855000,3.30585498046875,-0.0016807136125862598,0.0005456544458866119,-0.00189576530829072
1761341832111921200,3.315921142578125,-0.0020785899832844734,-0.00220432598143816,-0.0007665851153433323
1761341832121987000,3.325987060546875,0.0005637397989630699,0.00038690119981765747,0.0006661573424935341
1761341832132054000,3.336053955078125,0.001346709206700325,0.0006002197042107582,0.00030822865664958954
1761341832142120200,3.3461201171875,-0.0015192748978734016,-0.0014515798538923264,0.0008357786573469639
1761341832152186000,3.35618603515625,0.00038967886939644814,0.0010483292862772942,0.0009052869863808155
1761341832162252300,3.366252197265625,0.0009674038738012314,-0.0010378668084740639,-0.0014007179997861385
1761341832172318200,3.376318115234375,-0.0013924231752753258,-0.000780339352786541,-0.0005418485961854458
1761341832182384000,3.386384033203125,0.001490254420787096,-0.00019696354866027832,-0.0027676080353558064
1761341832192450000,3.396449951171875,0.0012697447091341019,0.0005926638841629028,0.0013885213993489742
1761341832202517000,3.40651708984375,-0.000306516420096159,0.003947502002120018,-0.000030309893190860748
1761341832212583200,3.416583251953125,-0.0006335526704788208,0.000599374994635582,-0.0006353799253702164
1761341832222649000,3.426649169921875,-0.00035874033346772194,-0.001071179285645485,0.0010808520019054413
1761341832232715000,3.436715087890625,0.00029000546783208847,0.0007594777271151543,-0.0014949575997889042
1761341832242781200,3.44678125,-0.00032709818333387375,-0.0017049312591552734,0.0013804254122078419
1761341832252847000,3.45684716796875,-0.0009705177508294582,-0.0005826745182275772,-0.0006371857598423958
1761341832262914300,3.466914306640625,-0.0021183621138334274,0.0012750262394547462,0.001302629243582487
1761341832272980200,3.476980224609375,-0.001755906268954277,-0.0015569794923067093,-0.004694809205830097
1761341832283046100,3.487046142578125,-0.00021427497267723083,-0.0021433020010590553,-0.0010763597674667835
1761341832293112000,3.497112060546875,-0.0004923092201352119,-0.000716114416718483,0.0012882612645626068
1761341832303178000,3.507177978515625,0.002073845826089382,0.0012116935104131699,-0.0016275732778012753
1761341832313244200,3.517244140625,0.001086345873773098,-0.0003395974636077881,0.0002915007062256336
1761341832323310000,3.52731005859375,-0.0014512906782329082,0.0006267931312322617,0.0012100953608751297
1761341832333377000,3.537376953125,-0.001740776002407074,0.00021400302648544312,-0.0010474659502506256
1761341832343443200,3.547443115234375,-0.002023804932832718,-0.00023004598915576935,0.0028210398741066456
1761341832353509000,3.557509033203125,-0.0003018053248524666,0.0014096619561314583,0.0008580232970416546
1761341832363575300,3.5675751953125,0.0011462057009339333,0.0018018269911408424,-0.0023241410963237286
1761341832373641000,3.577640869140625,0.0005706963129341602,0.003630620427429676,0.0017757951281964779
1761341832383707100,3.58770703125,0.00102237518876791,-0.0031257178634405136,0.0014163576997816563
1761341832393774000,3.597774169921875,0.0033867296297103167,-0.00009397510439157486,-0.0003783460706472397
1761341832403840000,3.607840087890625,0.0007878816686570644,0.001713629812002182,0.001920886803418398
1761341832413906200,3.61790625,0.0008174427784979343,0.003912069834768772,-0.006456619128584862
1761341832423972000,3.62797216796875,-0.001526848878711462,0.0017242571339011192,0.001934261992573738
1761341832434038300,3.638038330078125,-0.00022296514362096786,0.0019112108275294304,0.0004641972482204437
1761341832444104200,3.648104248046875,0.0012274072505533695,-0.0005590757355093956,0.0015953578986227512
1761341832454170000,3.658170166015625,-0.00032921042293310165,0.00047103501856327057,-0.0018931166268885136
1761341832464237300,3.6682373046875,0.00000546872615814209,-0.00018138252198696136,0.0006434540264308453
1761341832474303200,3.67830322265625,-0.0020795203745365143,-0.0010794000700116158,-0.0010628337040543556
1761341832484369200,3.688369140625,-0.0004972107708454132,0.00013009831309318542,-0.00022552721202373505
1761341832494435000,3.69843505859375,-0.0003818958066403866,0.0000012014061212539673,-0.00212063267827034
1761341832504501000,3.7085009765625,-0.0003617098554968834,0.0036029769107699394,-0.00019427016377449036
1761341832514567200,3.718567138671875,0.00011313147842884064,0.0010985396802425385,-0.0001641763374209404
1761341832524634000,3.728634033203125,0.0000024549663066864014,-0.0013423142954707146,-0.00013299193233251572
1761341832534700000,3.738699951171875,-0.0024247504770755768,-0.00018037669360637665,-0.0001654825173318386
1761341832544766200,3.74876611328125,0.001577063463628292,-0.0003415541723370552,0.0000808127224445343
1761341832554832100,3.75883203125,-0.00009806500747799873,0.002336787059903145,-0.0002552778460085392
1761341832564898000,3.76889794921875,-0.0028056721203029156,-0.0009113578125834465,-0.0007673799991607666
1761341832574964000,3.7789638671875,0.0005938527174293995,-0.0017430633306503296,0.004545892123132944
1761341832585030100,3.789030029296875,-0.00025629065930843353,0.0002447795122861862,-0.0006822925060987473
1761341832595097000,3.79909716796875,-0.003157805185765028,0.001109774224460125,0.0014863191172480583
1761341832605163000,3.8091630859375,0.0010830764658749104,-0.00046887341886758804,0.0011572572402656078
1761341832615229200,3.819229248046875,-0.0008059036917984486,0.0007093092426657677,0.0003423304297029972
1761341832625295000,3.829295166015625,-0.0016163578256964684,-0.0019402038305997849,-0.0009071249514818192
1761341832635361300,3.839361328125,0.0004997900687158108,0.000635872595012188,0.001231393776834011
1761341832645427200,3.84942724609375,-0.0024560149759054184,0.0033458955585956573,0.00007882062345743179
1761341832655494100,3.859494140625,-0.0003750207833945751,0.00019164755940437317,0.0002732314169406891
1761341832665560300,3.869560302734375,0.0013735024258494377,0.0008142301812767982,-0.0026413300074636936
1761341832675626000,3.8796259765625,-0.0005583544261753559,-0.0008390601724386215,0.0009195827879011631
1761341832685692200,3.889692138671875,-0.0015909275971353054,0.001111081801354885,-0.000617781188338995
1761341832695758000,3.899758056640625,0.0023185929749161005,-0.002386980690062046,0.001085843425244093
1761341832705824300,3.90982421875,0.0008644759654998779,0.00015115365386009216,-0.00045770080760121346
1761341832715890200,3.91989013671875,0.00032891426235437393,-0.00018866639584302902,0.0007463139481842518
1761341832725957000,3.92995703125,-0.0025026705116033554,0.0007155342027544975,0.0015168637037277222
1761341832736023300,3.940023193359375,0.00090005062520504,-0.00016703736037015915,0.0014590732753276825
1761341832746089200,3.950089111328125,0.002348454901948571,-0.0018480690196156502,0.00003695162013173103
1761341832756155100,3.960155029296875,0.00025281356647610664,-0.0023964131250977516,0.0017600166611373425
1761341832766221300,3.97022119140625,0.0012215184979140759,0.00005438271909952164,-0.001176320482045412
1761341832776287200,3.980287353515625,0.0014100703410804272,-0.0009147422388195992,0.000896683894097805
1761341832786354200,3.990354248046875,0.001276407390832901,-0.001460932195186615,-0.00009968504309654236
1761341832796420000,4.000420166015625,-0.00009591924026608467,0.001234719529747963,-0.0018507135100662708
1761341832806486000,4.010486083984375,0.004713434725999832,0.0021446552127599716,0.0002277623862028122
1761341832816552200,4.02055224609375,-0.0011404594406485558,-0.0006868178024888039,0.00022030575200915337
1761341832826618000,4.0306181640625,0.001173222903162241,-0.0012503834441304207,0.0011734669096767902
1761341832836684300,4.040684326171875,0.0005889255553483963,0.0016298247501254082,0.0026073134504258633
1761341832846750200,4.050750244140625,-0.002624930813908577,-0.0006702784448862076,0.0010945936664938927
1761341832856817200,4.060817138671875,0.0007631424814462662,-0.0022151777520775795,-0.00001860829070210457
1761341832866883300,4.07088330078125,0.0033598756417632103,0.0006708167493343353,-0.0032717958092689514
1761341832876949200,4.08094921875,0.0009457203559577465,-0.0004391884431242943,-0.00015563098713755608
1761341832887015200,4.09101513671875,-0.00027472758665680885,-0.0000021634623408317566,0.000961757730692625
1761341832897081000,4.1010810546875,0.0014046616852283478,0.0024772388860583305,-0.00016209576278924942
1761341832907147300,4.111147216796875,0.0010389266535639763,0.0015737200155854225,-0.0017816447652876377
1761341832917214200,4.121214111328125,-0.0012828167527914047,0.00006850156933069229,0.0002588690258562565
1761341832927280000,4.131280029296875,0.003636822337284684,-0.0014391392469406128,-0.001356538850814104
1761341832937346300,4.14134619140625,-0.0010980116203427315,0.0005558347329497337,-0.0012910254299640656
1761341832947412200,4.151412109375,0.0003094896674156189,0.0010639717802405357,0.0009279279038310051
1761341832957478400,4.161478515625,-0.0004329998046159744,-0.0009754765778779984,0.0018555065616965294
1761341832967544300,4.17154443359375,0.002125002443790436,-0.0011268425732851028,-0.002431187778711319
1761341832977610000,4.18160986328125,-0.0014652051031589508,-0.005154341459274292,0.002633345313370228
1761341832987677200,4.19167724609375,0.0003486531786620617,-0.0015959134325385094,-0.00003479514271020889
1761341832997743000,4.2017431640625,-0.0007874513976275921,0.0013306336477398872,0.002893616911023855
1761341833007809300,4.211809326171875,-0.0007159090600907803,-0.000475849024951458,0.0004992028698325157
1761341833017875200,4.221875244140625,-0.00045784842222929,0.0004887478426098824,-0.0002321014180779457
1761341833027941000,4.231941162109375,0.00031522056087851524,0.0006786985322833061,-0.0013152030296623707
1761341833038007300,4.24200732421875,-0.0008778758347034454,0.0009703142568469048,-0.0015508928336203098
1761341833048074200,4.25207421875,-0.0009686038829386234,-0.00138038769364357,-0.001435989048331976
1761341833058140200,4.26214013671875,-0.0015156171284615993,0.0005429470911622047,0.00030199019238352776
1761341833068206300,4.272206298828125,0.0009779678657650948,-0.0006172861903905869,0.0007141726091504097
1761341833078272000,4.28227197265625,0.0004653092473745346,0.00021734833717346191,-0.00448990985751152
1761341833088338200,4.292338134765625,-0.002502535469830036,-0.00012014433741569519,0.001838021446019411
1761341833098404000,4.302404052734375,0.0014658407308161259,0.00041674915701150894,0.00015516998246312141
1761341833108470300,4.31247021484375,0.0013002501800656319,0.0015525436028838158,0.001278080977499485
1761341833118537200,4.322537109375,0.0004128850996494293,-0.0011068889871239662,0.0002975054085254669
1761341833128603100,4.33260302734375,-0.002189952414482832,-0.0018647313117980957,0.0008464092388749123
1761341833138669300,4.34266943359375,0.0003216746263206005,0.00020321272313594818,0.000131883192807436
1761341833148735200,4.3527353515625,-0.0022699604742228985,0.0008423440158367157,-0.0006541609764099121
1761341833158801400,4.362801513671875,0.00010611163452267647,0.0010458100587129593,0.002226047683507204
1761341833168867000,4.3728671875,-0.0007097958587110043,0.0005221441388130188,-0.00261097215116024
1761341833178934000,4.38293408203125,0.000807673204690218,-0.0005116956308484077,-0.0017347917892038822
1761341833189000200,4.393000244140625,0.0003655957989394665,0.0001216009259223938,0.0001184418797492981
1761341833199066000,4.403066162109375,0.0014553610235452652,0.00047952961176633835,0.0011786464601755142
1761341833209132300,4.41313232421875,-0.0010905279777944088,-0.0012492397800087929,0.0013408195227384567
1761341833219199200,4.42319921875,0.0006868657656013966,-0.000052148476243019104,0.0014923540875315666
1761341833229265200,4.43326513671875,0.0016133268363773823,-0.00001869071274995804,-0.0018145064823329449
1761341833239331300,4.443331298828125,0.0015123933553695679,0.0010614879429340363,-0.0002459045499563217
1761341833249397200,4.453397216796875,0.00021421955898404121,0.0010961713269352913,0.0013039926998317242
1761341833259463400,4.46346337890625,-0.0006353287026286125,-0.0011131875216960907,0.0004922612570226192
1761341833269529000,4.473529052734375,-0.0014990619383752346,-0.0000361856073141098,0.000749087892472744
1761341833279596300,4.48359619140625,0.0011648982763290405,0.0014043180271983147,-0.0007971432060003281
1761341833289662200,4.493662109375,0.0016544610261917114,0.00015241652727127075,0.0006335065700113773
1761341833299728100,4.50372802734375,0.00038812775164842606,0.00011779461055994034,-0.000367575790733099
1761341833309794300,4.513794189453125,0.0011078123934566975,0.0006795953959226608,0.0011182702146470547
1761341833319860200,4.523860107421875,-0.0011324388906359673,0.0005387142300605774,-0.0017145341262221336
1761341833329926100,4.533926025390625,0.0006259349174797535,0.001173822209239006,-0.0021151509135961533
1761341833339993300,4.543993408203125,-0.000019881408661603928,-0.005016429349780083,-0.001653625164180994
1761341833350059300,4.554059326171875,0.0036273635923862457,-0.0009042266756296158,0.0013521932996809483
1761341833360125200,4.564125244140625,-0.0007285024039447308,-0.0008624149486422539,-0.003334437496960163
1761341833370191000,4.574191162109375,0.0002011926844716072,0.0009346390143036842,0.0005390211008489132
1761341833380257000,4.584257080078125,-0.00024941423907876015,-0.0003234380856156349,-0.0015062866732478142
1761341833390323200,4.5943232421875,0.00023752031847834587,-0.0006787553429603577,-0.0005458635278046131
1761341833400389000,4.60438916015625,0.0007816040888428688,0.000011003576219081879,0.0003138049505650997
1761341833410456000,4.6144560546875,0.00106116384267807,0.001207645982503891,-0.0014770668931305408
1761341833420522200,4.624522216796875,-0.000048309098929166794,0.0005359966307878494,-0.0036075955722481012
1761341833430588200,4.634588134765625,0.001965537201613188,-0.0010750619694590569,-0.00006623892113566399
1761341833440654300,4.644654296875,-0.0020276065915822983,-0.0022226180881261826,-0.00011284416541457176
1761341833450720300,4.65472021484375,0.0002553313970565796,0.0006965035572648048,-0.0007297918200492859
1761341833460786200,4.6647861328125,-0.0011729216203093529,0.0008272649720311165,-0.00254553509876132
1761341833470853400,4.674853271484375,0.0001956080086529255,-0.0006794966757297516,0.0008097323589026928
1761341833480919000,4.6849189453125,-0.0020614205859601498,-0.000080818310379982,-0.001894175074994564
1761341833490985200,4.694985107421875,0.00016082217916846275,0.0005707563832402229,-0.0015437211841344833
1761341833501051100,4.705051025390625,-0.001207243651151657,0.00029085855931043625,0.0018936209380626678
1761341833511117300,4.715117431640625,0.000656994991004467,-0.001053091138601303,-0.0002583269961178303
1761341833521183200,4.725183349609375,-0.0014599515125155449,-0.0008424343541264534,-0.0018650121055543423
1761341833531249400,4.73524951171875,-0.0001552351750433445,0.0003840522840619087,0.0014377147890627384
1761341833541316400,4.74531640625,0.0007329289801418781,0.00046474579721689224,0.00015673460438847542
1761341833551382300,4.75538232421875,-0.00011823652312159538,0.0010841218754649162,-0.0007368410006165504
1761341833561448200,4.7654482421875,-0.0003232997842133045,0.0008958354592323303,-0.00030620768666267395
1761341833571514000,4.77551416015625,0.0007918225601315498,-0.0026159435510635376,-0.0008477484807372093
1761341833581580300,4.785580322265625,-0.0007227170281112194,-0.0004380103200674057,0.0008729198016226292
1761341833591646200,4.795646240234375,-0.00007661199197173119,-0.0006989510729908943,0.0006423601880669594
1761341833601713200,4.805713134765625,-0.00048753805458545685,0.0010195868089795113,-0.00030679069459438324
1761341833611779300,4.815779296875,0.0010696640238165855,0.000623541884124279,0.0015402566641569138
1761341833621845200,4.82584521484375,0.0004613981582224369,0.0005223415791988373,0.0010973727330565453
1761341833631911200,4.8359111328125,0.001567136961966753,0.0014898134395480156,-0.000696214847266674
1761341833641977300,4.845977294921875,0.00037510599941015244,-0.0016378024592995644,-0.0014554820954799652
1761341833652043000,4.85604296875,-0.0017241183668375015,0.0012091603130102158,-0.00017676129937171936
1761341833662109200,4.866109130859375,0.0006021521985530853,0.001440589316189289,-0.0006183134391903877
1761341833672176000,4.876176025390625,-0.0008872463367879391,-0.00002289004623889923,0.0007658228278160095
1761341833682242000,4.886241943359375,0.0004709656350314617,-0.0011973436921834946,0.002291281707584858
1761341833692308200,4.89630810546875,-0.00017547979950904846,-0.002225557342171669,0.0002438821829855442
1761341833702374100,4.9063740234375,-0.0006106402724981308,-0.0030777696520090103,0.0011512208729982376
1761341833712440300,4.9164404296875,-0.00012001441791653633,-0.0011589089408516884,-0.0008786055259406567
1761341833722506200,4.92650634765625,-0.00003772275522351265,-0.0016827527433633804,-0.00012732809409499168
1761341833732573200,4.9365732421875,-0.00003268057480454445,0.00015154294669628143,0.00041771354153752327
1761341833742639400,4.946639404296875,0.00032551446929574013,-0.00011716969311237335,0.0003484715707600117
1761341833752705000,4.956705078125,-0.000024017877876758575,-0.0009345291182398796,0.00033071450889110565
1761341833762770200,4.966770263671875,0.0007656095549464226,0.0020977454259991646,0.003112918697297573
1761341833772836000,4.976836181640625,-0.0007556318305432796,0.0015781046822667122,-0.0015553082339465618
1761341833782902300,4.98690234375,0.0001551690511405468,0.00004252605140209198,-0.0008817948400974274
1761341833792968000,4.996968017578125,-0.0005219592712819576,0.0018504150211811066,-0.00451273750513792
1761341833803035100,5.00703515625,-0.0001368662342429161,-0.00041114073246717453,0.0008628526702523232
1761341833813101000,5.01710107421875,0.0015689176507294178,-0.0006597945466637611,-0.0011336766183376312
1761341833823167000,5.0271669921875,0.00048101646825671196,-0.001278713345527649,0.0008506448939442635
1761341833833233200,5.037233154296875,0.0005775145255029202,-0.0001249462366104126,-0.00007829302921891212
1761341833843299000,5.047299072265625,0.0003439555875957012,0.0015664277598261833,0.0014319857582449913
1761341833853365200,5.057365234375,-0.0023294170387089252,0.00018393434584140778,-0.0011013629846274853
1761341833863432200,5.06743212890625,0.0004144376143813133,0.0010385429486632347,0.001527976244688034
1761341833873498000,5.077498046875,0.0013987291604280472,-0.00020745955407619476,-0.0003574993461370468
1761341833883564300,5.087564208984375,-0.0009160907939076424,-0.00201574619859457,-0.0004294048994779587
1761341833893630000,5.0976298828125,0.0011741253547370434,0.002399110235273838,0.000962001271545887
1761341833903696100,5.107696044921875,0.0008532144129276276,0.0005444847047328949,-0.0010561426170170307
1761341833913762000,5.117761962890625,-0.00018245214596390724,0.0012766439467668533,-0.0015999446623027325
1761341833923828200,5.127828125,0.0003925240598618984,0.00315230805426836,-0.0015629264526069164
1761341833933895200,5.137895263671875,-0.0005289167165756226,0.0013004979118704796,-0.0009329216554760933
1761341833943961000,5.147961181640625,0.0000713597983121872,0.0009146053344011307,-0.0008943057619035244
1761341833954027300,5.15802734375,0.000810207799077034,-0.0021942323073744774,-0.0003840574063360691
1761341833964093200,5.16809326171875,0.0024113000836223364,-0.0007135141640901566,-0.0012871352955698967
1761341833974159400,5.178159423828125,-0.002347249537706375,0.001481783576309681,0.0008735479786992073
1761341833984225000,5.18822509765625,0.0011233817785978317,-0.000015179626643657684,0.00027513550594449043
1761341833994291000,5.198291015625,-0.0008185538463294506,-0.000026085413992404938,0.0021465495228767395
1761341834004358100,5.208358154296875,0.0006722835823893547,-0.0004300875589251518,-0.0011824015527963638
1761341834014424000,5.218424072265625,0.0015235883183777332,-0.002298416569828987,0.0018763504922389984
1761341834024490200,5.228490234375,0.00005139270797371864,-0.0014398135244846344,0.0010230736806988716
1761341834034556200,5.23855615234375,0.00009144982323050499,-0.0008450336754322052,-0.0012833639048039913
1761341834044622000,5.2486220703125,0.0030912344809621572,0.0006170421838760376,-0.00041330931708216667
1761341834054688300,5.258688232421875,-0.0012424024753272533,0.0008041383698582649,0.00003807665780186653
1761341834064755200,5.268755126953125,-0.000606440007686615,0.00009147636592388153,0.0024972395040094852
1761341834074821000,5.278821044921875,0.00024925684556365013,-0.0005736434832215309,-0.0029370286501944065
1761341834084887000,5.288886962890625,-0.00134597672149539,-0.00038988515734672546,-0.000926608219742775
1761341834094953000,5.298952880859375,0.000147135928273201,0.0017696404829621315,0.000725800171494484
1761341834105019100,5.30901904296875,-0.00010613072663545609,0.0012098439037799835,0.0015620328485965729
1761341834115085000,5.3190849609375,-0.00009316345676779747,0.0006989846006035805,-0.0022821654565632343
1761341834125151200,5.329151123046875,0.002910882467404008,0.001887287013232708,0.0006678178906440735
1761341834135218200,5.33921826171875,-0.0008125379681587219,-0.0011543333530426025,-0.0024924306198954582
1761341834145284000,5.3492841796875,0.0014748512767255306,-0.00028001703321933746,-0.0009166384115815163
1761341834155350300,5.359350341796875,-0.0014504799619317055,0.0002545546740293503,-0.00009132875129580498
1761341834165416200,5.369416259765625,0.0015237382613122463,-0.0006064455956220627,-0.00047056330367922783
1761341834175482000,5.379482177734375,-0.0014470582827925682,-0.0015146667137742043,-0.000847219955176115
1761341834185548000,5.389548095703125,0.002383366459980607,0.0026411954313516617,0.0008755791932344437
1761341834195615000,5.399614990234375,-0.0004383907653391361,0.0017204228788614273,-0.00042314035817980766
1761341834205681200,5.40968115234375,0.0022671143524348736,-0.000634877011179924,0.002433899324387312
1761341834215747000,5.4197470703125,-0.001709695439785719,-0.002483733929693699,-0.0016543129459023476
1761341834225813200,5.429813232421875,-0.0019722827710211277,-0.0013723969459533691,0.0032706703059375286
1761341834235879200,5.439879150390625,0.0012299814261496067,-0.002637164667248726,-0.00024231849238276482
1761341834245945000,5.449945068359375,-0.0005783052183687687,0.00003611668944358826,0.0012282785028219223
1761341834256011300,5.46001123046875,0.002639561891555786,0.0005436716601252556,0.003867790102958679
1761341834266078200,5.470078125,-0.0019810223020613194,-0.0009306538850069046,0.0010775960981845856
1761341834276144000,5.48014404296875,0.00018800608813762665,0.00011095777153968811,-0.0017238506115972996
1761341834286210000,5.4902099609375,0.002191502135246992,-0.0009223492816090584,0.0009632785804569721
1761341834296276000,5.50027587890625,0.0014806459657847881,0.0010605975985527039,0.00032357266172766685
1761341834306342100,5.510342041015625,0.00018634973093867302,-0.00026938505470752716,0.00033289333805441856
1761341834316408000,5.520407958984375,0.00019643967971205711,-0.002226199023425579,0.0007992051541805267
1761341834326474200,5.53047412109375,0.0022113872691988945,0.002184527926146984,-0.0034381509758532047
1761341834336541200,5.540541259765625,0.00132045429199934,0.0004638331010937691,-0.0014804634265601635
1761341834346607000,5.550607177734375,-0.0013102157972753048,-0.0014480501413345337,0.00019493140280246735
1761341834356673300,5.56067333984375,0.0024678173940628767,-0.0018747374415397644,-0.00040772557258605957
1761341834366739000,5.570739013671875,0.0012305127456784248,-0.0012845806777477264,0.00037258071824908257
1761341834376805000,5.58080517578125,0.0009752623736858368,-0.002471243031322956,0.0009025102481245995
1761341834386871000,5.59087109375,0.00043224403634667397,-0.0015479251742362976,-0.0004983125254511833
1761341834396938000,5.60093798828125,0.0011216085404157639,-0.0020949486643075943,0.00008851755410432816
1761341834407004200,5.611004150390625,-0.00017055729404091835,0.0017320141196250916,-0.0026151235215365887
1761341834417070000,5.621070068359375,0.0024425608571618795,0.00025880802422761917,-0.0010230340994894505
1761341834427136300,5.63113623046875,-0.0011071665212512016,0.0011791959404945374,0.000005744863301515579
1761341834437202200,5.6412021484375,-0.002181408926844597,-0.002912672236561775,0.0004763794131577015
1761341834447268400,5.651268310546875,-0.001382727175951004,0.0005981726571917534,0.001719010528177023
1761341834457334000,5.661333984375,-0.0003953520208597183,-0.003061688505113125,0.0012170784175395966
1761341834467401000,5.67140087890625,0.000815587118268013,0.00015594251453876495,0.00005301041528582573
1761341834477467100,5.681467041015625,0.000370777677744627,0.0007071821019053459,-0.00014105672016739845
1761341834487533000,5.691532958984375,0.0006405562162399292,0.002018522471189499,-0.003464948385953903
1761341834497599200,5.70159912109375,-0.00001096632331609726,-0.0013710083439946175,-0.00023141317069530487
1761341834507665200,5.7116650390625,0.0004742615856230259,0.00031637027859687805,-0.000993609894067049
1761341834517731000,5.72173095703125,0.0012789741158485413,-0.0004338957369327545,0.0002357224002480507
1761341834527797200,5.73179736328125,0.00036843959242105484,0.0017341841012239456,-0.00038293004035949707
1761341834537864200,5.7418642578125,-0.0003615072928369045,0.0026635322719812393,-0.0019488115794956684
1761341834547930400,5.751930419921875,0.0005719303153455257,0.00041156355291604996,-0.0010963338427245617
1761341834557996000,5.76199609375,-0.0005128933116793633,0.0006854627281427383,-0.003285310696810484
1761341834568062000,5.77206201171875,-0.001813314389437437,-0.002088218927383423,0.001835948321968317
1761341834578128100,5.782128173828125,0.0003428296186029911,0.001378936693072319,0.0005481941625475883
1761341834588194000,5.792194091796875,0.0002450915053486824,0.00004389416426420212,0.0005473950877785683
1761341834598261000,5.802260986328125,-0.0014933361671864986,-0.0016106683760881424,-0.0006562522612512112
1761341834608327200,5.8123271484375,-0.0012904033064842224,0.0006016194820404053,0.001357363536953926
1761341834618393000,5.82239306640625,0.00029561854898929596,0.0002995934337377548,-0.0022396696731448174
1761341834628459300,5.832459228515625,0.0018477090634405613,-0.0009065521880984306,0.0002016499638557434
1761341834638525200,5.842525146484375,-0.0014662407338619232,0.001515330746769905,-0.0004663788713514805
1761341834648591000,5.852591064453125,-0.000016948673874139786,-0.0013217348605394363,0.0013895779848098755
1761341834658657000,5.862656982421875,-0.0002680267207324505,0.000261552631855011,0.0016481424681842327
1761341834668724000,5.872723876953125,0.0012947162613272667,-0.0006271442398428917,0.0014143171720206738
1761341834678790100,5.8827900390625,0.001485627144575119,-0.0007860744372010231,-0.000996484886854887
1761341834688856000,5.89285595703125,0.001708267256617546,0.0008696131408214569,-0.0021078218705952168
1761341834698922200,5.902922119140625,-0.0012124818749725819,0.00016388017684221268,0.0026460913941264153
1761341834708988200,5.91298828125,-0.0004265829920768738,0.0006704134866595268,0.0005541788414120674
1761341834719054300,5.923054443359375,0.0002499534748494625,0.001616915687918663,0.0035053733736276627
1761341834729120000,5.9331201171875,0.00023237662389874458,-0.0029173828661441803,0.0018030814826488495
1761341834739187200,5.943187255859375,0.0022473596036434174,0.0017124274745583534,0.0002524936571717262
1761341834749253000,5.953253173828125,0.0006172386929392815,0.0011523645371198654,0.0003334544599056244
1761341834759319800,5.96331982421875,-0.004404307343065739,0.0011490564793348312,-0.000003116670995950699
1761341834769385700,5.9733857421875,0.0008439845405519009,0.00043000373989343643,0.0010530934669077396
1761341834779451600,5.98345166015625,0.002391244750469923,-0.00034368131309747696,0.0005685258656740189
1761341834789517600,5.993517578125,-0.0009978939779102802,-0.00023635569959878922,0.0006548129022121429
1761341834799584500,6.00358447265625,0.0009965193457901478,0.000850318931043148,0.0005186512134969234
1761341834809650700,6.013650634765625,-0.0003819330595433712,0.00003592483699321747,-0.00018815230578184128
1761341834819716600,6.023716552734375,0.0004839315079152584,0.0008061444386839867,0.00038627535104751587
1761341834829782800,6.03378271484375,-0.00023059453815221786,-0.0015414319932460785,-0.00011386629194021225
1761341834839848700,6.0438486328125,0.0002886960282921791,0.0005924822762608528,0.0010441425256431103
1761341834849915000,6.053914794921875,-0.000015170779079198837,0.00025079865008592606,0.002858020830899477
1761341834859980800,6.063980712890625,-0.00042215408757328987,-0.0009677810594439507,0.0010742475278675556
1761341834870047700,6.0740478515625,-0.0010008588433265686,0.0011678077280521393,-0.000592358410358429
1761341834880113700,6.08411376953125,-0.002006158232688904,-0.001713605597615242,-0.002653428353369236
1761341834890179600,6.0941796875,-0.00043728994205594063,-0.0009825676679611206,0.00022864434868097305
1761341834900245800,6.104245849609375,0.0009251008741557598,0.001639198511838913,-0.0005670255050063133
1761341834910311700,6.114311767578125,-0.001309025101363659,0.0008362550288438797,0.0018354118801653385
1761341834920377900,6.1243779296875,0.000102214515209198,0.0012716837227344513,-0.0009144693613052368
1761341834930443800,6.13444384765625,0.00021566543728113174,-0.0022506127133965492,0.0002179066650569439
1761341834940510700,6.1445107421875,-0.00008711311966180801,0.0005802493542432785,-0.0016341176815330982
1761341834950577000,6.154576904296875,-0.0004556947387754917,-0.000041865743696689606,0.004698612727224827
1761341834960642800,6.164642822265625,0.00006643356755375862,-0.001863769255578518,0.001016667578369379
1761341834970708700,6.174708740234375,-0.0008712653070688248,0.0022359006106853485,-0.00038335658609867096
1761341834980774700,6.184774658203125,0.00210751174017787,-0.0001143328845500946,0.0008237594738602638
1761341834990840600,6.194840576171875,0.001012952532619238,-0.001147107221186161,0.00009112386032938957
1761341835000906800,6.20490673828125,0.0001071966253221035,0.00017869099974632263,-0.0007555922493338585
1761341835010973700,6.2149736328125,-0.0010310388170182705,-0.0009313151240348816,-0.00034253625199198723
1761341835021039600,6.22503955078125,0.000336560420691967,0.0007224585860967636,-0.0023326934315264225
1761341835031105800,6.235105712890625,0.00116773322224617,0.0014276634901762009,0.0019217059016227722
1761341835041171700,6.245171630859375,0.0013836952857673168,0.00006121676415205002,0.0008502504788339138
1761341835051238000,6.25523779296875,-0.0015220795758068562,-0.0010812794789671898,0.0008052433840930462
1761341835061303600,6.265303466796875,0.0005372646264731884,0.0005730437114834785,0.0002525746822357178
1761341835071370500,6.27537060546875,0.0007527139969170094,-0.0013263234868645668,-0.00004436727613210678
1761341835081436700,6.285436767578125,0.0003155251033604145,0.00254985224455595,-0.0018821796402335167
1761341835091502600,6.295502685546875,0.000024974346160888672,-0.0010856296867132187,-0.0012539396993815899
1761341835101568800,6.30556884765625,0.0023825205862522125,-0.002751772291958332,0.0001262999139726162
1761341835111634700,6.315634765625,-0.001505162101238966,-0.001661740243434906,-0.0013909032568335533
1761341835121700900,6.325700927734375,-0.00081234285607934,-0.00026636384427547455,0.002513985149562359
1761341835131766800,6.335766845703125,0.0010542664676904678,-0.0006048521026968956,-0.00029831286519765854
1761341835141833700,6.345833740234375,0.0003398279659450054,0.00039622746407985687,0.0005726576782763004
1761341835151900000,6.35589990234375,0.0003813733346760273,-0.001287955790758133,0.0007044845260679722
1761341835161965600,6.365965576171875,0.0008006631396710873,0.0012146402150392532,-0.001523044891655445
1761341835172031700,6.37603173828125,0.00026297103613615036,-0.000008283182978630066,-0.003213087096810341
1761341835182097700,6.38609765625,-0.00013325177133083344,-0.0005251225084066391,-0.0006135338917374611
1761341835192163600,6.39616357421875,0.00002733711153268814,0.00027063023298978806,-0.0008750567212700844
1761341835202229800,6.406229736328125,-0.0002470160834491253,0.0014418140053749084,-0.0015696603804826736
1761341835212296700,6.416296630859375,0.0011293054558336735,-0.0020522531121969223,-0.00006843637675046921
1761341835222363000,6.42636279296875,0.001993277110159397,-0.002034560777246952,-0.0009615947492420673
1761341835232428800,6.4364287109375,0.0021072602830827236,0.0005013011395931244,-0.0011730496771633625
1761341835242494700,6.44649462890625,0.00030781514942646027,-0.0003618784248828888,0.0013099242933094501
1761341835252560600,6.456560546875,-0.0010583861730992794,0.0018357625231146812,0.00041670026257634163
1761341835262626600,6.46662646484375,0.00018725497648119926,0.00020482949912548065,-0.0010123895481228828
1761341835272693800,6.47669384765625,0.0014264238998293877,0.0009587705135345459,0.0007594116032123566
1761341835282759700,6.486759765625,-0.0006455578841269016,0.0010941065847873688,0.002022523432970047
1761341835292825600,6.49682568359375,0.0006785658188164234,0.00006159860640764236,0.00015271827578544617
1761341835302891800,6.506891845703125,-0.0005612862296402454,-0.000864839181303978,-0.002456271555274725
1761341835312957700,6.516957763671875,0.0010786885395646095,-0.000859512947499752,0.0011147609911859035
1761341835323024000,6.52702392578125,-0.0003218413330614567,0.00114414282143116,-0.0005828016437590122
1761341835333089800,6.53708984375,0.001915214117616415,0.0017441529780626297,0.0008600992150604725
1761341835343156700,6.54715673828125,-0.0005774516612291336,-0.0013724137097597122,0.001202878076583147
1761341835353222700,6.55722265625,-0.0026041166856884956,0.00014745257794857025,0.0004185768775641918
1761341835363288600,6.56728857421875,0.0015720110386610031,-0.0006446894258260727,0.00030812807381153107
1761341835373354800,6.577354736328125,-0.0015020756982266903,0.0001678410917520523,0.0008210530504584312
1761341835383420700,6.587420654296875,0.0022316649556159973,0.0001566186547279358,-0.0014727967791259289
1761341835393486800,6.59748681640625,0.000747219193726778,-0.0005142316222190857,0.00007316842675209045
1761341835403552800,6.607552734375,0.000545046292245388,-0.00026694778352975845,0.0007346761412918568
1761341835413619700,6.61761962890625,-0.0009646997787058353,-0.0005977116525173187,-0.002467242069542408
1761341835423686000,6.627685791015625,-0.0004864810034632683,-0.00033838488161563873,-0.00010602781549096107
1761341835433751800,6.637751708984375,-0.001832708716392517,-0.001001245342195034,0.00007852911949157715
1761341835443817700,6.647817626953125,0.0027160116005688906,-0.001921011134982109,-0.0001388867385685444
1761341835453883600,6.657883544921875,-0.0004424974322319031,0.0012121982872486115,-0.0013500922359526157
1761341835463949600,6.667949462890625,0.0006421157158911228,0.003051765263080597,0.000792261678725481
1761341835474016800,6.678016845703125,0.001625887118279934,-0.0011634854599833488,0.004632274154573679
1761341835484082700,6.688082763671875,-0.00005113333463668823,0.0010554008185863495,-0.0011905310675501823
1761341835494148600,6.698148681640625,-0.0012588766403496265,0.0019267871975898743,-0.0016552526503801346
1761341835504214800,6.70821484375,-0.0014283410273492336,0.0003028120845556259,0.002281659282743931
1761341835514280700,6.71828076171875,0.0010076523758471012,-0.0009161168709397316,-0.0002597956918179989
1761341835524347000,6.728346923828125,0.0016811182722449303,-0.0004806332290172577,-0.0013818209990859032
1761341835534412500,6.73841259765625,0.0011061420664191246,0.0016118120402097702,-0.0012361458502709866
1761341835544479500,6.7484794921875,-0.0005565476603806019,-0.0021295957267284393,-0.0005912510678172112
1761341835554545700,6.758545654296875,0.00048421556130051613,0.000706937164068222,0.0014069187454879284
1761341835564611600,6.768611572265625,-0.0005987458862364292,-0.0005797632038593292,-0.0016058352775871754
1761341835574677800,6.778677734375,0.0002486719749867916,-0.0019297199323773384,0.0010687769390642643
1761341835584743700,6.78874365234375,0.0005735536105930805,-0.002470719628036022,-0.0011439705267548561
1761341835594809900,6.798809814453125,0.0015333564952015877,-0.0007868027314543724,-0.0006155995652079582
1761341835604875800,6.808875732421875,-0.0003893985413014889,-0.00003467872738838196,-0.00008644117042422295
1761341835614942700,6.818942626953125,-0.0015025995671749115,0.0005139326676726341,-0.0012009739875793457
1761341835625009000,6.8290087890625,-0.0006384961307048798,-0.0007471004500985146,-0.0015412187203764915
1761341835635074600,6.839074462890625,0.0003234376199543476,0.001094209961593151,-0.00008233916014432907
1761341835645140700,6.849140625,-0.0001791464164853096,-0.0009003011509776115,-0.0009922171011567116
1761341835655206700,6.85920654296875,0.0011274004355072975,0.0005359416827559471,0.0003425590693950653
1761341835665272800,6.86927294921875,-0.000012610573321580887,0.0014374619349837303,0.0035757538862526417
1761341835675339800,6.87933984375,-0.0016536503098905087,-0.0009375447407364845,0.002765354234725237
1761341835685405700,6.88940576171875,-0.00032179756090044975,-0.00035562366247177124,0.00018002325668931007
1761341835695471900,6.899471923828125,0.001864391379058361,0.0004763482138514519,0.00023621553555130959
1761341835705537800,6.909537841796875,-0.003521688748151064,-0.0014638900756835938,-0.0007518562488257885
1761341835715603700,6.919603759765625,-0.0023528276942670345,-0.0001866379752755165,-0.0009614471346139908
1761341835725669600,6.929669677734375,-0.0012274929322302341,0.0006074113771319389,-0.0021086768247187138
1761341835735735600,6.939735595703125,0.00032539619132876396,0.00006812065839767456,0.0014109564945101738
1761341835745802800,6.949802734375,0.0009701279923319817,-0.0009392686188220978,-0.00014128396287560463
1761341835755868700,6.95986865234375,0.003028485458344221,0.00029004644602537155,-0.001090700738132
1761341835765934600,6.9699345703125,-0.0026717456057667732,0.000017707236111164093,-0.0006090551614761353
1761341835776000800,6.980000732421875,0.00008782185614109039,0.0016187997534871101,-0.0024162759073078632
1761341835786066700,6.990066650390625,-0.0009804829023778439,0.001686333678662777,0.00022163428366184235
1761341835796132900,7.0001328125,0.0005793306045234203,-0.00036243628710508347,0.0010749110952019691
1761341835806198500,7.010198486328125,-0.0022612442262470722,-0.0024066604673862457,0.0002929135225713253
1761341835816265700,7.020265625,0.00037954607978463173,-0.0005336590111255646,-0.001809119712561369
1761341835826331600,7.03033154296875,-0.00031594419851899147,0.0014815423637628555,-0.0031892270781099796
1761341835836397600,7.0403974609375,0.0009602424688637257,0.0006514349952340126,0.0004877988249063492
1761341835846463700,7.050463623046875,-0.0038322354666888714,0.004541674628853798,0.0010698651894927025
1761341835856529700,7.06052978515625,-0.001041509211063385,-0.0011732038110494614,0.0008778506889939308
1761341835866595800,7.070595947265625,-0.0013963943347334862,0.0002940762788057327,0.002544508781284094
1761341835876661800,7.080661865234375,-0.0005063661374151707,0.0010653277859091759,0.0006182440556585789
1761341835886728700,7.090728759765625,-0.00009425170719623566,-0.0005079489201307297,0.0009079570882022381
1761341835896795000,7.100794921875,-0.0000937189906835556,0.002072388306260109,-0.002431380096822977
1761341835906860800,7.11086083984375,-0.0009489008225500584,0.00014062225818634033,-0.002428833395242691
1761341835916926700,7.1209267578125,-0.00003224099054932594,-0.0010724477469921112,0.0014942693524062634
1761341835926992600,7.13099267578125,0.0007510380819439888,0.0008527748286724091,0.0006311866454780102
1761341835937058600,7.14105859375,-0.0005685584619641304,-0.0012252898886799812,0.0003291838802397251
1761341835947124700,7.151124755859375,0.001562004443258047,-0.0001823781058192253,-0.0008558188565075397
1761341835957191700,7.161191650390625,-0.0009043491445481777,-0.0004777228459715843,0.0010845600627362728
1761341835967257900,7.1712578125,-0.002465998288244009,-0.0010041799396276474,-0.0007400736212730408
1761341835977323800,7.18132373046875,-0.00015171105042099953,-0.0017466694116592407,-0.0010292925871908665
1761341835987389700,7.1913896484375,0.0009654653258621693,-0.002273028716444969,-0.0024162624031305313
1761341835997455600,7.20145556640625,0.0024030394852161407,0.0033457083627581596,-0.002758212387561798
1761341836007521500,7.211521484375,-0.002499501220881939,-0.0010832799598574638,0.003959336318075657
1761341836017588700,7.221588623046875,-0.001081900205463171,0.0020001279190182686,0.0018535749986767769
1761341836027654700,7.231654541015625,-0.001004064455628395,-0.002138124778866768,-0.0001840679906308651
1761341836037720600,7.241720458984375,-0.00324538117274642,-0.0011077485978603363,-0.000036528799682855606
1761341836047786800,7.251786865234375,0.0005875751376152039,0.0000896630808711052,-0.00035122688859701157
1761341836057852700,7.261852783203125,-0.0011930144391953945,-0.001139119267463684,0.00396389327943325
1761341836067918800,7.2719189453125,0.001031195279210806,0.00017799995839595795,0.00047274958342313766
1761341836077984800,7.28198486328125,-0.0012649823911488056,0.0015553869307041168,0.000773952342569828
1761341836088051700,7.2920517578125,-0.0008744881488382816,0.0015195077285170555,-0.0032394034788012505
1761341836098118000,7.302117919921875,0.0022382144816219807,0.0021173879504203796,-0.0012281839735805988
1761341836108183600,7.31218359375,0.002189409453421831,-0.00217333622276783,-0.0009396374225616455
1761341836118249700,7.322249755859375,-0.00018506497144699097,0.00025866273790597916,0.0020020902156829834
1761341836128315600,7.332315673828125,-0.0001719617284834385,0.0015618065372109413,0.0021621352061629295
1761341836138381800,7.3423818359375,0.00014894921332597733,-0.0017021633684635162,0.0008979327976703644
1761341836148447700,7.35244775390625,-0.0012921905145049095,0.00042274314910173416,-0.0005462085828185081
1761341836158514700,7.3625146484375,-0.0021723653189837933,-0.0010462570935487747,0.0027949935756623745
1761341836168580900,7.372580810546875,-0.0015505822375416756,0.00033159926533699036,0.0011604982428252697
1761341836178646800,7.382646728515625,-0.00039184093475341797,-0.0011182250455021858,-0.0007034479640424252
1761341836188712700,7.392712646484375,-0.00044651608914136887,-0.0014950744807720184,0.0005455408245325089
1761341836198778600,7.402778564453125,-0.0006654276512563229,0.0013435892760753632,-0.00013436377048492432
1761341836208844500,7.412844482421875,0.0008988478220999241,0.0036004362627863884,-0.0027905735187232494
1761341836218910700,7.42291064453125,0.0010868674144148827,-0.0009575644508004189,-0.003225468099117279
1761341836228977700,7.432977783203125,0.00035089626908302307,0.0020761974155902863,0.0022117928601801395
1761341836239043800,7.4430439453125,0.0021171048283576965,0.0012418292462825775,-0.0009014424867928028
1761341836249109800,7.45310986328125,0.00039183348417282104,0.003180387429893017,0.0008186525665223598
1761341836259175700,7.46317578125,0.0008621476590633392,0.0015161791816353798,-0.0002612587995827198
1761341836269241900,7.473241943359375,-0.0007064156234264374,0.0010701129212975502,-0.0010460452176630497
1761341836279307500,7.4833076171875,0.001390291377902031,0.0011731777340173721,-0.0011967802420258522
1761341836289374700,7.493374755859375,0.000011695083230733871,0.00019474327564239502,0.0011944826692342758
1761341836299440600,7.503440673828125,-0.0011909883469343185,0.0005803694948554039,-0.0007333792746067047
1761341836309506600,7.513506591796875,-0.0014399266801774502,-0.00008169375360012054,-0.0008805170655250549
1761341836319572700,7.52357275390625,0.0001534423790872097,-0.0019669458270072937,-0.0022568386048078537
1761341836329638700,7.533638671875,-0.0004438692703843117,-0.0010331850498914719,-0.0033062216825783253
1761341836339704800,7.543704833984375,0.0005292496643960476,-0.002852124162018299,-0.002369055524468422
1761341836349770800,7.553770751953125,0.0017976085655391216,0.0023028505966067314,-0.0000370698980987072
1761341836359837700,7.563837646484375,-0.0005017649382352829,-0.0022527528926730156,-0.000018693972378969193
1761341836369903900,7.57390380859375,0.0011150161735713482,0.0004144888371229172,-0.0011190101504325867
1761341836379969500,7.583969482421875,0.0012950459495186806,-0.0008419910445809364,-0.0004063481464982033
1761341836390035700,7.59403564453125,0.001545141451060772,-0.0004800260066986084,-0.0011248178780078888
1761341836400101600,7.6041015625,0.0000886586494743824,0.0006840415298938751,-0.0036436356604099274
1761341836410167800,7.614167724609375,-0.001681673340499401,-0.002386370673775673,-0.00016590161249041557
1761341836420233700,7.624233642578125,-0.0008888505399227142,0.0011047674342989922,0.0013483711518347263
1761341836430300700,7.63430078125,0.0005259090103209019,0.00020086485892534256,-0.0027288994751870632
1761341836440366800,7.644366943359375,-0.000057057011872529984,-0.0016644131392240524,0.00023280177265405655
1761341836450432800,7.654432861328125,-0.0012872000224888325,-0.0008706515654921532,0.0007826462388038635
1761341836460498700,7.664498779296875,-0.001131671480834484,0.0008007483556866646,0.001471606083214283
1761341836470564600,7.674564697265625,0.002331584459170699,-0.001673983410000801,-0.0003071255050599575
1761341836480630500,7.684630615234375,0.0006825551390647888,0.0005433643236756325,0.000022573862224817276
1761341836490696700,7.69469677734375,0.0014820564538240433,-0.00006968807429075241,0.0013927104882895947
1761341836500763600,7.704763671875,-0.0022857841104269028,0.00042060017585754395,0.0004139984957873821
1761341836510829600,7.71482958984375,0.00024046516045928001,-0.0001810900866985321,-0.00009877094998955727
1761341836520895700,7.724895751953125,-0.002687680535018444,-0.0017187995836138725,0.0005864598788321018
1761341836530961700,7.734961669921875,0.0006753122434020042,0.001451396383345127,0.0008001415990293026
1761341836541027800,7.74502783203125,-0.0025726789608597755,0.00351641234010458,-0.002426277846097946
1761341836551093800,7.75509375,-0.00013265572488307953,-0.0004501286894083023,0.0025299610570073128
1761341836561159700,7.76515966796875,0.0022591291926801205,0.0006380388513207436,0.0006590904667973518
1761341836571226600,7.7752265625,0.0005469527095556259,-0.00023943092674016953,0.00006496859714388847
1761341836581292500,7.78529248046875,-0.0011169901117682457,0.0010729748755693436,-0.0009052208624780178
1761341836591358700,7.795358642578125,-0.0026706825010478497,-0.0033604614436626434,0.001166763249784708
1761341836601424600,7.805424560546875,0.0018891817890107632,-0.0009937100112438202,-0.0007283422164618969
1761341836611490800,7.81549072265625,-0.001212923787534237,-0.0001421310007572174,0.002575361169874668
1761341836621556700,7.825556640625,-0.001453673467040062,-0.0005823513492941856,-0.002412206958979368
1761341836631623700,7.835623779296875,0.0014576204121112823,0.0013065505772829056,0.0005059880204498768
1761341836641689900,7.84568994140625,-0.0002513299696147442,0.0016884487122297287,-0.0003624684177339077
1761341836651755800,7.855755859375,0.0003292681649327278,-0.0018217414617538452,0.0013584224507212639
1761341836661821700,7.86582177734375,-0.0021006003953516483,0.000058183446526527405,-0.00011403951793909073
1761341836671887600,7.8758876953125,0.0002664383500814438,-0.00017455313354730606,-0.0001565464772284031
1761341836681953800,7.885953857421875,0.0033754128962755203,-0.0008901441469788551,-0.000684651080518961
1761341836692019700,7.896019775390625,-0.0019548372365534306,-0.0003210604190826416,0.001910931896418333
1761341836702086700,7.906086669921875,0.0018454939126968384,-0.0008789924904704094,-0.004871873185038567
1761341836712152800,7.91615283203125,-0.0004970957525074482,0.00040599703788757324,0.0009527257643640041
1761341836722218800,7.92621875,0.002406548708677292,0.0008201180025935173,-0.002723501529544592
1761341836732284700,7.93628466796875,-0.000970067922025919,-0.00035023409873247147,0.0004929229617118835
1761341836742350800,7.946350830078125,-0.0002334374003112316,0.0015294253826141357,-0.0003350540064275265
1761341836752416500,7.95641650390625,-0.0014722920022904873,-0.0022733118385076523,-0.002223817165941
1761341836762483200,7.966483154296875,-0.0006962469778954983,0.0000010272487998008728,0.0002585151232779026
1761341836772550100,7.976550048828125,-0.000036401208490133286,-0.0006223563104867935,-0.002522728405892849
1761341836782616000,7.986615966796875,-0.0027072858065366745,0.0006945766508579254,-0.002234840765595436
1761341836792682200,7.99668212890625,0.0006922362372279167,0.0012075863778591156,-0.002641805447638035
1761341836802747100,8.0067470703125,-0.00181619543582201,-0.001834808848798275,0.0012149843387305737
1761341836812814000,8.01681396484375,0.001467269379645586,0.0005245236679911613,-0.001776721328496933
1761341836822880000,8.0268798828125,0.0010536806657910347,-0.0015082675963640213,-0.0015679295174777508
1761341836832946200,8.0369462890625,-0.00038136402145028114,-0.0012579504400491714,0.0011613932438194752
1761341836843012000,8.04701220703125,0.0005571339279413223,0.0001426059752702713,0.0011363592930138111
1761341836853078000,8.057078125,-0.0030745798721909523,-0.0010431241244077682,0.0010234382934868336
1761341836863144200,8.067144287109375,-0.00037067197263240814,-0.0004215417429804802,0.0013882913626730442
1761341836873211100,8.077211181640624,-0.0004334431141614914,-0.0015311939641833305,-0.0011500879190862179
1761341836883277000,8.087277099609375,0.00015964265912771225,0.00012103188782930374,-0.00039108702912926674
1761341836893343000,8.097343017578124,-0.0012525063939392567,0.0008247047662734985,-0.0015319823287427425
1761341836903409000,8.107408935546875,0.00003113690763711929,-0.0006387019529938698,-0.0002936120145022869
1761341836913475000,8.11747509765625,-0.0006066509522497654,-0.0007286276668310165,-0.0013219034299254417
1761341836923541000,8.127541015625,-0.00026203785091638565,0.0006431667134165764,0.00327551132068038
1761341836933607200,8.137607177734376,0.0028031428810209036,-0.0038127610459923744,0.0026707276701927185
1761341836943674000,8.147674072265625,-0.0004147547297179699,-0.00040524639189243317,0.000025676563382148743
1761341836953740000,8.157739990234376,0.0007254905067384243,0.000820833258330822,0.00016935355961322784
1761341836963806200,8.16780615234375,0.000552385114133358,-0.000040432438254356384,-0.0028970101848244667
1761341836973872000,8.1778720703125,0.0002670707181096077,0.0000507524237036705,0.0032382928766310215
1761341836983938000,8.18793798828125,0.00030435528606176376,0.00011733174324035645,-0.000677086878567934
1761341836994004000,8.19800390625,-0.0015224255621433258,0.000367678701877594,-0.0016749463975429535
1761341837004070100,8.208070068359374,-0.00046275369822978973,-0.0005087675526738167,-0.0016624294221401215
1761341837014137000,8.21813720703125,0.0018015620298683643,0.0024108942598104477,0.0011890069581568241
1761341837024203000,8.228203125,-0.0016624117270112038,0.0006830357015132904,-0.0021676416508853436
1761341837034269200,8.238269287109375,0.00044587207958102226,-0.001254039816558361,-0.0005227783694863319
1761341837044335000,8.248335205078124,-0.000782910268753767,0.0015004677698016167,-0.0024655545130372047
1761341837054401300,8.2584013671875,0.0005930829793214798,-0.002465966157615185,-0.0007421933114528656
1761341837064467200,8.26846728515625,-0.0014168047346174717,-0.0015509044751524925,-0.0013994616456329823
1761341837074532900,8.278532958984375,0.002135679591447115,-0.0014386232942342758,-0.0022442718036472797
1761341837084600000,8.28860009765625,-0.0015626521781086922,-0.0028242655098438263,0.0020162533037364483
1761341837094666000,8.298666015625,-0.00022828159853816032,0.0014138435944914818,0.002400338649749756
1761341837104732200,8.308732177734376,-0.0012285648845136166,0.04522444307804108,0.018339090049266815
1761341837114798000,8.318798095703125,0.0006992882117629051,-0.03847336024045944,-0.015056310221552849
1761341837124864000,8.328864013671875,-0.0018778531812131405,-0.009765282273292542,-0.005605550017207861
1761341837134930200,8.33893017578125,0.0015747915022075176,-0.010167744010686874,-0.0031715286895632744
1761341837144996000,8.34899609375,-0.0026700212620198727,-0.00791497528553009,-0.00278377253562212
1761341837155063000,8.35906298828125,-0.00029939552769064903,-0.0030264798551797867,-0.0033209738321602345
1761341837165129200,8.369129150390625,-0.001325511373579502,-0.0006235092878341675,0.00245196046307683
1761341837175195000,8.37919482421875,0.00022896705195307732,-0.0001553194597363472,0.0035294778645038605
