time,seconds_elapsed,z,y,x
1761338370268100000,0.07410009765625,-1.1227800408482551,0.4071848164878785,0.10911025346238165
1761338370278164700,0.084164794921875,-0.6108949328273534,0.467049648733437,-0.051795945949852464
1761338370288231000,0.09423095703125,-0.29370296034514903,0.321906579913944,-0.110580874004215
1761338370298296000,0.104296142578125,-0.08111702524125576,0.3295323986172676,-0.2083546907423064
1761338370308362000,0.114362060546875,0.014659224471449852,0.33430165884569285,-0.13742179038506
1761338370318427000,0.124427001953125,-0.12331599854528903,0.20300211420059203,0.008915639318153262
1761338370328492800,0.134492919921875,-0.37337504747509953,0.13511077349632977,0.08479830756988375
1761338370338559000,0.14455908203125,-0.599092266830802,0.23516952283382414,0.04484263794692233
1761338370348624000,0.154623779296875,-0.6628519145578146,0.23463979987129568,0.09812323296396061
1761338370358690000,0.16468994140625,-0.589940407603979,0.2071646407075226,0.12412694960199296
1761338370368755000,0.1747548828125,-0.603260492426157,0.29602058963775635,0.052452893754933026
1761338370378820900,0.18482080078125,-0.6361807652533054,0.2178201824955642,-0.044782980181556194
1761338370388887000,0.194886962890625,-0.4570844272971153,-0.03041822687834501,-0.2491131098492071
1761338370398952000,0.204951904296875,0.05149287135004997,-0.232624952917546,-0.3013926197986118
1761338370409018000,0.21501806640625,0.67511343023777,-0.10364026108607649,-0.024168098708707838
1761338370419083000,0.2250830078125,1.2232394799411297,-0.0068697396390140055,0.23952406478151678
1761338370429149000,0.23514892578125,1.4415700961768627,-0.12701792180314658,0.27534460736112665
1761338370439214000,0.245214111328125,1.2136240948557853,-0.2970319586373865,0.2222707138973288
1761338370449280000,0.255280029296875,0.7846838120251893,-0.2799110202275216,0.35289924567937847
1761338370459346200,0.26534619140625,0.2363829902768135,-0.14103607189208267,0.5792970311777665
1761338370469410800,0.275410888671875,-0.4217348814964294,0.13429653450399637,0.7840747402161359
1761338370479477000,0.28547705078125,-1.0249982965320348,0.5633011147424578,0.9154591866657137
1761338370489542000,0.2955419921875,-1.38838503395617,1.1654201820485293,1.061233831387013
1761338370499608000,0.305608154296875,-1.4740630835026503,1.7706228945836424,1.1603745160315184
1761338370509673700,0.315673828125,-1.1598217775195836,2.1688296009764074,1.0925294256217777
1761338370519739000,0.32573876953125,-0.5616963098943233,2.3338557663954793,0.99281956278719
1761338370529805000,0.33580517578125,0.13046236316859722,2.293861755789816,0.9579838117275387
1761338370539870000,0.345869873046875,0.8940086946189403,2.1367007707878947,0.8490838765475899
1761338370549936000,0.35593603515625,1.5705898593217134,1.9224188454210758,0.6950184464082122
1761338370560001800,0.366001708984375,2.0635621770799157,1.8754560187160967,0.5575071876414119
1761338370570067000,0.37606689453125,2.2009166378498075,2.021093739184737,0.512886467083171
1761338370580132900,0.3861328125,2.1485826395004985,2.3464465140298008,0.45847734296023845
1761338370590198000,0.396197998046875,1.8584049306720494,2.6822525860890742,0.3645103346265852
1761338370600264000,0.406263916015625,1.3939824155718088,3.0043484049648046,0.32506635911911724
1761338370610328800,0.416328857421875,1.076796872830391,3.2486727096348997,0.1456793676532805
1761338370620395000,0.42639501953125,1.0398480751395225,3.344301952092349,0.03931318873465061
1761338370630461000,0.4364609375,1.3088169917225836,3.2854870672911405,0.040379648922383785
1761338370640526000,0.446526123046875,1.7196078698784112,2.7464327973157165,0.19778262598663568
1761338370650591700,0.456591796875,1.801646101617813,2.1578169163137675,0.7176029109209775
1761338370660657000,0.466656982421875,1.2842360926955938,0.9534566166266798,1.1035748435102402
1761338370670723000,0.47672314453125,0.5701683701634407,-0.36087037068903444,0.7816181408442556
1761338370680789000,0.4867890625,-0.3093944504737854,-1.2568094488486647,0.3031912119194865
1761338370690854000,0.49685400390625,-1.1872411148428916,-1.598791286933422,-0.26026392434090373
1761338370700919800,0.506919921875,-1.9389689982056617,-1.5718971425279975,-0.9251686797752976
1761338370710985000,0.51698486328125,-2.476138769608736,-1.2917154886655509,-1.265113751335442
1761338370721051000,0.52705078125,-2.537577280911803,-1.0993899590410292,-1.3586132882878184
1761338370731116000,0.537115966796875,-2.4990228015899656,-1.3311409056030212,-1.484444192263484
1761338370741182000,0.547181884765625,-2.4573475598990915,-1.7101031055606901,-1.7497554631218313
1761338370751248000,0.557247802734375,-2.3197867629021407,-1.7937012800931929,-2.0582143863111733
1761338370761313000,0.56731298828125,-1.9186551089733839,-1.7920085047006606,-2.509105804187059
1761338370771379000,0.57737890625,-1.5027818129867314,-2.200463779515773,-3.06110898758471
1761338370781443800,0.58744384765625,-1.3559241953343153,-2.996324088463187,-3.4444577320635315
1761338370791509800,0.597509765625,-1.2464163573890923,-3.811401869708299,-3.105781365264952
1761338370801576000,0.607575927734375,-0.9172305802524089,-4.417357592567801,-1.7527321408450602
1761338370811641000,0.61764111328125,-0.5723258404582738,-4.584676983490586,-0.14589359492585063
1761338370821707000,0.62770703125,-0.224766786763072,-4.548410615105927,1.18737708924748
1761338370831772000,0.63777197265625,-0.4393032714128494,-3.8941742609411474,1.4190053592778742
1761338370841837800,0.647837890625,-1.8899340414017438,-2.4037232294782993,0.7311263362955301
1761338370851904000,0.657904052734375,-3.134373545759916,-0.9646953651301562,0.07225055882707238
1761338370861969000,0.667968994140625,-3.2611844006836415,-0.3373101930119097,-0.38388212070316075
1761338370872035000,0.67803515625,-2.8289427382200953,-0.5829269486453383,-0.8992642770595848
1761338370882100000,0.688099853515625,-2.1493056930780408,-0.9330692237667739,-1.490076352931559
1761338370892166000,0.698165771484375,-1.6563760454177856,-0.6655713295843452,-1.6341624600440263
1761338370902231000,0.70823095703125,-1.027349828094244,0.08163286580890416,-1.4516846629559992
1761338370912297000,0.718296875,-0.07849310647845267,0.40448001450859006,-1.1199774045176802
1761338370922363100,0.728363037109375,0.7306172907948494,0.5063019010610879,-0.6490116052538156
1761338370932427800,0.738427734375,1.2447872948825358,0.3604346826855093,-0.06450169826596976
1761338370942494000,0.748493896484375,1.5586159284114838,-0.22217282474711536,0.4837943742420524
1761338370952559000,0.75855908203125,1.736484770399332,-0.46373168329186737,0.42706082575954496
1761338370962624800,0.768624755859375,1.597773049801588,-0.2900851351741701,-0.07632401881106197
1761338370972691000,0.77869091796875,1.3591197765052319,-0.017865327036380767,-0.6652838178798556
1761338370982755800,0.788755859375,1.0604448729664087,0.2595028037752956,-1.2221725813619793
1761338370992822000,0.798822021484375,0.7512929990768432,0.5191307683002203,-1.7127873762086032
1761338371002886700,0.80888671875,0.5021007961094379,0.6578130436077714,-2.137248906189948
1761338371012952800,0.818952880859375,0.43886312642991543,0.6527401973228901,-2.232512968596816
1761338371023018000,0.82901806640625,0.871972219377756,0.312911664814502,-1.9808888623073695
1761338371033084000,0.839083984375,1.4512281513601542,-0.3266423762641847,-1.6712508123360574
1761338371043149800,0.84914990234375,1.7859452591389418,-0.7121205339871347,-1.718278667101264
1761338371053214700,0.859214599609375,1.5691028356343506,-0.25531682332754135,-2.0036977832257747
1761338371063281000,0.869281005859375,0.3622346447795629,0.11030402982421218,-1.9368420691795647
1761338371073345800,0.879345703125,-1.2936287749409674,0.15269706439562142,-1.8108594817735253
1761338371083412000,0.889411865234375,-2.3595780905425547,0.40378918270021674,-2.018690915826708
1761338371093477600,0.8994775390625,-2.470064418131113,0.4986714061826467,-1.4760427130125462
1761338371103542800,0.909542724609375,-1.7756752095371484,0.12633118164800106,-0.8606924082115293
1761338371113609000,0.91960888671875,-1.0997405260443687,-0.7014655036557466,-0.6344606634624302
1761338371123673900,0.929673828125,-0.7969821525841951,-1.4011369635015725,-0.6103628717772662
1761338371133739800,0.93973974609375,-1.341094290471077,-1.2878915464632212,-0.30565760203301906
1761338371143805700,0.9498056640625,-2.116086145043373,-0.9418052687343209,0.18263970965147017
1761338371153870800,0.959870849609375,-2.2896552440106865,-0.776843181527406,0.3789610309138894
1761338371163936800,0.969936767578125,-2.041213567149639,-0.5880440724633633,0.05875087965428829
1761338371174002000,0.980001953125,-1.4431874682456254,-0.04808583938553929,-0.30099954709410665
1761338371184067800,0.99006787109375,-0.6608464199542999,0.7727611729107796,-0.20814561456888914
1761338371194132700,1.0001328125,-1.3967185625374317,2.070845027564466,0.30947131510227915
1761338371204199000,1.010198974609375,1.3500076647669077,-1.1674730229251087,-0.13511048123538494
1761338371214264800,1.020264892578125,2.0975100393891335,0.6145651457726955,-0.7076847434967756
1761338371224329700,1.030329833984375,0.7796586773395537,3.4550656353175637,-1.2559870265498756
1761338371234395600,1.040395751953125,-0.4963631292402744,4.635501161798834,-2.377979131890833
1761338371244460800,1.050460693359375,-2.9331460400164127,4.08571536218971,-3.180895935221016
1761338371254527000,1.06052685546875,-5.103656433686614,1.8846739289164542,-3.2146146649494765
1761338371264593000,1.070593017578125,-3.9188784940868615,0.9064365067765117,-3.366258055573702
1761338371274657800,1.08065771484375,-2.6023382146358487,0.006898819603025913,-2.3857915592074392
1761338371284723700,1.0907236328125,-1.5492191545128822,0.12698445792496205,-1.5490297694206236
1761338371294788900,1.100788818359375,-0.39268414357900616,1.179976384536922,-1.9672151417419312
1761338371304854800,1.110854736328125,0.5650859523326158,1.167872105245292,-3.494560318098962
1761338371314921000,1.1209208984375,1.067781207203865,1.4813827588662505,-3.065795684096217
1761338371324985900,1.13098583984375,0.6836708307027817,1.752611144813895,-1.979021314869821
1761338371335051800,1.1410517578125,0.5497317313343286,1.867133888311684,-1.2355299294546245
1761338371345117000,1.151116943359375,0.2753957347601652,1.7898384671851992,-0.7723957005992531
1761338371355182800,1.161182861328125,0.020160744497179982,1.5249740633115172,-0.25596710392981764
1761338371365247700,1.171247802734375,-0.15657704763412475,1.5101201930508017,-0.06084609836786985
1761338371375313700,1.181313720703125,-0.053774844807386396,1.5298285176053643,-0.2708382175862789
1761338371385379800,1.1913798828125,-0.22891046243906019,1.2752365014210343,-0.7955904059648513
1761338371395445000,1.201445068359375,-0.3509539568305015,1.1783113739341498,-1.3890759388297795
1761338371405511000,1.211510986328125,-0.8084469649285078,1.3415128081440926,-2.377267184229195
1761338371415575800,1.221575927734375,-1.3146008358210324,1.8792419669955969,-2.775906729081273
1761338371425641700,1.231641845703125,-1.4717857862204313,2.1247925985902545,-2.786388083346188
1761338371435707000,1.241706787109375,-1.5734370654463767,1.99045573207587,-2.791622769129276
1761338371445772800,1.251772705078125,-1.6652485031813382,2.1082152655377984,-2.8350483616188167
1761338371455839000,1.2618388671875,-1.6394290022701024,2.299761042961478,-2.5793191580981016
1761338371465903900,1.27190380859375,-2.4111679925262925,2.2800804831966754,-2.327712295204401
1761338371475969800,1.2819697265625,-3.0351053622782227,1.9417437236160038,-2.275514490455389
1761338371486035000,1.292034912109375,-3.4202836602717634,1.9898285400882363,-2.7321523430287837
1761338371496100900,1.302100830078125,-3.711317109146714,2.0920859685137865,-3.815298584885895
1761338371506166800,1.312166748046875,-3.987716467991471,2.1474135957211256,-4.481540141882002
1761338371516231700,1.322231689453125,-4.317913467997312,2.3958342297941444,-4.448199890077114
1761338371526297900,1.3322978515625,-4.164388793671131,2.767963368861377,-4.098399779456853
1761338371536363000,1.342363037109375,-2.900069699844718,2.8239652420684695,-2.9276743306070565
1761338371546429000,1.352428955078125,-1.0458557911217212,2.4163003869786857,-1.6719231586396692
1761338371556494600,1.36249462890625,0.09128770612180233,2.3672438028648495,-0.5654580005154013
1761338371566559700,1.372559814453125,0.4438309779703617,2.2013798714473842,1.5486539218455553
1761338371576626000,1.3826259765625,1.4894149664133787,1.3161286299102009,2.04498811725229
1761338371586690800,1.39269091796875,4.230440351727605,2.3972801908187567,1.0305907097116112
1761338371596756700,1.4027568359375,6.848661779671907,2.566740247032046,-0.8520403152003884
1761338371606822000,1.41282177734375,5.487538846650719,1.2022558747537433,-1.815372429153323
1761338371616887800,1.4228876953125,-0.5040525146991014,1.5107470927774904,-0.7154138764441013
1761338371626953700,1.43295361328125,-6.961779040285944,-0.557888076717779,-0.724957657597959
1761338371637019000,1.443018798828125,-2.8781711717694995,0.8323439002793281,-1.9528722897432744
1761338371647084800,1.453084716796875,-0.8291670968741178,2.6984058485105633,-1.8703363376148043
1761338371657149700,1.463149658203125,-5.968506838360429,5.201606520307064,-3.2259777704849837
1761338371667216000,1.4732158203125,-3.7661715658843513,5.448696782559156,-3.1852725428700444
1761338371677281800,1.48328173828125,-2.789982016184926,4.577230174615979,-0.7153297052919865
1761338371687346700,1.4933466796875,-2.3055109847903252,3.398797804650664,1.2322624520912766
1761338371697412600,1.50341259765625,-1.9326555772751568,3.0107959736689924,1.737513382794708
1761338371707477800,1.513477783203125,-0.8990496113955974,3.1321777892813083,1.4847782465234398
1761338371717544000,1.5235439453125,0.20919746170938014,3.4663647357061502,1.3986489460781215
1761338371727608800,1.53360888671875,0.7384405317664146,3.7407851956933733,1.632804177302867
1761338371737674800,1.5436748046875,0.8750818758308887,3.7081855331227183,2.200997886392474
1761338371747740700,1.55374072265625,0.9281453574985266,3.3358564875692127,2.728706586489081
1761338371757805800,1.563805908203125,1.288799455088377,2.8168817135483026,2.834384052491188
1761338371767871700,1.573871826171875,1.555551280143857,2.47713771751821,3.06409238730967
1761338371777936600,1.5839365234375,1.7119190689414738,2.179616075667739,3.1495705303698776
1761338371788002800,1.5940029296875,1.991391843882203,1.8145142048887908,2.836922631058097
1761338371798068700,1.60406884765625,2.122753786239028,1.6103820637449622,2.638787830632925
1761338371808134000,1.6141337890625,2.5716484773397443,1.2743811997659504,2.6546932557731866
1761338371818199800,1.62419970703125,3.259672242555022,0.6080393972657621,2.772288246323168
1761338371828264700,1.6342646484375,3.6398458641290663,0.02449073652550578,2.6915146276921034
1761338371838330600,1.64433056640625,3.6138282102972266,-0.11069646320790051,2.358491318219155
1761338371848395800,1.654395751953125,3.081243428596854,0.05167041987404227,1.9204893386632202
1761338371858462000,1.6644619140625,2.0876240206688643,-0.18488982666581869,1.3948893012836574
1761338371868527900,1.67452783203125,1.0518255131810903,-0.7997317435532808,1.2411337408110499
1761338371878592800,1.6845927734375,0.581063273665309,-1.2860818666927516,1.0333107092600315
1761338371888658700,1.69465869140625,0.40841538119614124,-1.484163183365017,0.7874974081411957
1761338371898723800,1.704723876953125,0.13771394173204898,-1.547166021375358,0.5637183172412217
1761338371908789800,1.714789794921875,-0.05453998396098613,-1.5783337514467537,0.5026485661853105
1761338371918856000,1.72485595703125,-0.10579203229248522,-1.6992524795919657,0.5810812477134167
1761338371928920800,1.7349208984375,0.13696458466947078,-2.1707814656965434,0.5090106485631316
1761338371938986800,1.74498681640625,0.41287703678011894,-2.645988555791974,0.2152183294340968
1761338371949052000,1.755052001953125,0.0978986486941576,-3.1744851913958785,-0.5464418229434639
1761338371959117800,1.765117919921875,-0.5580500623464584,-3.6571003657907246,-1.2007088645074515
1761338371969182700,1.7751826171875,-1.2092378425955772,-4.635832293449342,-2.363115324757993
1761338371979248600,1.78524853515625,-1.4796236402392386,-7.449182033479214,-4.236243192787468
1761338371989314800,1.795314697265625,-1.8942910675674676,-8.453684654471278,-5.435067485657334
1761338371999380000,1.8053798828125,-2.5015344921499487,-4.119876282727718,-4.497290668721496
1761338372009446000,1.81544580078125,-2.9118232660025356,0.7842836337264627,-3.1678444382071493
1761338372019510800,1.8255107421875,-3.2969548022449016,3.3258363210752604,-1.8226994110405443
1761338372029576700,1.83557666015625,-3.0320529889702796,3.1568074958860874,0.40936208746172487
1761338372039643000,1.845642822265625,-1.962478468608856,2.227521443919837,2.635148597347736
1761338372049707800,1.855707763671875,-0.5622334855109453,2.073623844628036,3.8501793441310523
1761338372059774000,1.86577392578125,0.45650633514821526,1.9702710221812128,3.8144311544016003
1761338372069838800,1.8758388671875,0.8004290781676768,1.6094117574080824,3.4062063273414966
1761338372079904800,1.88590478515625,0.5438099400699138,1.1499877812474966,2.7848335473805665
1761338372089970000,1.895969970703125,0.29047347690463066,0.8924665066782385,1.952764737715572
1761338372100035800,1.906035888671875,0.4164765225768089,0.8384945318635553,1.1998684681605547
1761338372110101800,1.916101806640625,0.8920353487193584,0.8014427121896296,0.5275699492130428
1761338372120166700,1.926166748046875,1.3680723137676716,0.9340704366985708,-0.04026568542020395
1761338372130232800,1.93623291015625,1.4523001645058393,1.4155968660086393,-0.53627764486894
1761338372140298000,1.946298095703125,1.4788275214254856,1.8416320750474928,-0.8838041114687919
1761338372150364000,1.956364013671875,1.4473065940022467,1.7413213967755437,-0.9692438222147524
1761338372160429800,1.966429931640625,1.2633294982671737,1.2775050308749079,-1.0939710027322171
1761338372170494700,1.97649462890625,0.9379664942890406,0.8458608959130942,-1.3335475283533333
1761338372180561000,1.986560791015625,0.408762587198615,0.32360154726356266,-1.784700519774854
1761338372190625800,1.996625732421875,-0.27684885617792604,0.08077833133880048,-2.179235551917553
1761338372200691700,2.006691650390625,-1.0983201378524303,-0.06356956851501018,-2.3136209337487816
1761338372210756900,2.0167568359375,-1.5051356826364992,-0.052440308267995714,-2.1497959608130155
1761338372220822800,2.02682275390625,-1.2749077078580855,0.21230887172818183,-1.8103214293740688
1761338372230889000,2.036888916015625,-0.9635346507877111,0.8388232523612678,-1.5261349237844346
1761338372240953900,2.046953857421875,-0.6456517734318972,1.1691175752617418,-1.0761730418436228
1761338372251019800,2.057019775390625,-0.38430151515901084,1.0713150804184377,-0.48800432008728384
1761338372261084700,2.067084716796875,-0.054713002440333364,0.7900348176643252,-0.08661828953865915
1761338372271150800,2.07715087890625,0.2844885572761297,0.6021603491645307,0.14281325589874758
1761338372281216800,2.087216796875,0.677254533919692,0.48460799217987804,0.15027065923260524
1761338372291281700,2.09728173828125,1.081043424358964,0.23591489784102884,0.06416134212939069
1761338372301347800,2.107347900390625,1.4664070157915352,-0.05221007970869541,0.08796332920575514
1761338372311412700,2.117412841796875,1.773861438113451,-0.17690003348831088,0.20599879353223366
1761338372321479000,2.12747900390625,1.9202882631331681,-0.18117847799248993,0.25289613551925866
1761338372331544800,2.137544921875,1.6668477550715206,-0.16220537237729876,0.17430738664660603
1761338372341609700,2.147609619140625,1.2863678440272808,-0.049759489952493456,0.13904236819106153
1761338372351675600,2.157675537109375,0.9454869529217481,0.07630543284160085,0.2515956656462513
1761338372361740800,2.16774072265625,0.6220066939502954,-0.0882759936178103,0.26144376350892706
1761338372371807000,2.177806884765625,0.1747615236222744,-0.601704750884138,0.09143461291235871
1761338372381871600,2.18787158203125,-0.1870002429485321,-0.9226623229775577,-0.03262466001459397
1761338372391937800,2.197937744140625,-0.44367140349447726,-0.8339540388897061,0.009655050375452265
1761338372402003700,2.208003662109375,-0.45864626978635786,-0.39505565848331897,0.8951985619906335
1761338372412068900,2.21806884765625,-0.2041010153532028,-0.9426474917121231,0.9789755271561443
1761338372422134800,2.228134765625,-0.16140870557427406,-2.1050459878519177,-0.12072916038986295
1761338372432199700,2.23819970703125,-0.7310311322927474,-2.47116127345711,-2.0423599607057867
1761338372442265900,2.248265869140625,-1.0165069470405579,-1.4016953280366957,-2.677993759600818
1761338372452330800,2.258330810546875,-1.1074521233350039,-0.5477791359618306,-2.2087692510463297
1761338372462397000,2.26839697265625,-1.1611778683036564,-0.9687147568393498,-1.7189024980880319
1761338372472462800,2.278462890625,-1.2567892828434706,-1.3619174443997442,-1.4816773578986524
1761338372482527700,2.28852783203125,-1.399341896778345,-1.1613935568809508,-1.351577398301661
1761338372492593700,2.29859375,-1.54047646060884,-1.065802308346331,-1.2607593555182217
1761338372502658800,2.308658935546875,-1.9244763624727725,-1.2017893532205373,-1.5041191990703344
1761338372512725000,2.31872509765625,-2.6801263877153394,-1.1073781813159584,-1.7038196413770317
1761338372522791000,2.328791015625,-3.6381665327399966,-1.202555223026499,-1.88021972598657
1761338372532855800,2.338855712890625,-3.6755081291407343,-0.9760629276450723,-2.2757108898103238
1761338372542921700,2.348921630859375,-2.908720623812079,-0.8134631125900894,-2.4363307830944656
1761338372552987000,2.35898681640625,-1.9309423436164854,-0.3924784649390727,-2.03820430233106
1761338372563052800,2.369052734375,-1.154664540886879,0.4178852203309536,-1.2184204622868449
1761338372573117700,2.37911767578125,-0.713017921218276,0.8984425854131579,-0.2642095566941425
1761338372583184000,2.389183837890625,-0.6656751552850008,0.9796825794469565,0.4924233055733144
1761338372593249800,2.399249755859375,-0.5928478194832801,1.2996721467584371,0.7474791398771107
1761338372603315000,2.40931494140625,-0.6104717389792204,1.6629273667573927,1.2000516427077352
1761338372613380900,2.419380859375,-1.072273842447996,1.439211404221505,1.8554495879977941
1761338372623445800,2.42944580078125,-1.3691981029272078,0.9127661481894552,2.2993565538138148
1761338372633511700,2.43951171875,-1.476092543503642,0.8138754927832633,2.4424885750718413
1761338372643577900,2.449577880859375,-1.7458043874084948,0.9349354560300708,2.5592995756372807
1761338372653643000,2.45964306640625,-1.9484692324787378,1.249938394035399,2.7196444513723255
1761338372663709000,2.469708984375,-1.9369477215111255,1.6656373563684521,2.8690391862869262
1761338372673773800,2.47977392578125,-1.7995435763806105,1.9913550190031528,2.821118035943806
1761338372683839700,2.48983984375,-1.376889241951704,2.3564036982901393,2.5602994003295896
1761338372693906000,2.499906005859375,-0.5979308218359947,2.7239409795224665,2.056047125274688
1761338372703970800,2.509970703125,0.3910924904733896,2.8988889656275507,1.2523695667050778
1761338372714036700,2.52003662109375,1.4602788883000613,2.592041569288075,0.11745897961277514
1761338372724102000,2.530101806640625,2.5149843408316372,1.6782066228233277,-1.125683580270037
1761338372734167800,2.540167724609375,3.529939382255077,0.5314563256597146,-2.2497779916524885
1761338372744233000,2.55023291015625,4.286799367809295,0.1729955368630588,-3.2259681258738038
1761338372754299000,2.560298828125,4.365937786453962,0.47693961297646165,-3.7922979407876727
1761338372764364800,2.57036474609375,3.926386093237996,0.5576453540030867,-4.006364177577197
1761338372774429700,2.5804296875,3.242570301106572,0.5235827427404001,-3.7469302743196486
1761338372784495900,2.590495849609375,2.6868326073557136,1.1509151982907204,-3.6182784677043554
1761338372794561000,2.60056103515625,1.8257617212206123,1.419795486742258,-3.050942398357391
1761338372804626700,2.610626708984375,0.7835217825084925,1.1456379154749214,-1.9467526378192006
1761338372814692600,2.620692626953125,0.08565759128034114,1.2665212800458072,-0.934460385864228
1761338372824757800,2.6307578125,-0.18152561092972755,1.9279054601386187,0.05789721283386461
1761338372834824000,2.640823974609375,-0.513038954231143,2.433852556412667,1.0216777738071978
1761338372844888800,2.650888916015625,-1.224573943415284,2.4082585348203778,1.7047228738270699
1761338372854954800,2.660954833984375,-2.0030770209789277,2.1301779448904097,2.076820887103677
1761338372865020000,2.67102001953125,-2.3613293181240556,1.9492698813371359,2.0544164553329347
1761338372875085800,2.6810859375,-2.325193005859852,1.9048159687131643,1.7709861749380826
1761338372885151700,2.69115185546875,-1.8160083889693022,1.7609703923583029,1.338650988972187
1761338372895216600,2.701216552734375,-0.9948457348525523,1.347745711184293,0.9994506713647395
1761338372905282800,2.71128271484375,-0.44859833850264547,1.0098992193385958,0.829368537730351
1761338372915347700,2.72134765625,0.019421324306726453,0.7186058043532073,0.5222918626796453
1761338372925414000,2.731413818359375,0.6016875440210103,0.4384188167285174,0.09006446620346978
1761338372935479800,2.741479736328125,1.1678262202769518,0.29372013067565855,-0.23564972583251073
1761338372945544700,2.751544677734375,1.7401830403953789,0.0742260236185044,-0.6358049176782369
1761338372955611000,2.76161083984375,2.1459832706570623,-0.20830117045678198,-1.0682825077895075
1761338372965675300,2.77167529296875,2.3503426446855067,-0.3730640818297863,-1.434854378055781
1761338372975741400,2.781741455078125,2.3531781603723765,-0.46127362261526283,-1.707859418287128
1761338372985806600,2.791806640625,2.1196809546649455,-0.6178157450664788,-1.8915414765983818
1761338372995872300,2.801872314453125,1.6567191597670317,-0.7567072792105376,-2.095513604874909
1761338373005938200,2.811938232421875,1.2167647309690712,-0.8201394485488533,-2.155247942608595
1761338373016003300,2.82200341796875,0.7415110252529382,-0.9344218804847448,-2.1436238480493426
1761338373026069500,2.832069580078125,0.30216157661080356,-1.1069157514359802,-2.0982406917512417
1761338373036134100,2.842134033203125,-0.10068857167363167,-1.1587998140607028,-2.151371977958083
1761338373046200300,2.852200439453125,-0.38232992282509803,-1.128402776100859,-2.2446832988619803
1761338373056266200,2.862266357421875,-0.5407616584151983,-1.1831178974330425,-2.346311051081866
1761338373066331400,2.872331298828125,-0.5667109231859445,-1.3445149125695228,-2.4286161170639096
1761338373076397300,2.882397216796875,-0.6331693084776401,-1.5307488473206758,-2.4743232446193693
1761338373086462200,2.892462158203125,-0.7786205664634704,-1.699663983002305,-2.3364183103598655
1761338373096528400,2.9025283203125,-0.9187895001322031,-1.7560612852677702,-2.0275909922495483
1761338373106593300,2.91259326171875,-1.1159651001363993,-1.7774463108628986,-1.763995293137431
1761338373116659500,2.922659423828125,-1.3337614633649586,-1.88994105566442,-1.621290703511238
1761338373126725400,2.932725341796875,-1.5247265182912348,-1.9066940375447272,-1.572851520643383
1761338373136790300,2.942790283203125,-1.6635539742231369,-1.7582886059284208,-1.449557295538485
1761338373146856200,2.952856201171875,-1.7668612039625644,-1.5027990563824771,-1.125117324689403
1761338373156921300,2.96292138671875,-1.9249299514591693,-1.2738766112446784,-0.7965699185214936
1761338373166987500,2.972987548828125,-1.9736340688735245,-1.059872114579752,-0.5443806526299566
1761338373177053400,2.983053466796875,-1.8577590339839458,-0.8816277903430163,-0.26991799746882167
1761338373187118300,2.993118408203125,-1.557414151406288,-0.4258622636247426,-0.19311229608803987
1761338373197184300,3.003184326171875,-1.2131149762898683,-0.20350326865576207,-0.2476503072876483
1761338373207249400,3.01324951171875,-0.7232061377555131,-0.27459698559790846,-0.3383329967210069
1761338373217315300,3.0233154296875,-0.1912088005542755,-0.08951963700335472,-0.2553273447215557
1761338373227380200,3.033380126953125,0.40977790172100065,0.6382013112954795,-0.1449915315195918
1761338373237446400,3.0434462890625,0.8858674737393856,1.4211302424773573,0.12008538259360939
1761338373247512300,3.05351220703125,0.7866150723487139,1.5307291197068988,0.5318825517151504
1761338373257577500,3.063577392578125,0.4175894522547722,1.3501574485011398,0.798662653017044
1761338373267643400,3.073643310546875,-0.33694472070038317,0.9061183807380497,0.9814048001296818
1761338373277708300,3.083708251953125,-0.9627923079878091,0.5329009349774569,0.9135393245190382
1761338373287774200,3.093774169921875,-1.562322966235876,0.4253066755685955,0.7913771721839904
1761338373297840400,3.10384033203125,-2.158971931567788,0.48914128822796044,0.6619121494896709
1761338373307905500,3.113905517578125,-2.663334827390313,0.6380934670068323,0.6100369642911478
1761338373317971500,3.123971435546875,-2.8917946234524248,0.9120922675158828,0.5635913298606873
1761338373328036400,3.134036376953125,-3.0820465616732835,0.8740225760363042,0.39753523687198755
1761338373338102300,3.144102294921875,-3.1842320939064024,0.5039772209731862,0.1953396167486906
1761338373348167400,3.15416748046875,-2.199446565297246,0.6892434432033449,0.08796126511283218
1761338373358233300,3.1642333984375,-0.5334031123459338,1.0454979906599968,0.10481029124613851
1761338373368299300,3.17429931640625,1.0855834058761595,1.261370034762472,-0.0209149238653481
1761338373378364400,3.184364501953125,2.54582663834095,1.3835630206272005,-0.08228552103135735
1761338373388430300,3.194430419921875,3.432252330484986,1.3953046040862798,-0.0674109733087942
1761338373398495500,3.20449560546875,3.935936596393585,1.3775515052527187,0.07847268474493176
1761338373408561400,3.2145615234375,4.206473200684786,1.2548624064341187,0.3552799302708357
1761338373418627300,3.22462744140625,4.407455207234621,1.019803577433154,0.6491038135819137
1761338373428692200,3.234692138671875,4.329922470220923,0.7038578786849975,0.6819995364896952
1761338373438758400,3.24475830078125,4.019868094533682,0.4400310011655092,0.46861134509220714
1761338373448823600,3.254823486328125,3.441763670673966,0.2048117574384436,0.19888450454762205
1761338373458889200,3.26488916015625,2.7838375220805407,0.02121628143209964,0.04805248510520905
1761338373468954400,3.274954345703125,2.2017080804884435,-0.024209599762875584,-0.0643591890893178
1761338373479020300,3.285020263671875,1.7364906156182287,-0.025475984703190624,-0.11337364652790129
1761338373489086500,3.29508642578125,1.2997504726916551,-0.1237174554856494,-0.07762010476989671
1761338373499151400,3.3051513671875,0.8931786735355853,-0.19792608957793562,0.14097305312585084
1761338373509217300,3.31521728515625,0.3384188849061727,-0.24335896676927804,0.44055349066965277
1761338373519282400,3.325282470703125,-0.3795966984689235,-0.20844399472726508,0.8175096845671534
1761338373529348400,3.335348388671875,-1.138610062664747,0.03494494705516845,1.1222498794943094
1761338373539414500,3.34541455078125,-1.7200848397403954,0.3047538946589455,1.251999125957489
1761338373549479200,3.355479248046875,-1.9266969611316918,0.5393220540661364,1.2354650475248694
1761338373559545300,3.36554541015625,-1.7794401150286197,0.6470175088271498,1.024824035943672
1761338373569610200,3.3756103515625,-1.4570780464321373,0.35224757683761415,0.8268143962681292
1761338373579676400,3.385676513671875,-1.091461357998848,-0.06460925029367208,0.5040265765402466
1761338373589741600,3.395741455078125,-0.6549047549456357,-0.29594226370453836,-0.02292319494783878
1761338373599807200,3.40580712890625,-0.19267068980038166,-0.5123062560424209,-0.3618591990632936
1761338373609873400,3.415873291015625,0.31971769156754015,-0.7024441394295543,-0.3909398571949452
1761338373619938300,3.425938232421875,0.8646692028880119,-0.8311426347307861,-0.2184006492646411
1761338373630004500,3.43600439453125,1.2123328860014677,-0.887273321949318,-0.019906303945230318
1761338373640069000,3.446069091796875,1.2948802363067864,-0.9096825760256498,0.16932757067373022
1761338373650135300,3.45613525390625,1.1019447580903767,-0.8920305994790046,0.3723872785467654
1761338373660201200,3.466201171875,0.6399392410039901,-0.8496417296260594,0.5302838478142395
1761338373670266400,3.476266357421875,-0.07798574147820472,-0.7484529533453286,0.4927158587791025
1761338373680332500,3.48633251953125,-0.6265051744133233,-0.7992547736912965,0.5776344317277893
1761338373690397200,3.496397216796875,-0.9137328012645244,-0.8513985101655125,0.6447228220187127
1761338373700463400,3.50646337890625,-0.9719897599220275,-0.8355743335679173,0.518889433825016
1761338373710528300,3.5165283203125,-0.7513321620434522,-0.8879860733285546,0.3836386673361063
1761338373720594400,3.526594482421875,-0.4343406805694103,-1.0639677863955497,0.23004304666556416
1761338373730660400,3.536660400390625,-0.2493015085607767,-1.356361125446856,0.06091772969882003
1761338373740725200,3.546725341796875,-0.33023207131922244,-1.6895377257853745,-0.06431102539892308
1761338373750791400,3.55679150390625,-0.5620376706779003,-2.010411017128825,-0.15930497476067393
1761338373760856300,3.566856201171875,-0.6906026757925748,-2.1647797410637137,-0.21791629981379954
1761338373770922500,3.576922607421875,-0.6418395216673612,-2.182028982028365,-0.2819601165107451
1761338373780988400,3.586988525390625,-0.48845805520415303,-2.178046196002513,-0.3285900032006204
1761338373791053300,3.59705322265625,-0.3977770828038454,-2.178944167755544,-0.34414157340191304
1761338373801119200,3.607119140625,-0.46514381511211395,-2.2215067136749624,-0.32958394614141434
1761338373811184400,3.617184326171875,-0.653046559858322,-2.207112716010958,-0.5715112726723774
1761338373821250600,3.62725048828125,-0.7785872487157582,-2.354790564005077,-1.197964168909192
1761338373831315200,3.637315185546875,-0.5143669879645109,-2.8298770964607596,-1.950132489515841
1761338373841381400,3.64738134765625,-0.2786719799518585,-2.955115295240283,-2.2741586919322607
1761338373851447300,3.657447265625,-0.5009036952793597,-3.0893016473680732,-2.3450882312886416
1761338373861512400,3.667512451171875,-0.9773515792161226,-3.0843852337539195,-1.9973269330196082
1761338373871578400,3.677578369140625,-1.315216921892762,-2.6675094827264547,-1.7005542098402977
1761338373881643300,3.687643310546875,-1.5944015275418757,-2.0234363567881286,-1.5241308904856443
1761338373891709400,3.69770947265625,-1.8236860839903353,-1.3300780986770986,-1.1606824129369109
1761338373901775400,3.707775390625,-1.7652619520723818,-0.41519042828902597,-0.7022261858299375
1761338373911840500,3.717840576171875,-1.423855575788021,0.5419477994598448,-0.1918852385111153
1761338373921906400,3.727906494140625,-1.048826915886998,0.9653311788156628,0.523423971982114
1761338373931971300,3.737971435546875,-1.0329068776994943,0.9192879511736333,1.3570803796321154
1761338373942037200,3.748037353515625,-1.5920201853632927,1.0387345609396696,2.151540028001368
1761338373952103400,3.758103515625,-2.5757962446689606,0.8692975933410226,2.6460411627620455
1761338373962168600,3.76816845703125,-3.249826555845141,0.3931771877929568,2.778273458212614
1761338373972235300,3.7782353515625,-3.516716912588477,0.43575873067378995,2.7808067760825157
1761338373982300200,3.788300048828125,-3.3273750749498605,0.8520920453876256,2.7413378122642635
1761338373992366000,3.798365966796875,-3.014496874013543,1.068972755075991,3.019254589934647
1761338374002431200,3.80843115234375,-2.802348161283135,1.0039544125247746,3.4101080109551547
1761338374012497200,3.8184970703125,-2.6080051543563605,1.0438353181447833,3.4631118713900446
1761338374022563300,3.828563232421875,-2.37114987039268,1.672656733611226,3.4200486824721095
1761338374032628000,3.8386279296875,-1.8526392067521809,2.170258756996691,3.182011787508428
1761338374042694100,3.848694091796875,-1.2147469614058732,2.37093564312011,2.7875445599049327
1761338374052759300,3.85875927734375,-0.5591320123642682,2.445380204860121,2.3370013709448276
1761338374062825200,3.8688251953125,0.0965349591255188,2.455744800877571,1.780526741221547
1761338374072891000,3.878890869140625,0.7095324171900749,2.3302847760409113,1.2021279375251381
1761338374082956000,3.8889560546875,1.2389800699084996,2.106889277631044,0.6639613371044397
1761338374093022200,3.899022216796875,1.6924287710517645,1.736930176079273,-0.004600625663250684
1761338374103087000,3.909087158203125,2.0458324591219426,1.2178697696015237,-0.9875632496941834
1761338374113153300,3.9191533203125,2.441146951204538,0.8918996665757148,-2.167751304220408
1761338374123218200,3.92921826171875,2.9309014759600163,0.8323799214407801,-3.1176267013594505
1761338374133284000,3.9392841796875,3.1438696883797643,0.7227342824600637,-3.526652323408425
1761338374143350000,3.94935009765625,3.011886983776092,0.4016317854706198,-3.4794472123801707
1761338374153415200,3.959415283203125,2.652452783370018,0.09595098522510379,-3.092463910791278
1761338374163481000,3.969481201171875,2.170464216440916,-0.00832863321043551,-2.5701918487906457
1761338374173546000,3.9795458984375,1.573662106373906,0.07738978487905114,-2.007216605001688
1761338374183612200,3.989612060546875,0.8115963688701391,0.24563166094161568,-1.4454349549114702
1761338374193677300,3.99967724609375,0.0061047466158866874,0.4503861717674881,-0.8717544119086116
1761338374203743200,4.0097431640625,-0.676383596304059,0.7358991767205297,-0.3758550277225673
1761338374213808000,4.01980810546875,-1.1178010833919048,1.0078670559238643,0.047646342856576665
1761338374223874000,4.0298740234375,-1.0836141516298055,1.15976091417782,0.41286520021185275
1761338374233940200,4.039940185546875,-0.7138841826587915,1.156039774762839,0.6030753816502168
1761338374244005000,4.050005126953125,-0.09359247593283652,1.0287468354105949,0.6456375987760722
1761338374254071000,4.060071044921875,0.6166203247368336,0.8961473140828311,0.5400817133270204
1761338374264136200,4.07013623046875,1.2058709965109824,0.7276157708913087,0.31349892665054646
1761338374274202000,4.0802021484375,1.5786422328740357,0.4865419559171423,0.053263086759811264
1761338374284268000,4.09026806640625,1.802291413784027,0.26240378591381014,-0.2458608848539181
1761338374294333200,4.100333251953125,1.9318875155121087,0.16652487954422832,-0.5012845843557268
1761338374304399000,4.110399169921875,1.886988635599613,0.1009776908133179,-0.7274480131089687
1761338374314464000,4.120464111328125,1.7473960405141113,-0.023467129098810255,-0.8716858767170459
1761338374324530200,4.1305302734375,1.5325135189056396,-0.11575984754469244,-0.9552906271208077
1761338374334595300,4.14059521484375,1.1919447624891997,-0.18056272071432322,-0.9999258876610547
1761338374344661000,4.150660888671875,0.7370984695076942,-0.31151140609513966,-1.0636763291683047
1761338374354727000,4.160726806640625,0.32974282649755476,-0.45518907853718843,-1.1314170824207366
1761338374364792000,4.1707919921875,0.020707856985926625,-0.622959976087138,-1.2832542420513928
1761338374374858200,4.180858154296875,-0.1902852559685707,-0.8668500540584325,-1.4739835885256527
1761338374384923100,4.190923095703125,-0.25918109754025936,-1.1216609006252138,-1.6777052491724491
1761338374394989000,4.200989013671875,-0.21007132193446157,-1.323505442288518,-1.901805242589861
1761338374405055000,4.211054931640625,-0.11316694497466087,-1.4662033099129794,-2.0202232399605213
1761338374415120100,4.2211201171875,-0.062172670796513556,-1.6213918257981539,-1.9656234886363149
1761338374425186000,4.23118603515625,-0.14836743769347666,-1.7066846754193306,-1.779281125074625
1761338374435251000,4.2412509765625,-0.3130027040988207,-1.7088718102000653,-1.5453507886469364
1761338374445317000,4.251317138671875,-0.419150710222125,-1.7270092321760953,-1.2896772608362137
1761338374455383000,4.261383056640625,-0.5496773707985878,-1.828069413641095,-1.1425000558406113
1761338374465448200,4.2714482421875,-0.7227876200824975,-1.8123823074266314,-0.9262493876840918
1761338374475514000,4.28151416015625,-0.9137842391908169,-1.5389302540801464,-0.6181542563058435
1761338374485579000,4.2915791015625,-1.1333254002600908,-1.1652904912542552,-0.2896443143378012
1761338374495645000,4.30164501953125,-1.3025363040179014,-0.9207639420103281,-0.047012625230033876
1761338374505710000,4.3117099609375,-1.3689075955480337,-0.9193203921385109,0.10955231640776619
1761338374515776300,4.3217763671875,-1.3565391123622654,-1.0347004100527615,0.16905962218623607
1761338374525842200,4.33184228515625,-1.3443226048678159,-1.1376717589013279,0.19425704567637295
1761338374535907000,4.341906982421875,-1.3579489791601895,-1.106342116266489,0.1652320267220959
1761338374545973000,4.351972900390625,-1.2726152130067347,-1.0904859370954334,-0.10624709171676076
1761338374556038100,4.3620380859375,-1.0087953497499227,-0.9228378256749361,-0.41379199620056895
1761338374566104000,4.37210400390625,-0.5160615169227123,-0.43738245941810305,-0.4377786921940744
1761338374576170200,4.382170166015625,-0.1997919199824333,-0.23534104347582904,-0.3312173560295254
1761338374586235100,4.392235107421875,0.14431611647605896,0.2894690673687495,-0.29237918266179036
1761338374596301000,4.402301025390625,0.5325818590909243,0.8644058027114718,-0.12553427738295866
1761338374606366200,4.4123662109375,0.4972825821727514,1.169774066409096,0.21798578485343603
1761338374616432000,4.42243212890625,0.10602642557024955,1.3417318577222526,0.5136588031625375
1761338374626498300,4.432498291015625,-0.6163152043104171,1.1836741430763154,0.533094009864144
1761338374636563000,4.44256298828125,-1.3483242417246102,0.8350359158422798,0.39703883165717124
1761338374646629000,4.452629150390625,-2.062003257200122,0.55924767463319,0.3571510944375768
1761338374656695000,4.462695068359375,-2.7409739473879338,0.40535336327701804,0.3698083314368501
1761338374666760200,4.47276025390625,-3.2003421017080544,0.3094827132791281,0.36115861304588615
1761338374676826000,4.482826171875,-3.411985203003883,0.2600503181228414,0.4116333568619564
1761338374686891000,4.49289111328125,-3.1970483208596705,0.34000571570619936,0.38648532547149805
1761338374696957200,4.502957275390625,-2.4506185439050197,0.635633360503614,0.2878364429319277
1761338374707023000,4.513023193359375,-1.2363771939337254,0.8031800573762505,0.3797976278685033
1761338374717088300,4.523088134765625,0.1250333238571882,1.029870432613045,0.4518963571347296
1761338374727154000,4.53315380859375,1.402256907442212,1.4458499654531478,0.4876901395715773
1761338374737219000,4.543218994140625,2.456281391972303,1.7541523829065262,0.7140685993149876
1761338374747285200,4.55328515625,3.286893426957726,1.8385862776108084,1.078452458017692
1761338374757350100,4.56335009765625,3.7898108001470563,1.8038757603660225,1.3825545742370187
1761338374767416000,4.573416015625,4.082705366718769,1.7466582277588545,1.6987340086758136
1761338374777482000,4.58348193359375,4.145224074473977,1.5828955064043402,2.046267927929759
1761338374787547100,4.593547119140625,3.9166625716030596,1.2988903487309813,2.2720376081250606
1761338374797613000,4.603613037109375,3.5056600965231657,1.0649318091221154,2.1870677068479356
1761338374807678200,4.61367822265625,2.889910709401965,0.6938333282768726,1.9580640131674705
1761338374817744100,4.623744140625,2.079157221096754,0.3608648907963186,1.6488615781344473
1761338374827810000,4.63381005859375,1.3187614626318216,0.10890409989841282,1.5554399287238716
1761338374837875200,4.643875244140625,0.8248632622003554,0.014899540599924512,1.590351959890127
1761338374847941000,4.653941162109375,0.6827835264742375,0.1480193914407864,1.4661802212983368
1761338374858006000,4.664006103515625,0.8474012572228908,0.33847236865907904,1.1902932689551264
1761338374868072000,4.674072021484375,0.8824807539105415,0.10880725192781537,0.9850846576862037
1761338374878138000,4.68413818359375,0.4999105925887823,-0.4252984191969037,0.8478644177552312
1761338374888203300,4.694203369140625,-0.28626433477699753,-0.7307817606415599,0.6941244932431727
1761338374898269200,4.704269287109375,-1.4504682729035616,-0.8869292577520013,0.9186149472828954
1761338374908334000,4.714333984375,-2.5765438481658696,-0.9334334539692848,1.4711907429367304
1761338374918400000,4.72439990234375,-3.49546895737648,-0.5969140460088849,1.8342729444563388
1761338374928465200,4.734465087890625,-4.086496575695276,0.07074614561349153,1.780686900219321
1761338374938531000,4.744531005859375,-4.212428894218802,0.7520761122785509,1.5156864488758146
1761338374948597200,4.75459716796875,-3.740152158486843,1.1706930078849196,1.2745853440359234
1761338374958662100,4.764662109375,-2.7491514086246487,1.1103379809696228,1.065603643969074
1761338374968727300,4.774727294921875,-1.440873930606246,0.5640399504110217,0.6319183585684746
1761338374978792400,4.78479248046875,-0.0943470936924219,-0.21055450234152376,-0.15654197632074354
1761338374988858400,4.7948583984375,1.1719377472490071,-0.7380988056566565,-0.8991462036378681
1761338374998924300,4.80492431640625,2.081399447065592,-0.9099553285524249,-1.1950517885938285
1761338375008989400,4.814989501953125,2.5362568459630013,-1.0000509022802113,-1.164859698621556
1761338375019055400,4.825055419921875,2.802594829520583,-1.0495523075520992,-1.025108551973477
1761338375029120500,4.83512060546875,2.8194501027315853,-1.0822082303546368,-0.8670818169876933
1761338375039186200,4.845186279296875,2.5454747561633586,-1.0231270958326757,-0.7347397775523364
1761338375049252400,4.85525244140625,2.1515444119155407,-0.9495642122980207,-0.5602584591109305
1761338375059317200,4.865317138671875,1.7210457937270403,-0.9743692024044692,-0.3943164940211922
1761338375069383400,4.875383544921875,1.1670505597293377,-1.045175772968307,-0.278726559683308
1761338375079448600,4.885448486328125,0.5555599990963935,-1.0920851159203797,-0.12757161016315222
1761338375089514200,4.89551416015625,0.07813537908196448,-1.0668978484980762,0.08950272240117192
1761338375099579400,4.905579345703125,-0.32823300645649434,-1.10647071108222,0.30299773517400025
1761338375109645300,4.915645263671875,-0.6896282778024673,-1.1705373789317906,0.4606941422268748
1761338375119711500,4.92571142578125,-0.8729822732031345,-1.1920215540524572,0.5341535653870553
1761338375129776000,4.935776123046875,-0.8720862011462449,-1.1615540081396698,0.4828759442228824
1761338375139842300,4.94584228515625,-0.7733914336383342,-1.153884423359856,0.34588425235077735
1761338375149907500,4.955907470703125,-0.6397434261709452,-1.20094471908994,0.22450002558566629
1761338375159973400,4.965973388671875,-0.49083355216383934,-1.3014093458145857,0.11261186837516725
1761338375170039300,4.976039306640625,-0.3473170616328716,-1.4137018460422754,-0.06869264714978635
1761338375180104200,4.986104248046875,-0.3406587727874517,-1.6035907961696385,-0.46002398788034915
1761338375190170400,4.99617041015625,-0.37484804263710975,-1.8249089037835597,-0.8761790964830666
1761338375200235300,5.0062353515625,-0.3446633322536945,-1.9832830639675258,-1.147600082393363
1761338375210301400,5.016301513671875,-0.3101742026746273,-1.9907406864970922,-1.2373233887426554
1761338375220366300,5.026366455078125,-0.36802316505312915,-1.8465753766685724,-0.9730186645783483
1761338375230432300,5.036432373046875,-0.4326034815132618,-1.2176323806490748,-0.6674186379514634
1761338375240498400,5.04649853515625,-0.6790735660403967,-0.6341941945459694,-0.22751385698150842
1761338375250563300,5.056563232421875,-0.8827852898150682,-0.6126194185324013,0.23047380276564508
1761338375260629500,5.06662939453125,-0.7130968316733837,-0.6601009353492409,0.1639943929522298
1761338375270694100,5.076694091796875,-0.42066169930696484,-0.0013718728750944137,0.34699995850771664
1761338375280760300,5.08676025390625,-0.36811084333658217,0.4820804099310189,1.4989225072100758
1761338375290826200,5.096826171875,-0.6078378833442926,-0.19946086139716207,1.859886693662405
1761338375300891400,5.106891357421875,-1.2765437846273182,-0.7327932465944439,1.8406442330539226
1761338375310957300,5.116957275390625,-2.5242922674030064,-0.837104684940353,2.2821473525986073
1761338375321022200,5.127022216796875,-3.851209563961625,-0.6427586092736571,2.6195675818562507
1761338375331088400,5.13708837890625,-4.850375500100851,0.16391206669732927,2.915240380969643
1761338375341154300,5.147154296875,-5.542491503065825,1.1959254296232014,3.461057569208741
1761338375351219500,5.157219482421875,-5.718167218923568,1.7654763254754244,3.926095001336932
1761338375361285400,5.167285400390625,-5.2047208529353135,1.9307212482117115,4.142399372442067
1761338375371350300,5.177350341796875,-4.02377036266923,1.7515411774948237,3.9307416580989956
1761338375381416400,5.18741650390625,-2.4593396104991436,1.1853267325889318,2.9059505745768544
1761338375391481300,5.1974814453125,-0.9348112451285123,1.0670290736623107,1.5917662106022237
1761338375401547500,5.207547607421875,0.3332815220177173,1.2417317067041993,0.8792452791206539
1761338375411613400,5.217613525390625,1.2860977949142456,0.999418595726043,0.7858990330338478
1761338375421678300,5.22767822265625,1.9793927785307168,0.7317014327697455,0.8210320134744048
1761338375431744300,5.237744140625,2.5402193198531866,0.6254748815175145,0.7086985967144369
1761338375441809400,5.247809326171875,3.160429778036475,0.7411418996796012,0.6687602618187666
1761338375451875300,5.257875244140625,3.7634915330201384,0.7783229717563838,0.8570229259185492
1761338375461941200,5.267941162109375,4.178328471696377,0.8488862350836396,1.2710735365226864
1761338375472006400,5.27800634765625,4.373976131480932,1.093375521057099,1.7122655442915855
1761338375482072300,5.288072265625,4.380834911334515,1.2209120599068701,1.9817657912723718
1761338375492137500,5.298137451171875,4.0516725150734185,1.1117752472311258,2.085909179574996
1761338375502203400,5.308203369140625,3.470779921799898,0.9299230346955358,2.045611509847641
1761338375512268300,5.318268310546875,2.8320576553702352,1.0418699363559485,2.142542774814367
1761338375522334500,5.32833447265625,1.8555553864598273,1.1076784063715488,2.2989508956223723
1761338375532400400,5.338400390625,0.43966625950634475,0.9569554185278714,2.4467805731773375
1761338375542465500,5.348465576171875,-1.2763514769256115,0.8004885532699525,2.67876445171237
1761338375552531200,5.35853125,-2.985131663319468,0.7197270634680986,3.155380970214307
1761338375562596400,5.368596435546875,-4.16455888954103,0.9426294445987791,3.6546310530677437
1761338375572662300,5.378662353515625,-4.670899807438254,1.4526422559417784,3.8961189652681347
1761338375582728400,5.388728515625,-4.623284069782495,1.9862927671775221,3.795959678165614
1761338375592793300,5.39879345703125,-4.029069638121128,2.434935383213311,3.5174192156389354
1761338375602859300,5.408859375,-3.150194799748063,2.352463728492707,3.1804718645900487
1761338375612924400,5.41892431640625,-2.1375532959640027,1.7593708482071757,2.3609995016478003
1761338375622990300,5.428990234375,-0.8006944511055946,1.2687301882669328,1.1012689777206628
1761338375633055500,5.439055419921875,0.5926175178587436,0.9784463156502693,-0.05978263385482132
1761338375643121200,5.44912109375,1.6869190677195787,0.46558867280278354,-0.8638323136724532
1761338375653187300,5.459187255859375,2.3685347194582222,-0.054509022567141796,-1.327886433851719
1761338375663252500,5.46925244140625,2.6144635367155074,-0.3578459813665598,-1.5992684029258786
1761338375673318400,5.479318359375,2.344297519302368,-0.4516578356711194,-1.7307465190082787
1761338375683383600,5.489383544921875,1.859968526726961,-0.5004215377856046,-1.5716935827799141
1761338375693449200,5.49944921875,1.338630530706048,-0.45034748372491445,-1.0978489401441067
1761338375703515400,5.509515380859375,0.9306950419813395,-0.24318346407189964,-0.4501704101249575
1761338375713580300,5.519580322265625,0.5624105956435204,-0.06602518150620162,0.22713256604634224
1761338375723646500,5.529646484375,0.20110534066855906,0.24358822721419854,0.9397755895376205
1761338375733711400,5.53971142578125,0.010251929423213004,0.6599598463781178,1.458607740217447
1761338375743777300,5.54977734375,-0.07948036395013332,0.9501094250906258,1.8510551524311303
1761338375753842400,5.559842529296875,-0.17209551928341388,1.0562857074603438,2.2230295393280683
1761338375763908400,5.569908447265625,-0.2760124053537845,1.0850411156930029,2.551526311287284
1761338375773974500,5.579974609375,-0.4362935682028532,1.10391364701055,2.8310855954676866
1761338375784039200,5.5900390625,-0.6232300982654094,1.1615506471388042,3.0652143770769236
1761338375794105300,5.600105224609375,-0.7831400897145271,1.3074309441916643,3.3097768744170666
1761338375804170500,5.61017041015625,-1.0566776293873785,1.3767311287805437,3.389278865677118
1761338375814236400,5.620236328125,-1.3781652532368898,1.3369964997634292,3.2848394170373676
1761338375824302300,5.63030224609375,-1.5557576163709164,1.460786253300309,3.025783991703391
1761338375834367200,5.6403671875,-1.541540874969959,1.6613688852690158,2.613662449465692
1761338375844433400,5.650433349609375,-1.384358262658119,1.66729184557721,2.105355199931562
1761338375854498300,5.660498291015625,-1.152622221404314,1.3710203499183058,1.3822931468218564
1761338375864564500,5.670564453125,-1.0577619174927473,0.6263013224042951,0.46203174750618636
1761338375874630400,5.68063037109375,-1.0942208858400582,0.13871274351105092,-0.07478453428409994
1761338375884695300,5.6906953125,-0.9042027563750743,0.18214995337314902,-0.3149039346102625
1761338375894761200,5.70076123046875,-0.46014089225828647,0.36966406412795183,-0.4647160181540996
1761338375904826400,5.710826416015625,0.040136195555329324,0.4975154410805553,-0.4995413208849728
1761338375914892500,5.720892578125,0.4122527674019337,0.3552570973845198,-0.43142610829696054
1761338375924957200,5.730957275390625,0.6085942546695471,0.4146875933334231,-0.4506980141956359
1761338375935023400,5.7410234375,0.6952718366473912,0.7106117368593812,-0.37743250617235896
1761338375945089300,5.75108935546875,0.7829115416556597,0.7192830460276455,-0.13659165970385073
1761338375955154400,5.761154541015625,0.9312953459620475,0.5028021858444437,-0.10471607362404466
1761338375965220400,5.771220458984375,0.9199304868608713,0.8021031488597392,-0.02667904035001993
1761338375975286000,5.7812861328125,0.8709908071249723,1.346940970672667,0.44148748358413575
1761338375985352000,5.79135205078125,0.9273813873887061,1.5599473231457173,1.2038999886989592
1761338375995418000,5.801418212890625,0.8760194489419459,1.6279533762708305,1.9265828332327306
1761338376005483300,5.811483154296875,0.49243572666347024,1.7402013067044317,2.316003737232089
1761338376015549200,5.821549072265625,0.09061725951433182,1.826950638744235,2.4026593996390697
1761338376025614000,5.831614013671875,-0.22793957158029077,1.7966922786027193,2.495741295701265
1761338376035680000,5.841679931640625,-0.427474301931262,1.5449395774975418,2.8733357144370673
1761338376045745200,5.8517451171875,-0.5523223323494195,1.4321515488378702,3.148466076259315
1761338376055811000,5.86181103515625,-0.632569004496932,1.5341142321005463,3.1889506468608975
1761338376065877000,5.871876953125,-0.6184370187699795,1.658258059772104,3.0773484669849274
1761338376075942100,5.881942138671875,-0.4764882159471512,1.763653932353854,2.8663416177660226
1761338376086008000,5.892008056640625,-0.21110066498219965,1.833543899529427,2.685763516819477
1761338376096073200,5.9020732421875,0.06580605886280537,1.8545146452352403,2.5087340482652185
1761338376106139100,5.91213916015625,0.28100071516036984,1.8101218151487408,2.2813193773418665
1761338376116205000,5.922205078125,0.41992520172595976,1.684949959603697,2.0363401158943772
1761338376126270000,5.93227001953125,0.5199824897587298,1.5742451669588684,1.768953353936225
1761338376136336100,5.942336181640625,0.6381716468095779,1.4770821390628814,1.4492219261042774
1761338376146401300,5.9524013671875,0.7762772182077169,1.3517382879517972,1.1647733355123548
1761338376156467000,5.962467041015625,0.8795423623710871,1.1718605903595685,0.9283516937255859
1761338376166532000,5.972531982421875,0.8993079700708388,1.0397413998946547,0.7609257736884057
1761338376176598000,5.982597900390625,0.8418202422201633,0.9453425029497593,0.5478994013406336
1761338376186664200,5.992664306640625,0.8252648287385702,0.5551904716642573,0.06198949624933302
1761338376196729000,6.00272900390625,0.9313643195450305,0.07417286865916102,-0.44956521077342326
1761338376206795000,6.012794921875,1.0651040969491004,-0.28136162089463324,-0.7462633343465626
1761338376216860200,6.022860107421875,1.1499334207117557,-0.427088225223124,-0.9191961081717163
1761338376226926000,6.032926025390625,1.1868214281260967,-0.3858342776842415,-0.9271333309117704
1761338376236992000,6.042991943359375,0.9600801264196633,-0.2261473544012755,-0.6376080946426839
1761338376247057000,6.053056884765625,0.3264379397332668,-0.0665486025921069,-0.1360155403163284
1761338376257123000,6.063123046875,-0.3032522944569587,0.031931175024830734,0.24844580504689365
1761338376267188000,6.07318798828125,-0.8650473885506391,0.20687621568758038,0.5152418711028993
1761338376277254100,6.083254150390625,-1.274636489701271,0.20813925789333879,0.6928187444068491
1761338376287320000,6.093320068359375,-1.4642723418503998,0.121350233163964,0.8018139566548168
1761338376297385000,6.103385009765625,-1.376786366099119,0.08791496001938358,0.8134433119110762
1761338376307451100,6.113451171875,-1.1235586240053177,0.030051622055657205,0.7847101155102253
1761338376317516000,6.12351611328125,-0.8544190270304679,-0.13523429027814418,0.7130472934432327
1761338376327582200,6.133582275390625,-0.6315168650954961,-0.32936391018256544,0.6686360509172081
1761338376337646800,6.143646728515625,-0.42968847084939477,-0.41172213112395256,0.713079588277638
1761338376347713000,6.153713134765625,-0.19321371063590048,-0.39907822853028774,0.8358195405006408
1761338376357779000,6.163779052734375,-0.09589783026576042,-0.23243633501026778,1.1749252386271953
1761338376367844000,6.173843994140625,-0.0176589908093214,-0.1576257164368406,1.5091082395292819
1761338376377910000,6.183909912109375,0.2809077761799097,-0.17698500835802405,1.5882152401223777
1761338376387975000,6.193974853515625,0.5746317793130874,-0.26911490092501045,1.536694019460678
1761338376398041000,6.204041015625,0.6352917074590921,-0.3611947438051924,1.549884486553818
1761338376408106000,6.21410595703125,0.47150399779379365,-0.3833714312346652,1.5897669996090233
1761338376418172200,6.224172119140625,0.18358663511276244,-0.29695586119387296,1.5342435575686395
1761338376428238000,6.234238037109375,-0.030969723281264305,-0.16796313218642026,1.4539824185043573
1761338376438303000,6.244302978515625,-0.06709025345444679,-0.08683072671294212,1.3830895578965543
1761338376448369200,6.254369140625,-0.0012836100697517395,-0.06618000674173236,1.305064068929851
1761338376458434000,6.26443408203125,0.0677607000619173,-0.0847128577761352,1.130854772362858
1761338376468500200,6.274500244140625,0.021868717458844184,-0.1901360567562282,0.9079605014733969
1761338376478566100,6.284566162109375,-0.02296644956767559,-0.36912082409672436,0.7190810937147587
1761338376488631000,6.294631103515625,0.007947159612178801,-0.4511366978738457,0.6328120194725692
1761338376498697000,6.304697021484375,0.032004911547899244,-0.42137839620895684,0.6003165479287504
1761338376508762000,6.31476220703125,0.0923562121361494,-0.39159320653714236,0.5775148604687304
1761338376518828000,6.324828125,0.15599252574443817,-0.5159443933490664,0.540431622743234
1761338376528894000,6.33489404296875,0.17748656467199325,-0.7128321893878281,0.46577677925340827
1761338376538959000,6.344958984375,0.20120938556492327,-0.8573989196240901,0.39860315836444493
1761338376549025000,6.35502490234375,0.07140636308789253,-0.9588282266624272,0.34059440231435
1761338376559090200,6.365090087890625,-0.23387714493572712,-1.0494858181871474,0.22925423437543213
1761338376569156000,6.375156005859375,-0.5509913760066032,-1.1416984571341424,0.13695508618876337
1761338376579221000,6.385220947265625,-0.80844287327528,-1.2063623602245002,0.12520042405240236
1761338376589287200,6.395287109375,-0.9910539413541555,-1.2400585127949715,0.13435739784575998
1761338376599353000,6.40535302734375,-1.187106090286374,-1.3258987671658395,0.013839578651636838
1761338376609418200,6.415418212890625,-1.3868424806892872,-1.5540397065371274,-0.3963737918771803
1761338376619484000,6.42548388671875,-1.613114411318302,-2.028820826305449,-1.0239852470319717
1761338376629549000,6.435549072265625,-1.6814777534484862,-2.369398350550234,-1.4723442968860267
1761338376639615000,6.445614990234375,-1.3237649700075387,-2.3530150787651536,-1.8333881244458257
1761338376649681200,6.45568115234375,-0.7064636772692203,-1.9535215474322436,-2.1054760498322547
1761338376659746000,6.46574609375,-0.23506138628423212,-1.4423422495931386,-1.8717999804265797
1761338376669812000,6.47581201171875,-0.11646540199816226,-1.1970331716693936,-1.08937359193936
1761338376679877000,6.485877197265625,-0.3193289845108986,-0.8818483012259006,-0.10328209529817103
1761338376689943000,6.495943115234375,-0.7236252399504184,-0.37987843801975246,0.760705116675049
1761338376700009200,6.50600927734375,-1.3433815246254206,0.07818689007349312,1.343038994798064
1761338376710073900,6.516073974609375,-1.7833330308139324,0.3455542897440493,1.6801557110644876
1761338376720140000,6.52614013671875,-1.8619395345389842,0.4746658228255808,1.957477007059753
1761338376730205200,6.536205078125,-1.6450743146806954,0.4521522315919399,2.192882968997955
1761338376740271000,6.54627099609375,-1.33060738324821,0.4556299907051026,2.397986293261498
1761338376750336300,6.556336181640625,-0.9837819045245647,0.5117740488618612,2.423735359285027
1761338376760402000,6.56640185546875,-0.49633565671145913,0.642605683734268,2.377826571677625
1761338376770468000,6.576468017578125,-0.1502571969628334,0.7962039347533136,2.39439776725024
1761338376780533000,6.586532958984375,-0.06997954515516758,0.94073471689336,2.4604575086131693
1761338376790599200,6.59659912109375,-0.2592021403282881,1.122297225767374,2.4523387918263673
1761338376800664000,6.6066640625,-0.6184042855441569,1.2815338479995726,2.299301901017129
1761338376810730000,6.61672998046875,-0.9825783739537,1.387125973805785,2.0397418871618807
1761338376820795100,6.626795166015625,-1.232289632359147,1.5153412886999547,1.6212005410097539
1761338376830861000,6.636861083984375,-1.3181313480347394,1.3516086702227592,1.3285874217279254
1761338376840927200,6.64692724609375,-1.143310203179717,1.0447164848934858,1.0607030855111776
1761338376850991900,6.656991943359375,-0.7288701548665761,0.9938958867818116,0.6079084643624723
1761338376861058000,6.66705810546875,-0.42030338738858697,0.9725855338580905,0.14191285472661255
1761338376871123200,6.677123291015625,-0.08223404657244682,0.8367895545765757,-0.18451485587358474
1761338376881189000,6.687189208984375,0.3254068431198597,0.6399518812898546,-0.30201778422594067
1761338376891255000,6.697255126953125,0.7226677930951118,0.41164128444008524,-0.27371172719597814
1761338376901320000,6.70731982421875,1.1191910764455795,0.18080197283029556,-0.12499839867427945
1761338376911386000,6.71738623046875,1.2849264130473137,0.09520246841274202,0.00987505893483758
1761338376921451000,6.727450927734375,1.2438204956769943,0.2191919092401862,0.033681320327520366
1761338376931517200,6.73751708984375,1.0228080930113792,0.43958384191989897,0.08240443470329045
1761338376941583000,6.7475830078125,0.6755278562575578,0.6389370782241225,0.16194076662436127
1761338376951648000,6.75764794921875,0.2582037769407034,0.7680706770069897,0.2301741987645626
1761338376961714000,6.7677138671875,-0.2042325327783823,0.8507376351039856,0.30461145398095246
1761338376971779000,6.777779052734375,-0.5969780511558056,0.8704037279520184,0.37678207943961023
1761338376981845200,6.78784521484375,-0.9499638060748576,0.869925369850546,0.44462943487167356
1761338376991910000,6.797909912109375,-1.19641986207664,0.8021885621208698,0.4018756041638553
1761338377001976000,6.80797607421875,-1.1157160938113928,0.7510794293913989,0.3483465508110821
1761338377012042000,6.8180419921875,-0.7973995012134313,0.6916908363554626,0.3041485126443207
1761338377022107100,6.828107177734375,-0.3422019105762243,0.5948465190198272,0.2542620535776019
1761338377032173000,6.838173095703125,0.1830307547956705,0.525240702547878,0.17686419498994946
1761338377042238000,6.848238037109375,0.5315969397068023,0.5179862013749778,0.02503039636015892
1761338377052304100,6.85830419921875,0.9593985738962888,0.5896466488217934,-0.06443842377141118
1761338377062370000,6.8683701171875,1.4030097716361283,0.5448674132335931,0.11848331769183278
1761338377072435200,6.878435302734375,1.7745669560343027,0.42583289139978586,0.28200784637629983
1761338377082501000,6.888501220703125,2.0599001474410294,0.3086903573250398,0.3350118529416621
1761338377092566000,6.89856591796875,2.1298487129360435,0.1335379712216556,0.23778978833481668
1761338377102632000,6.9086318359375,2.0364590660989283,0.06426076564956457,0.08563128779530525
1761338377112698000,6.918697998046875,1.841834904143214,0.07800948767997325,0.04335267338380217
1761338377122763300,6.92876318359375,1.6064929473519325,0.08189272232148796,0.08899586885757743
1761338377132829000,6.938828857421875,1.4173919327318667,0.10584675815440714,0.1895223818372935
1761338377142894000,6.94889404296875,1.2089654553949831,0.14409275604896246,0.26668738151714205
1761338377152960000,6.9589599609375,1.0054542226284742,0.18404840740561484,0.31755737172849474
1761338377163025200,6.969025146484375,0.7585118444144725,0.2203767351105809,0.36336964015886186
1761338377173091000,6.979091064453125,0.4640139342993498,0.2813722518865019,0.4084307248957455
1761338377183157000,6.989156982421875,0.14558394445478914,0.3171954065483063,0.44755920471325517
1761338377193222100,6.99922216796875,-0.08777940573990345,0.280159295900166,0.38932255819141864
1761338377203288000,7.0092880859375,-0.18487959753274916,0.14524156075790523,0.26052973567023874
1761338377213353200,7.019353271484375,-0.2216296577811241,-0.10040895101465284,0.01864142597541213
1761338377223419000,7.0294189453125,-0.16631225970685481,-0.4356228293344378,-0.24589608403146265
1761338377233485000,7.039485107421875,-0.10005261185765266,-0.8422605333335698,-0.5757995079182088
1761338377243550000,7.049550048828125,-0.11515022774636745,-1.290586046244204,-0.9799826583720743
1761338377253616000,7.0596162109375,-0.18663316320180892,-1.6962950910910963,-1.4984190877325831
1761338377263681300,7.069681396484375,-0.3121563164025545,-2.1869608854725957,-2.034952314797789
1761338377273747000,7.079746826171875,-0.7000660851866006,-2.7992589630961415,-2.483602237357199
1761338377283812000,7.08981201171875,-1.3769552929252384,-2.920243011562526,-2.8078929359287024
1761338377293878000,7.0998779296875,-1.76397834200263,-2.607547473716736,-2.7287247066676614
1761338377303944200,7.109944091796875,-1.7791332410365341,-2.2583469364248216,-2.49629191532135
1761338377314008800,7.1200087890625,-1.737405976897478,-1.9652815433308481,-2.0497616152644156
1761338377324075000,7.130074951171875,-1.7244354361653327,-1.5447151210919021,-1.334950673149526
1761338377334140200,7.14014013671875,-1.876669486159086,-1.2129845548432319,-0.49425373587086796
1761338377344206000,7.1502060546875,-2.02302792211771,-1.0338637400329111,0.283417055587098
1761338377354272000,7.16027197265625,-2.1101561704725027,-0.8350044977907091,0.7912656015682965
1761338377364337000,7.1703369140625,-1.9699866522818803,-0.5180053444668651,0.8370975245472043
1761338377374403000,7.180403076171875,-1.6172054800242184,-0.1781121492244303,0.6126956255737692
1761338377384468000,7.190468017578125,-1.2032611062735319,-0.02810658893510699,0.4101454929243773
1761338377394534100,7.2005341796875,-0.8995207360386848,-0.029431188602373003,0.23945436054617164
1761338377404599000,7.21059912109375,-0.6192997730791568,-0.0020986527796834705,-0.022991510943695902
1761338377414665000,7.2206650390625,-0.23021628434062003,-0.02500117026567459,-0.3941838806174695
1761338377424731100,7.230731201171875,0.029641105026006698,-0.21759521463327108,-0.9091418932776898
1761338377434796000,7.240796142578125,-0.03393850995898247,-0.08513480951525271,-1.234210663549602
1761338377444862200,7.2508623046875,-0.4637555756241083,0.2348755083233118,-1.1563329124905168
1761338377454926800,7.2609267578125,-1.0079770191043615,0.517530566561967,-0.9635808280169963
1761338377464993000,7.270992919921875,-1.7673697380065916,0.6007481442790478,-0.473504523961246
1761338377475059000,7.281058837890625,-2.5861989807397125,0.703745431286469,-0.03285780205018818
1761338377485124000,7.2911240234375,-3.1363065596491095,1.00103048790209,0.3380494670718908
1761338377495190000,7.30118994140625,-3.3263001391947267,1.2260963306769728,0.8988483166698366
1761338377505255000,7.3112548828125,-3.0323516796559096,1.6294290017813444,1.2509602844290435
1761338377515321000,7.321321044921875,-2.41960264339447,2.08856875417307,1.3815204088836908
1761338377525387000,7.331386962890625,-1.5166308901190757,2.389208966435492,1.53206036831066
1761338377535452200,7.3414521484375,-0.37931262083053585,2.445512745198607,1.7881240644827483
1761338377545518000,7.35151806640625,0.9285837489157914,2.392976502275467,2.0350337094709277
1761338377555583000,7.3615830078125,2.3260084138959645,2.29758881348893,2.300908167169988
1761338377565649200,7.371649169921875,3.553355329155922,2.1157520907834173,2.4403388496920466
1761338377575714000,7.381714111328125,4.393642954981327,1.9040553596042096,2.1624568510740994
1761338377585780200,7.3917802734375,4.799664134517312,1.777413869898021,1.613963137102127
1761338377595846100,7.40184619140625,4.607445280137658,1.5783809515893459,1.0540854940023272
1761338377605911000,7.4119111328125,4.141702914610505,1.3309664258189497,0.6448996398903429
1761338377615977000,7.42197705078125,3.611181495180726,1.0485451763361693,0.5224571362439543
1761338377626042000,7.4320419921875,3.1184394790470598,0.8028538210965692,0.4808533158214763
1761338377636108300,7.4421083984375,2.705851196080446,0.6644301236599683,0.3044841378068551
1761338377646174000,7.452174072265625,2.3384447016209364,0.6321986368145793,0.07165577127169817
1761338377656239000,7.462239013671875,2.1023907971680162,0.7154299507960676,-0.08209754244489595
1761338377666305000,7.472304931640625,1.8937141444623469,0.9035187196336686,-0.07500321853607893
1761338377676370200,7.4823701171875,1.4504343706339597,1.0541729530900716,0.026611929930560288
1761338377686436000,7.49243603515625,0.7585948465228081,1.082019064458087,0.1668172500869259
1761338377696501000,7.5025009765625,-0.23068916254937646,1.0144960456095635,0.30942857193909584
1761338377706567200,7.512567138671875,-1.5194102917045353,0.8848058358572423,0.478596001881361
1761338377716633000,7.522633056640625,-2.796405327230692,0.8132115489818156,0.6052379299789666
1761338377726698200,7.5326982421875,-3.6451369562745093,0.8533230484873056,0.6241174755591898
1761338377736764000,7.542763916015625,-3.864866917914152,0.9289993439793586,0.4614152230430394
1761338377746829000,7.5528291015625,-3.5591800897866483,0.6817261263757943,0.4219811844076961
1761338377756895000,7.56289501953125,-2.835342668390274,0.41215310641974207,0.26663543213419616
1761338377766961200,7.572961181640625,-1.7889993860125541,0.19919201786052435,0.11303586594089865
1761338377777026300,7.5830263671875,-0.7608002476125955,-0.051755467808991665,0.03398863271102309
1761338377787092000,7.593092041015625,0.08536591485738754,-0.2689805704882368,0.01999079475775361
1761338377797157000,7.6031572265625,0.7419809808522463,-0.4474772985834628,0.1403530580639839
1761338377807223000,7.61322314453125,1.2135802557140587,-0.5728059521254152,0.27037797966338695
1761338377817289200,7.623289306640625,1.54459792445302,-0.6357257149621844,0.3277205268897116
1761338377827353900,7.633353759765625,1.7794325162440536,-0.6128075615156442,0.30432080047130583
1761338377837420000,7.643419921875,1.932308371272683,-0.5978358370289206,0.32899529606588185
1761338377847485200,7.653485107421875,1.8995634550124405,-0.6881487798344343,0.3475747627209872
1761338377857551000,7.663551025390625,1.8701397921293972,-0.835382245061919,0.3929537543006241
1761338377867616300,7.6736162109375,1.7961895897775888,-0.9373600528284907,0.4777800458559766
1761338377877682000,7.683681884765625,1.584406787750125,-0.9831978940915316,0.5022196367161348
1761338377887748000,7.693748046875,1.2985685694307088,-0.955366980292648,0.4212516645567491
1761338377897813000,7.70381298828125,1.0392068546265363,-0.9103925509259104,0.3832897443005815
1761338377907879200,7.713879150390625,0.7725994064778089,-0.9496813358716666,0.3981535514334216
1761338377917944000,7.723944091796875,0.38544776258468627,-1.0733571076400577,0.42697997907567764
1761338377928010000,7.734010009765625,-0.03416296636462211,-1.1667749576583504,0.37772199063822626
1761338377938076000,7.744075927734375,-0.29709201826155185,-1.1659291544839738,0.3122395377065986
1761338377948141000,7.75414111328125,-0.4054916027039289,-1.1111908714719116,0.25538601610623296
1761338377958207200,7.764207275390625,-0.42882688558399673,-1.0695943941056727,0.18361359618492423
1761338377968272100,7.774272216796875,-0.3502987077921629,-1.1050749458748848,0.129777814970538
1761338377978338300,7.78433837890625,-0.22758944296836853,-1.1803398840870707,0.061242623404785985
1761338377988403200,7.7944033203125,-0.1596340971171856,-1.2581976883366703,0.007848740739002824
1761338377998469000,7.80446923828125,-0.19244447982907295,-1.312623106007278,0.035129984765872355
1761338378008535000,7.81453515625,-0.38638884282708164,-1.2496931871026753,0.16440942176021633
1761338378018600200,7.82460009765625,-0.7570499551683664,-1.0735189471382647,0.3815002670679241
1761338378028666400,7.834666259765625,-1.1807961764872072,-0.8274362544935197,0.6069416651569306
1761338378038731000,7.84473095703125,-1.5397235964149236,-0.6234959826599806,0.7812432431172579
1761338378048797200,7.854797119140625,-1.8209815012067556,-0.8221841791842133,0.6154865714665502
1761338378058863000,7.864863037109375,-2.0916157206535337,-1.1252429238304495,-0.00979614847972989
1761338378068928300,7.87492822265625,-2.273765016439557,-0.9162568398494273,-0.5794144835449755
1761338378078994200,7.884994140625,-1.9575503645569086,-0.5338521712876856,-1.0319553491283207
1761338378089059000,7.89505908203125,-1.4131085563242434,-0.39961178741771725,-1.4329979365341365
1761338378099125200,7.905125244140625,-0.9598159225255251,-0.600724653805606,-1.586255776617676
1761338378109191200,7.915191162109375,-0.8455950845837592,-0.6656411068849265,-1.0937038031633943
1761338378119256300,7.92525634765625,-1.3211299453288317,-0.23525486302971838,-0.26494397191591557
1761338378129322200,7.935322265625,-1.9837492201745508,0.4533270109923556,0.1992415195580572
1761338378139387100,7.94538720703125,-2.467646835595369,1.0495865020826458,0.5248444697719067
1761338378149453000,7.955453125,-2.5811726770102976,1.4941564618520438,0.9985423243481665
1761338378159518200,7.965518310546875,-2.4231676423996684,1.7556423292033374,1.407182088884711
1761338378169584400,7.97558447265625,-2.0788503471046686,1.8666332453131675,1.6328081228256224
1761338378179650300,7.985650390625,-1.653452851447463,1.8905691244348883,1.6750111877828835
1761338378189715200,7.995715087890625,-1.3108873682558535,1.8442190228007733,1.5465107723370193
1761338378199780400,8.0057802734375,-1.0753875905543566,1.7080827056489885,1.400099144886434
1761338378209846300,8.01584619140625,-0.8861310931116342,1.5067930944547057,1.3037939028635621
1761338378219912200,8.025912109375,-0.7448276024550199,1.2960194694697855,1.2929241338029502
1761338378229977000,8.03597705078125,-0.6839046394586563,1.1698646673019975,1.30724784270972
1761338378240043300,8.046043212890625,-0.5931739826977253,1.214284166199714,1.2136042211115359
1761338378250108200,8.056108154296876,-0.3242027280271053,1.3555045086175201,1.017685416235402
1761338378260174300,8.06617431640625,0.10340367585122584,1.3807584846004843,0.7642001191839576
1761338378270240300,8.076240234375,0.6776192755788565,1.2409589687660336,0.4178967646382749
1761338378280305200,8.08630517578125,1.3382640354812145,0.9565987140446901,-0.002209931134432554
1761338378290371000,8.09637109375,1.8754501734972,0.705049207361415,-0.40190636462830004
1761338378300436200,8.106436279296876,2.112956614845991,0.6846973972715437,-0.7803517741702497
1761338378310502400,8.11650244140625,2.2654355795115233,0.8480983726415783,-0.8372177899260074
1761338378320567000,8.126567138671875,2.193001042419672,0.8803104971993714,-0.6688303313802927
1761338378330633200,8.13663330078125,1.9150228899508714,0.7423690303217619,-0.4892604576282203
1761338378340699100,8.14669921875,1.3500433206021785,0.6897475202679634,-0.42065804604515433
1761338378350764300,8.156764404296876,0.7234294251173734,0.6806967833280563,-0.4661522615022957
1761338378360830200,8.166830322265625,0.07792612024545668,0.5913520279675721,-0.4595902726382017
1761338378370895000,8.17689501953125,-0.38882103841006754,0.42327297778390344,-0.41692148986533284
1761338378380961300,8.186961181640624,-0.7285825700968503,0.43043081364929675,-0.1971658092625439
1761338378391027200,8.197027099609375,-0.9641191726773977,0.5751238736789673,0.1963663294479251
1761338378401092400,8.20709228515625,-0.9304770153164863,0.5938960133619606,0.44075916930958625
1761338378411158000,8.217157958984375,-0.596619154715538,0.7140782439261675,0.4869491850111633
1761338378421223200,8.22722314453125,-0.14851999790668485,0.708127080436796,0.48316162929646667
1761338378431289000,8.2372890625,0.21357143900990486,0.45670083480700846,0.40114838586784896
1761338378441354200,8.247354248046875,0.4907698392778635,0.16091228209314867,0.20865641363523899
1761338378451420400,8.25742041015625,0.6634381900131702,-0.12336128072543069,0.055712754067406056
1761338378461486000,8.267486083984375,0.9492220477968454,-0.19914237003251908,0.1253228083230555
1761338378471551200,8.27755126953125,1.1435346595853566,-0.22294695092476904,0.15704897599481046
1761338378481617200,8.2876171875,1.4381068039804696,-0.32552875246647744,-0.20679434609040617
1761338378491682300,8.297682373046875,1.5248451762348412,-0.4152288606032729,-0.6496439118079841
1761338378501748000,8.307748046875,1.3248451664596794,-0.34199111736975607,-0.732371879377216
1761338378511814100,8.317814208984375,1.1364216127097606,-0.16020720256371423,-0.6155351598486304
1761338378521879300,8.32787939453125,1.1572294229388236,0.22745189766120164,-0.35761779863387344
1761338378531945200,8.3379453125,1.2131833653509616,0.5743079541862011,0.04311375006139278
1761338378542010400,8.34801025390625,1.303930388724804,0.6344567179396748,0.41005423444434996
1761338378552076000,8.358075927734374,1.4999503889530896,0.5101195596531033,0.7178260521523654
1761338378562142200,8.36814208984375,1.5980074430793523,0.30069871925031766,0.7828093964554369
1761338378572207000,8.37820703125,1.5769897894918918,0.09198282137964851,0.5477043171599507
1761338378582273300,8.388273193359375,1.5163175863862037,-0.1276755454616621,0.17827976087629793
1761338378592338200,8.398338134765625,1.1311083087325096,-0.31559209953751416,0.001254822366684675
1761338378602404000,8.408404052734374,0.6304395912528038,-0.4224240328043699,-0.1574948931314051
1761338378612470300,8.41847021484375,0.29848727201223374,-0.7016382298741489,-0.5184830449812113
1761338378622535200,8.42853515625,0.021197686329483986,-0.979770769187063,-0.7962431707851588
1761338378632601300,8.438601318359375,-0.1456079098522663,-1.0284416419189422,-0.883451352508366
1761338378642666000,8.448666015625,-0.3702420101463795,-1.1151087755680082,-0.9618740240991115
1761338378652732200,8.458732177734374,-0.7492185308903455,-1.3059617484219372,-0.9533587092101573
1761338378662798000,8.468798095703125,-1.0633867716372012,-1.3601156556747853,-0.8059310365848242
1761338378672863200,8.47886328125,-1.0292208826631306,-1.095027233786881,-0.5869191600866616
1761338378682929200,8.48892919921875,-0.9545634088248014,-1.0827460635583848,-0.23524331872239707
1761338378692994000,8.498994140625,-0.7039373736619949,-1.0415438462067395,-0.0678106766834855
1761338378703060200,8.509060302734374,-0.5603852272957563,-1.0226397507071494,0.10248889909386634
1761338378713126100,8.519126220703125,-0.564837530529499,-1.028218354557082,0.2523893915735185
1761338378723191300,8.52919140625,-0.7087777994304895,-0.9594147943787276,0.30350802278369665
1761338378733257200,8.53925732421875,-0.8624638017982243,-0.8509902216255665,0.31361162977740165
1761338378743322000,8.549322021484375,-0.9631213938117027,-0.8177123675324022,0.30222353593111034
1761338378753388300,8.55938818359375,-1.058956095713377,-0.858621227960661,0.29803441367819905
1761338378763453200,8.569453125,-1.1879986552119255,-0.9283842808209359,0.2434836160622537
1761338378773519400,8.579519287109376,-1.3221201254099606,-0.9530384642798453,0.12414835771620272
1761338378783585000,8.5895849609375,-1.310959264448285,-0.979605495622754,-0.051914311632514
1761338378793650200,8.599650146484375,-1.0650871458142994,-0.6372703871209174,-0.08013765881508589
1761338378803716000,8.609716064453124,-0.82418346324265,-0.6570899169649929,-0.11799085799977183
1761338378813781200,8.61978125,-0.4988824185848236,-0.45134774680864065,-0.22983985224366188
1761338378823847200,8.62984716796875,-0.25498189228475093,-0.024805574628338215,-0.47847749006822704
1761338378833913000,8.6399130859375,-0.4041717522770166,0.2892596989343874,-0.6229293617531657
1761338378843978200,8.649978271484375,-0.776297676473856,0.46095366994589565,-0.30085093240365385
1761338378854044200,8.660044189453124,-0.9383657227396964,0.48868758964370934,0.030258798532932996
1761338378864109300,8.670109375,-1.180970364010334,0.7668434732995927,0.0172147541731596
1761338378874175000,8.680175048828126,-1.5050824911445377,1.0431924171313642,-0.12441256161034106
1761338378884241200,8.6902412109375,-2.0918267330557105,1.1908620818190276,-0.11916845041178166
1761338378894306300,8.700306396484375,-2.817602429038286,0.8647747821543366,-0.21400303536020218
1761338378904372200,8.710372314453124,-3.0399902117103337,0.653904272666201,-0.551064806568995
1761338378914437400,8.720437255859375,-2.8744471828103064,0.7061965507656336,-0.8116909152857958
1761338378924503000,8.7305029296875,-2.334685641348362,0.6911955271191894,-1.0227662996962665
1761338378934568200,8.740568115234375,-1.5471616374611854,0.6900887349210679,-1.0587438412021846
1761338378944634000,8.750634033203125,-0.5590495947778225,0.828748871462047,-0.9303543387848884
1761338378954700300,8.7607001953125,0.5160878204077481,0.9505171291086822,-0.6292378873128444
1761338378964765200,8.77076513671875,1.5325906757950782,1.0794025983493774,-0.13574571039900182
1761338378974830600,8.78083056640625,2.40093418328166,1.3274158937305212,0.3141820500764996
1761338378984895500,8.7908955078125,2.996659604027867,1.4951421118885277,0.6305264658186585
1761338378994961400,8.80096142578125,3.6664082923620938,1.5381990171961486,0.7227958764541894
1761338379005027600,8.811027587890624,4.379596893972158,1.4253016829431056,0.617457798474282
1761338379015092700,8.8210927734375,4.448120979622006,1.3205506841361523,0.7458644712220877
1761338379025158700,8.83115869140625,3.9748172389298677,1.3472156959608197,0.8299736640166491
1761338379035223600,8.8412236328125,3.3728625684052704,1.2535849338442087,0.5250044826392084
1761338379045289500,8.85128955078125,2.930877510562539,1.6620944230645893,0.41638036872595546
1761338379055355600,8.861355712890624,2.5476193669766185,1.9590880955182015,0.3894350055899471
1761338379065420500,8.871420654296875,2.1678321143716572,1.830689094620198,0.2636046861361712
1761338379075486700,8.88148681640625,1.607801107341051,1.4984978520572185,0.08911554971449076
1761338379085551600,8.891551513671875,0.6910621099978685,1.1518460494000464,-0.13008973046392203
1761338379095617500,8.901617431640625,-0.37780747696459294,0.8797416843354702,-0.2301985294882208
1761338379105682700,8.9116826171875,-1.4441367317944764,0.6373366572901606,-0.03288724734038114
1761338379115748600,8.92174853515625,-2.4245985519856212,0.5873957646224648,0.1462128169428557
1761338379125814800,8.931814697265626,-3.2169676578164097,0.6505233249910175,0.17034480315856634
1761338379135879400,8.94187939453125,-3.5730987250238653,0.928410292045027,0.16477730522453785
1761338379145945600,8.951945556640625,-3.4695892507106065,1.2185239957265555,0.3435942417174577
1761338379156010800,8.9620107421875,-2.9380267977952954,1.367443806605786,0.5517551999859511
1761338379166076700,8.97207666015625,-2.1096073044180867,1.4161889866828918,0.737686206267774
1761338379176142300,8.982142333984376,-1.1904226674884557,1.3428614462740718,0.8927424740754067
1761338379186207500,8.99220751953125,-0.4676981757700443,1.1581693341374397,0.8887878912307321
1761338379196273700,9.002273681640625,0.03837269301414489,1.0367566849954426,0.8176410558618604
1761338379206338600,9.012338623046874,0.36726036398708817,0.8666407221566885,0.664748541959375
1761338379216404700,9.02240478515625,0.5507745183855295,0.510858687582612,0.4353700236171484
1761338379226470400,9.032470458984376,0.9019219519615173,0.10357216428592801,0.12959113329201935
1761338379236535600,9.04253564453125,1.5291379049926996,-0.2130336423387751,-0.19506036141589284
1761338379246601500,9.0526015625,2.101124722754955,-0.4563832202252,-0.49332697641476986
1761338379256666600,9.06266650390625,2.294462936553359,-0.6368272464632988,-0.7160261631235479
1761338379266732500,9.072732666015625,2.156284299919009,-0.8706016616769134,-0.8874215713135898
1761338379276797400,9.08279736328125,1.8376321917563676,-0.8215383555613458,-0.8999506518885493
1761338379286863600,9.092863525390625,1.3999381091058254,-0.7434321295086294,-0.7135026359952986
1761338379296929500,9.102929443359375,0.923026699310541,-0.69583838448897,-0.4358462628267705
1761338379306994700,9.11299462890625,0.38234102874100206,-0.4072958025816828,-0.1116765602864325
1761338379317060400,9.123060302734375,-0.12683131318986415,-0.07092763966023921,0.2557161979086697
1761338379327125500,9.13312548828125,-0.48218379724025723,0.03737549867033958,0.6754344788856804
1761338379337191700,9.143191650390625,-0.7620043627053499,0.0719051063902676,0.9086164811640978
1761338379347257600,9.153257568359376,-0.9166513190597295,0.008325929796695709,0.7987864255271852
1761338379357322500,9.163322509765624,-0.7826017450541257,-0.25385734523423015,0.4326015818171203
1761338379367388400,9.173388427734375,-0.5603711987704039,-0.6265504017945379,-0.030318419765681028
1761338379377453600,9.18345361328125,-0.3851981717377901,-0.9103129828836768,-0.40377223156541586
1761338379387519500,9.19351953125,-0.16929449038803576,-1.214835589537397,-0.8737016735188663
1761338379397585700,9.203585693359376,0.05350596473813057,-1.5202964268893002,-1.4673587635584175
1761338379407650600,9.213650634765624,0.144806530341506,-1.6093480445221064,-1.865362202464044
1761338379417716500,9.223716552734375,-0.018469722670316695,-1.6017936836197972,-1.9118645720504224
1761338379427781600,9.23378173828125,-0.2450274845033884,-1.4030205852910875,-1.70115597512573
1761338379437847600,9.24384765625,-0.559828177934885,-0.9488511686578393,-1.246080403432995
1761338379447912400,9.253912353515625,-1.0133113658696413,-0.4527696328379214,-0.7850440967049449
1761338379457978400,9.263978271484374,-1.4404080666601657,-0.06193615862689912,-0.33689489020928737
1761338379468044500,9.27404443359375,-1.7990373804241417,0.16179207886867225,0.022760113340616225
1761338379478109700,9.284109619140626,-1.9403227509021759,0.3729062609195709,0.2100613850623369
1761338379488175600,9.294175537109375,-1.82951493627429,0.7900128250282258,0.3538154837414622
1761338379498240500,9.304240478515625,-1.4742758494704962,1.4390747722297905,0.6211746270403266
1761338379508306400,9.314306396484374,-0.8519061674267053,1.9201734045818446,0.8465352880433201
1761338379518372600,9.32437255859375,-0.18862696736752985,2.14349876036495,1.0584471232779324
1761338379528437500,9.3344375,0.2586047589570284,2.0453066816821694,1.282784432582557
1761338379538503700,9.344503662109375,0.2864589805662632,1.6695501458980142,1.2478740088514984
1761338379548568600,9.354568603515625,0.0964911199837923,1.3250719609528778,0.8885377158619463
1761338379558634500,9.364634521484374,-0.18751053055822847,1.2581569179348646,0.46045288081690666
1761338379568699600,9.37469970703125,-0.6833247937440872,1.4908847467049955,0.16271964204236863
1761338379578765600,9.384765625,-1.202472001722455,1.7436551004201173,-0.10390168850123882
1761338379588831700,9.394831787109375,-1.3355676360040902,1.820809067249298,-0.537167287185043
1761338379598896400,9.404896484375,-1.2184592599272728,1.8008064359232783,-0.8210295292563736
1761338379608962600,9.414962646484375,-0.8543319332689047,1.835844723817706,-0.8681585063084959
1761338379619027700,9.42502783203125,-0.30255086818933485,2.0166006655491886,-0.7588165264494716
1761338379629093600,9.43509375,0.18856793065667152,2.1883856575787064,-0.4802247721269726
1761338379639159600,9.44515966796875,0.5202057771205901,2.26353939050138,-0.09043547320663929
1761338379649224400,9.455224365234375,0.5816670847773552,2.356696836017817,0.26187545119076966
1761338379659290600,9.46529052734375,0.33226913010478015,2.356239301508665,0.39730566589981314
1761338379669355500,9.47535546875,-0.11366437310278416,2.07633471102193,0.11709390916004776
1761338379679421700,9.485421630859374,-0.4145557836472988,1.7367407909870147,-0.34878450383692977
1761338379689487400,9.4954873046875,-0.48681788678169247,1.4079258929893375,-0.7417899883247911
1761338379699552500,9.505552490234376,-0.1833569180101156,1.0799338556818663,-1.1070293678782879
1761338379709618700,9.51561865234375,0.4516039500594139,0.8172362744532525,-1.4363624445311725
1761338379719683600,9.52568359375,1.1458920363664626,0.7389858906894922,-1.4499465871170163
1761338379729749800,9.535749755859374,1.681720914554596,0.6877603650387376,-1.329765963988006
1761338379739814400,9.545814453125,1.9909499453336,0.7366123664911836,-1.1119356984898447
1761338379749880600,9.555880615234376,2.003758573502302,0.8436093175940215,-0.9595495266743004
1761338379759946500,9.565946533203125,1.8383096526265144,1.01188717828542,-0.7802940526336432
1761338379770011600,9.57601171875,1.504972016507387,1.0993391056366264,-0.5303374411650001
1761338379780077600,9.58607763671875,1.0129565610826015,1.040744147196412,-0.43771629448235033
1761338379790142500,9.596142578125,0.5951654487758875,1.0790018355287612,-0.501053479013592
1761338379800208600,9.606208740234376,-0.2861234650015831,1.1891411032453179,-0.20268764142394063
1761338379810274600,9.616274658203125,-1.1852116548418998,1.3328231596015392,0.13086451422870157
1761338379820339700,9.626339599609375,-1.6966987034559249,1.6080337470531463,0.44909225949943066
1761338379830405400,9.6364052734375,-1.8907500339597463,1.7114909066572785,0.527834080041945
1761338379840470500,9.646470458984375,-1.6936422384947538,1.6516823346436023,0.41750031266659493
1761338379850536700,9.65653662109375,-1.2317372591733933,1.415976220715046,0.3550814120240509
1761338379860601600,9.6666015625,-0.5014917243003845,1.084398945331946,0.21044424690008162
1761338379870667500,9.67666748046875,0.3021516397386789,0.6762253370024264,-0.0748598645426333
1761338379880733400,9.6867333984375,1.1508423522502182,0.35502650349903847,-0.43366818813532587
1761338379890798600,9.696798583984375,1.8894155704855917,0.07322123049013317,-0.7365728381983936
1761338379900864500,9.706864501953126,2.3040356515407563,-0.29161760543845594,-0.8186385424666106
1761338379910929700,9.7169296875,2.3450749334156513,-0.38974202571250494,-1.1100377559140324
1761338379920995600,9.72699560546875,2.333430088329315,-0.3568176612321287,-1.4913075021617113
1761338379931061500,9.7370615234375,2.226899804890156,-0.41115028605274856,-1.7336026390917598
1761338379941126700,9.747126708984375,1.9688129323273895,-0.4529793665984645,-1.8216360195927321
1761338379951192600,9.757192626953126,1.6555325803309677,-0.5360822318946943,-1.9118487899594008
1761338379961257500,9.767257568359375,1.2149088739693163,-0.6044303399231284,-1.812946371050179
1761338379971323400,9.777323486328125,0.7460533448576927,-0.39795645795874296,-1.415665401200205
1761338379981389600,9.7873896484375,0.3098936321675777,0.011133680693805216,-0.9300462226837873
1761338379991454700,9.797454833984375,-0.053500704041123386,0.2644625450745225,-0.4798477555081248
1761338380001520600,9.807520751953126,-0.34066461800634856,0.38357689067889,-0.010959639301151037
1761338380011585500,9.81758544921875,-0.6321417189955711,0.25409886237252505,0.2600454592846334
1761338380021651500,9.8276513671875,-0.7227619011193513,0.15125651019848882,0.380132997302711
1761338380031716600,9.837716552734374,-0.7522323257535696,-0.24445925616137681,0.4820401509858668
1761338380041782500,9.847782470703125,-0.7580658542126417,-0.7935099464289843,0.20749153457432984
1761338380051848700,9.8578486328125,-0.7422726572751999,-0.8041410844281315,-0.29721900564208625
1761338380061913600,9.86791357421875,-0.44862230390012264,-1.0392403185047208,-0.6524236056543886
1761338380071979500,9.8779794921875,-0.24830665230453014,-1.5119509156093,-0.4299235947795212
1761338380082044700,9.888044677734374,-0.4052572094261646,-1.5075326607756316,-0.3585201543010771
1761338380092110600,9.898110595703125,-0.7341887195408344,-1.3746356178060173,-0.553856410048902
1761338380102176800,9.9081767578125,-0.8094131796121596,-1.3644682979263365,-0.6793044521868229
1761338380112241400,9.918241455078125,-0.7343354345351457,-1.3434776784762739,-0.5943067130547016
1761338380122307600,9.9283076171875,-0.8249854272753,-1.1831026267986744,-0.46162272831387813
1761338380132372700,9.938372802734374,-1.071703349083662,-1.2843117882803081,-0.5538515877433121
1761338380142438700,9.948438720703125,-1.2382523401558398,-1.383341048439592,-1.16061205111444
