time,seconds_elapsed,z,y,x
1761338359563330000,0.084330078125,-0.45004093852639193,-0.5342488424550742,0.9081362964317202
1761338359573396200,0.094396240234375,-0.3106523415803909,-0.6797400671251118,0.6718762018822133
1761338359583461000,0.104461181640625,-0.02227671373784542,-0.772234810949117,0.502174299737066
1761338359593527000,0.114527099609375,0.23376140960156916,-0.8934604130864143,0.4943782390333712
1761338359603592200,0.12459228515625,0.36089141347706316,-0.9970138726718724,0.6166787769258022
1761338359613658000,0.134658203125,0.42943771095871924,-0.9335254431016743,0.7087104332827031
1761338359623724000,0.14472412109375,0.3390922541230917,-0.8460290920868515,0.7144108368813991
1761338359633789200,0.1547890625,0.12311083136200904,-0.8407531244453043,0.6240170108594
1761338359643855000,0.164855224609375,-0.05486848526298999,-0.8956948941402136,0.5201123997487127
1761338359653920300,0.174920166015625,-0.11783493678569792,-1.0430771201886235,0.34576720184236764
1761338359663986200,0.184986083984375,-0.10896832424104214,-1.2750976774722338,0.19421762698143719
1761338359674052000,0.195052001953125,-0.1613672045201063,-1.5086173872724176,0.09276888459026814
1761338359684117000,0.205116943359375,-0.1990074916064739,-1.666618768621236,-0.03324921252056956
1761338359694183200,0.21518310546875,-0.3130243314087391,-1.7860569028198718,-0.12121464235186576
1761338359704248000,0.225248046875,-0.5666249984681606,-1.9044924358472226,-0.17069515096619725
1761338359714314000,0.23531396484375,-1.1066840615719555,-2.0527385852485893,-0.24150310976952313
1761338359724380000,0.2453798828125,-1.6970944247752426,-2.1211161020345983,-0.2576544724948704
1761338359734445000,0.255445068359375,-2.0655735169023273,-2.0143226376146077,-0.257226310210675
1761338359744511200,0.26551123046875,-2.182049440294504,-1.8338477047815918,-0.2989450987823307
1761338359754576100,0.275576171875,-2.0871166556686163,-1.7209139840409158,-0.4081850795716047
1761338359764642000,0.28564208984375,-1.8017554072111843,-1.708378912116587,-0.4512625892758369
1761338359774708000,0.2957080078125,-1.4778630603075027,-1.7681274245060978,-0.43832478176951406
1761338359784773000,0.305773193359375,-1.2295429639995097,-1.7996194180957972,-0.38549744694530963
1761338359794839000,0.315839111328125,-1.2012637949764728,-1.8036369831740855,-0.32874782411083575
1761338359804904000,0.325904052734375,-1.324739952519536,-1.756007801514864,-0.270586288651824
1761338359814970000,0.33597021484375,-1.4153034360200165,-1.5861312734551727,-0.13284911217465997
1761338359825036000,0.3460361328125,-1.4813129085004328,-1.344381933839619,0.0170392514757812
1761338359835101200,0.35610107421875,-1.4733780238479375,-1.0498724063519387,0.17656915756613015
1761338359845167000,0.3661669921875,-1.52609722212255,-0.7580407197713851,0.37004137300774453
1761338359855233300,0.3762333984375,-1.6883756962686776,-0.5099088029792532,0.5275825894989074
1761338359865298000,0.3862978515625,-1.8942092345029116,-0.27315412984583526,0.5738485199809074
1761338359875364000,0.396364013671875,-1.9835855540454386,-0.11093560572601854,0.5302864416301251
1761338359885429200,0.40642919921875,-1.8924013082981108,-0.04365331856450066,0.31077392213344573
1761338359895495200,0.4164951171875,-1.669649953010678,-0.006929233007598668,-0.11749372213259339
1761338359905560000,0.42656005859375,-1.436953542292118,-0.016655805116146803,-0.630288930735737
1761338359915626000,0.4366259765625,-1.3363210847198963,-0.06801310848698486,-1.008720238687098
1761338359925692200,0.446692138671875,-1.4694348391801118,-0.05517423131049145,-1.236034371845424
1761338359935757000,0.456757080078125,-1.547425256833434,0.052365914157801306,-1.369561675542593
1761338359945823200,0.4668232421875,-1.4050439078122376,0.40688912147693335,-1.5370964627817272
1761338359955888600,0.476888671875,-1.0129022005468606,0.8873446336198597,-1.5987287430912256
1761338359965953800,0.486953857421875,-0.4835831426441669,1.1670949103277175,-1.3720783345386385
1761338359976019700,0.497019775390625,0.12559504939317703,1.2813216665536165,-1.0322089585632086
1761338359986084600,0.507084716796875,0.6416337699621916,1.3137975566141307,-0.766465141506493
1761338359996150800,0.51715087890625,0.8768190748870373,1.2493291760958731,-0.6024791327901184
1761338360006216700,0.527216796875,0.8089227657467126,1.2245466170169412,-0.43686844548135995
1761338360016281600,0.537281494140625,0.5697703107565641,1.3433783097550271,-0.3134093852035701
1761338360026347500,0.547347412109375,0.24078560914993286,1.528743352717161,-0.27395138117074963
1761338360036412700,0.55741259765625,0.04270984543561935,1.636589394930005,-0.28290508747696874
1761338360046478800,0.567478759765625,0.05562544111013412,1.6663798452988265,-0.2913746635280549
1761338360056544800,0.577544677734375,0.1624655211508274,1.565046253719926,-0.283743876388669
1761338360066609700,0.587609619140625,0.30406302631795407,1.3735269259117542,-0.28134499855339523
1761338360076675600,0.597675537109375,0.4518558789938688,1.1906946893628685,-0.3284736833445728
1761338360086740700,0.60774072265625,0.5817576856702565,1.0523211146783082,-0.416736488687247
1761338360096806700,0.617806640625,0.7120283256590366,1.0071411528021097,-0.47770957443565126
1761338360106872800,0.627872802734375,0.9636199909836053,0.9992263610895723,-0.5308629263438284
1761338360116937700,0.637937744140625,1.1488970634013413,0.9555413139462471,-0.5320346004717051
1761338360127003600,0.648003662109375,1.2811036398887634,0.8342607667513191,-0.5409438831143081
1761338360137068800,0.65806884765625,1.3948895935446024,0.6311164676010609,-0.5518417092256248
1761338360147134700,0.668134765625,1.4147609997063875,0.39169374430216847,-0.5988632803805172
1761338360157201000,0.678200927734375,1.375492234635353,0.23065657545402646,-0.6585751140214502
1761338360167265500,0.688265625,1.2231307588696478,0.15218305045887828,-0.7294453244060277
1761338360177331700,0.698331787109375,1.1744015070140361,0.12794986889101564,-0.757627901186794
1761338360187396900,0.70839697265625,1.2676093675434588,0.16476305750347672,-0.6944334861271083
1761338360197462800,0.718462890625,1.43728555072546,0.2477907386716455,-0.5678709068760276
1761338360207528700,0.72852880859375,1.5035539664030073,0.3162150172088295,-0.45528848379105324
1761338360217593600,0.738593505859375,1.5223749867290257,0.28184673753045497,-0.3916241131320595
1761338360227659800,0.74865966796875,1.586025328862667,0.1379969233918935,-0.31600480852425095
1761338360237724700,0.758724609375,1.7133265976518393,-0.010843246379867196,-0.28448358884006736
1761338360247790800,0.768790771484375,1.8520716359972953,-0.18441884815320372,-0.3253995365962386
1761338360257856500,0.7788564453125,1.9787644174993038,-0.3959373732212931,-0.4060271708853543
1761338360267921700,0.788921630859375,2.0096189899683,-0.5428739378614351,-0.5011687759563327
1761338360277987800,0.79898779296875,1.8145640353798864,-0.6023614612272009,-0.558267942880839
1761338360288053800,0.8090537109375,1.4535042795985935,-0.6334247445434331,-0.5922974921241402
1761338360298119000,0.819118896484375,1.1266139199227094,-0.6683152945302426,-0.6394539417050779
1761338360308184600,0.8291845703125,0.9035182812422513,-0.7196561901889741,-0.6718833622753619
1761338360318249700,0.839249755859375,0.6809001969456673,-0.7926751761052757,-0.68002779802531
1761338360328315600,0.849315673828125,0.42149756560921664,-0.918293898634985,-0.6390802860870957
1761338360338381800,0.8593818359375,0.1301449677824974,-1.073165165264532,-0.623636487109214
1761338360348446700,0.86944677734375,-0.2160439666032791,-1.1426465516392141,-0.6827563462063669
1761338360358512600,0.8795126953125,-0.5763321534901857,-1.2506314908660947,-0.643359863102436
1761338360368577800,0.889577880859375,-0.8141489759624004,-1.351998838584125,-0.6124212656117975
1761338360378643700,0.899643798828125,-1.1371131021052598,-1.3916285459220408,-0.6085935240171849
1761338360388710000,0.9097099609375,-1.579078286203742,-1.273391311945766,-0.5830338430859148
1761338360398774500,0.9197744140625,-2.083525353178382,-1.0615875401955097,-0.4706916584976017
1761338360408840700,0.9298408203125,-2.525098907610774,-0.9564639817491173,-0.23891426232010124
1761338360418905900,0.93990576171875,-2.8441391383081673,-0.918875790176168,0.05659516292512416
1761338360428971800,0.9499716796875,-2.843408485946059,-0.9363188001472502,0.22951018189787864
1761338360439037700,0.96003759765625,-2.50968272729218,-0.9569634557038545,0.24439050177410243
1761338360449102600,0.9701025390625,-1.9873358464896678,-0.9896635099090635,0.18499869386777282
1761338360459168800,0.980168701171875,-1.5488450605034827,-1.0772490735772997,0.03745565123446286
1761338360469233700,0.990233642578125,-1.2131909641355276,-0.9185526957016438,-0.08312237371429801
1761338360479299800,1.0002998046875,-0.8560895905911922,-0.5144237596530467,-0.19222506492473185
1761338360489365800,1.01036572265625,-0.48878421841859815,-0.20724599884804337,-0.2683923588041216
1761338360499430700,1.0204306640625,-0.23005086464583874,-0.2791147918159142,-0.23539704797938465
1761338360509496600,1.03049658203125,-0.19278700965642928,-0.626770547351241,-0.17368509002979843
1761338360519561700,1.040561767578125,-0.36704876706302164,-0.8707615284137428,-0.18502287846095858
1761338360529628000,1.0506279296875,-0.7271107439786195,-0.9454539274349808,-0.18350984354950486
1761338360539693800,1.06069384765625,-1.022504726150632,-0.7586603129744529,-0.21497988103572277
1761338360549758700,1.0707587890625,-1.0715350067794323,-0.7395249660022556,-0.4005369394386187
1761338360559824600,1.08082470703125,-0.8028063286930323,-1.0278047322548924,-0.8080402838237584
1761338360569889800,1.090889892578125,-0.34034313096702096,-1.1581325092583894,-1.180593712717667
1761338360579955700,1.100955810546875,0.02184884371459484,-0.911674699690938,-1.2686214671954512
1761338360590021600,1.111021728515625,0.29973522624671456,-0.5300731642056257,-1.1385057255074382
1761338360600086800,1.121086669921875,0.5123053792595863,0.094915331167588,-0.6624259442307054
1761338360610152700,1.131152587890625,0.6771931591212749,0.6299931626595556,-0.10144494299888611
1761338360620217900,1.1412177734375,0.6283487564533948,0.7633722169924527,0.3513384261034429
1761338360630283800,1.15128369140625,0.13449381064176558,0.8054006560351699,0.8306358542524278
1761338360640349700,1.161349609375,-0.7885960170328616,1.1115474298246204,1.3971873490929603
1761338360650414600,1.17141455078125,-1.6871715811759231,1.5547782499447464,1.9142625731028615
1761338360660480800,1.181480712890625,-2.3148370315402746,1.7974163550935685,2.1678131174102426
1761338360670546000,1.1915458984375,-2.5119734685778616,1.7441829236865043,2.016765354591608
1761338360680611600,1.201611572265625,-2.2524480876445767,1.8463966591008008,1.6050830805540084
1761338360690677800,1.211677734375,-1.6565712757289408,1.9869784113541245,1.3845955785453319
1761338360700742700,1.22174267578125,-0.7992395761221647,2.048315946500748,1.4380191256970167
1761338360710808800,1.231808837890625,0.17067630013525484,1.838024990466237,1.2298871012620627
1761338360720874800,1.241874755859375,1.1058604702293873,1.1844039917208253,0.47374132839180527
1761338360730939600,1.251939697265625,1.8660060533255338,0.38019780616723,-0.6614872020758688
1761338360741005600,1.262005615234375,2.4233558584481476,-0.16099362196736036,-1.7262128211013972
1761338360751070700,1.27207080078125,3.0806811185389757,-0.480832090370357,-2.1894699456840754
1761338360761137000,1.282136962890625,3.613926994496584,-0.0965451151933521,-1.9964054342605173
1761338360771202800,1.292202880859375,3.8927573798805475,-0.15401530738733707,-1.713034044446051
1761338360781267700,1.302267822265625,4.0198254244357345,-0.5387422083515674,-1.559476929154992
1761338360791333600,1.312333740234375,4.0363673939138645,-0.49687451282851397,-1.6163817425511777
1761338360801398800,1.322398681640625,3.8472190330207345,-0.2146397258285433,-1.6541510628446936
1761338360811464700,1.332464599609375,3.7075843523591754,-0.03828194599077105,-1.3724023057959973
1761338360821531000,1.34253076171875,3.6250691507577892,-0.1775160099621862,-0.5122582521822303
1761338360831595800,1.352595703125,3.379496891853213,-0.5449528264947235,0.6494072535078972
1761338360841661700,1.36266162109375,3.051183221375942,-0.6255084184609353,1.8195996914595365
1761338360851726800,1.372726806640625,2.6633956176668403,-0.23336247341185806,2.9204513936161995
1761338360861792800,1.382792724609375,2.140493441069126,0.16526055869683623,3.8209395133823154
1761338360871859000,1.39285888671875,1.5359101756066083,0.30307474593296646,4.38474185564518
1761338360881923600,1.402923583984375,0.872097307062149,0.3260688506925478,4.495541779227555
1761338360891989800,1.41298974609375,0.1389724173605442,0.3962715736117214,4.019493416002392
1761338360902055000,1.423054931640625,-0.4127560407489538,0.42669915284030135,3.1710818126931786
1761338360912120800,1.433120849609375,-0.749094612249732,0.32300270458757874,2.427938656193763
1761338360922186500,1.4431865234375,-1.0738047052770852,0.3076697455730289,1.8290414735436438
1761338360932251600,1.453251708984375,-1.2052028879910708,0.39739612066224217,1.4219998649187384
1761338360942317800,1.46331787109375,-1.2329951502799987,0.3934551279515028,1.224894845932722
1761338360952382700,1.4733828125,-1.2205389888107776,0.17717442998290062,1.1257651941388844
1761338360962449700,1.48344970703125,-0.9935732306987046,-0.100709139537625,1.0568078316383063
1761338360972515600,1.493515625,-0.4523550606876611,-0.7552586147721856,0.5458446607679128
1761338360982580700,1.503580810546875,0.31465865461230275,-0.9956449954714626,-1.4813117394566535
1761338360992646700,1.513646728515625,0.8617565303117036,0.188849524077028,-3.677584643153846
1761338361002711600,1.523711669921875,0.6617021600008011,-1.1177603860553353,-4.201960691696405
1761338361012777500,1.533777587890625,0.2634007610619068,-2.406357377374172,-4.130234887395799
1761338361022843600,1.54384375,-0.09585340660214424,-2.8184944094419477,-4.329417443308234
1761338361032908800,1.55390869140625,-1.017959483936429,-2.7863252472430466,-3.8373870825752614
1761338361042974700,1.563974609375,-2.0067975028067826,-2.530820207867026,-2.609689746442437
1761338361053039600,1.57403955078125,-2.7049083622723815,-2.3229526795871553,-1.5460148055136202
1761338361063105500,1.58410546875,-3.1587229741185903,-2.2247302057661114,-1.108412565864995
1761338361073171700,1.594171630859375,-3.3079993433505295,-2.035280231577903,-0.9994396385140717
1761338361083236600,1.604236572265625,-3.3022067314237353,-1.9524051106229423,-0.9794378109056502
1761338361093302800,1.614302734375,-3.062567369699478,-1.9875538731545208,-0.7078503823872655
1761338361103367700,1.62436767578125,-2.6903075899899003,-1.8600320934824643,0.05466748279817402
1761338361113433600,1.63443359375,-2.2406699715673923,-1.3691539715245364,1.048117744704336
1761338361123499500,1.64449951171875,-1.4739268899023532,-0.7398391465179621,1.7318815143875776
1761338361133564700,1.654564697265625,-0.6977630689412355,-0.4118577767349779,1.7176754405111074
1761338361143630800,1.664630859375,0.07360708800256252,-0.6101242407158016,0.6623396541867405
1761338361153695500,1.674695556640625,0.8458423373430967,-1.129182601366937,-1.2155902803622185
1761338361163761700,1.68476171875,1.301039343458414,-1.7477021838538347,-3.0231852073818444
1761338361173827600,1.69482763671875,1.126405830129981,-2.477975921908021,-4.3622158433213825
1761338361183892700,1.704892822265625,0.21971768667995928,-2.639700269302726,-4.512404066701233
1761338361193958400,1.71495849609375,-0.7879378453850746,-1.9393783096589148,-3.316678324368596
1761338361204023600,1.7250234375,-1.5005623833715915,-0.9889742124706506,-1.6393573983386158
1761338361214089700,1.73508984375,-1.8134020058631897,-0.2822803797073662,-0.426478605424799
1761338361224155600,1.74515576171875,-1.6691145309597253,0.05227656907364726,-0.16786803778149187
1761338361234220800,1.755220703125,-1.0902800392597913,-0.02116626827791333,-0.7151867896899581
1761338361244286500,1.765286376953125,-0.4675304179877042,-0.35376258451044557,-1.5152391434997319
1761338361254351600,1.7753515625,-0.10452011266052723,-0.8086478943280875,-2.428597850754857
1761338361264417500,1.78541748046875,0.3291489522576332,-0.6735965228687971,-2.556468151603639
1761338361274483700,1.795483642578125,0.4599468309909105,0.14273966093957424,-1.339365274721384
1761338361284548600,1.805548583984375,0.03593874386548996,0.5808552569378167,0.4979878078326583
1761338361294614500,1.815614501953125,-1.1361778670817613,0.1875200290389359,1.126403784303367
1761338361304679700,1.8256796875,-2.004270030155778,-0.3649916884027421,0.8997705460812896
1761338361314745600,1.83574560546875,-1.9241466921269892,-1.3889203098766505,0.4966876119542867
1761338361324811800,1.845811767578125,-1.7881132508277893,-1.5605568333461879,0.4831865445420146
1761338361334876400,1.85587646484375,-1.8761644592463969,-1.3233648647740484,0.5136540904548019
1761338361344942600,1.865942626953125,-2.141674175286293,-1.1863130402125417,0.6613820612009614
1761338361355007700,1.8760078125,-2.4200100551515815,-0.838129132617265,1.0885600835993885
1761338361365073700,1.88607373046875,-2.138091056102514,-0.4766526127286255,1.3551383056536317
1761338361375139800,1.896139892578125,-1.0984726980656385,-0.5317540299646556,1.393572811857611
1761338361385204500,1.90620458984375,-0.5515431646704674,-0.6688062929175794,1.2576472148470579
1761338361395270700,1.916270751953125,-0.3748492116808891,-0.8228747187316418,1.1998824966859072
1761338361405335600,1.92633544921875,0.06591244184672831,-1.1489051005773245,1.449131032950431
1761338361415401700,1.936401611328125,0.6749257987111806,-1.6779165538355707,1.6368828249186276
1761338361425467600,1.946467529296875,1.5587527065336704,-2.4052877023160457,1.8002207449898122
1761338361435532500,1.956532470703125,1.7649381269454956,-2.4871081996515394,2.6058444691911338
1761338361445598700,1.9665986328125,0.8623737854272127,-2.0806677717901767,2.8901912799090144
1761338361455663600,1.97666357421875,0.14717793564796447,-2.15702839628458,2.3941478841423987
1761338361465729800,1.986729736328125,-0.2914350154131651,-2.437265579726547,2.000729581069946
1761338361475795700,1.996795654296875,-0.3909603885263204,-2.5350492237389086,1.536811508360505
1761338361485860600,2.006860595703125,-0.28675182603299615,-2.7803286371767517,0.7097155186720192
1761338361495926500,2.016926513671875,-0.13228490242063998,-3.0035791741579767,-0.22810995971113443
1761338361505991700,2.02699169921875,0.40717619479000566,-3.3548604632467027,-1.100633383230865
1761338361516057900,2.037057861328125,0.7899591220796108,-3.4390079422250386,-1.5294608533367513
1761338361526123500,2.04712353515625,0.8690823431551455,-2.87565246694684,-1.4631472833432255
1761338361536188700,2.057188720703125,0.7346803024500608,-2.1285819078706205,-1.053270670488104
1761338361546254600,2.067254638671875,0.40720308279693124,-1.3893454034209252,-0.5225239909350872
1761338361556319700,2.07731982421875,0.26257073997855185,-0.9046333298120647,-0.0928463337406516
1761338361566385700,2.0873857421875,0.01906301238834858,-0.5064717046700418,0.3542696572497487
1761338361576451600,2.09745166015625,-0.47137306489050385,-0.25179670464368537,0.8857662053219973
1761338361586516700,2.107516845703125,-0.8996914164304732,-0.32088165731299667,1.5283821181893347
1761338361596582700,2.117582763671875,-1.4707728097856043,-0.11431536609111353,2.299980823192
1761338361606647800,2.127647705078125,-1.7975334056019783,0.4603823728639632,2.923717701935768
1761338361616713500,2.13771337890625,-1.5198153653740882,1.1243529892534017,3.6562814506232737
1761338361626779600,2.147779541015625,-1.1107143400013446,1.4399698213733731,4.237486763107777
1761338361636844500,2.157844482421875,-0.7824585371911525,1.1686791838444768,4.2815582522854205
1761338361646910700,2.16791064453125,-0.7295756727874279,1.6088316194325685,4.448523715204
1761338361656976000,2.177975830078125,-0.6053507427036762,2.158046925677359,4.603496250250935
1761338361667041500,2.18804150390625,-1.6468465850502252,2.476903324240446,4.034375343313813
1761338361677107500,2.198107421875,-4.580503497198224,2.6032211349502203,1.5761159292668103
1761338361687172600,2.208172607421875,-5.147874930119515,1.7648394888766108,-0.5489641810279339
1761338361697238800,2.21823876953125,-2.5540982076019048,0.6282407660342753,-0.2959435058135539
1761338361707303400,2.228303466796875,-0.054953825458884234,0.5889946511864662,0.721727589635551
1761338361717369600,2.23836962890625,1.0194126053541899,1.1678021087490023,0.301213847431913
1761338361727435500,2.248435546875,1.5805173790961502,0.45211935223564503,0.5062857536438852
1761338361737500700,2.258500732421875,3.5338726300507783,0.2584406544364989,3.478187567707896
1761338361747566600,2.268566650390625,3.2874370323151347,1.5932044267117975,2.2671168105967343
1761338361757631500,2.278631591796875,1.1823486666262149,2.8115941285341974,1.4061508461408316
1761338361767697700,2.28869775390625,-2.8088357697367665,3.831433142606914,0.4888447529667988
1761338361777763600,2.298763671875,-0.31159926704168317,3.0794112447336315,2.147362011664361
1761338361787828700,2.308828857421875,2.5594904220342634,1.8034785777419804,3.698555242729187
1761338361797894700,2.318894775390625,3.4540392148792742,1.6654237136177719,3.796493346650898
1761338361807959600,2.32895947265625,4.973502698075771,1.906024759981036,3.5899133739635345
1761338361818025500,2.339025390625,5.219457234296202,2.3819461358256637,3.394616427312791
1761338361828091600,2.349091552734375,3.7069162438392635,3.067175448016822,2.8477818787246942
1761338361838156800,2.35915673828125,1.6662240702152251,3.9137256413683295,1.405983234488964
1761338361848222700,2.36922265625,-0.44830607755780216,4.777563946390152,-1.6080091971337793
1761338361858287600,2.37928759765625,-0.36794074746668337,4.115468695418536,-0.43056784749981014
1761338361868353500,2.389353515625,-1.2208844412475823,2.489246380724013,1.3098100944131612
1761338361878419700,2.399419677734375,-1.8584446781605481,1.2171150787767022,1.9932842335000633
1761338361888484600,2.409484619140625,-2.435997897878289,0.9945698405206203,1.8773782189503312
1761338361898550800,2.41955078125,-3.425352049577236,1.4351878477938473,2.3748541317380965
1761338361908615700,2.42961572265625,-3.3466409164339304,2.551707220812142,1.4322963641360402
1761338361918681600,2.439681640625,-3.8884430238127705,2.3589250334613023,0.775917518049851
1761338361928747800,2.449747802734375,-3.4368279678374525,0.2724367936230264,1.8479405275419354
1761338361938812700,2.459812744140625,-0.976006009826064,-2.638679694083333,1.7800459719672799
1761338361948878600,2.469878662109375,1.272775372004509,-2.0306082942441104,0.8413102468714118
1761338361958943200,2.479943115234375,1.7128385218739508,0.6398003439899533,1.502578253238648
1761338361969009200,2.490009033203125,1.4765782811939716,2.132254020512104,1.2376564200893043
1761338361979075000,2.500074951171875,1.043555112963915,2.344267416425049,-0.872288591850549
1761338361989140000,2.510139892578125,0.2799041520953178,2.6529458275839684,-2.397048135628551
1761338361999206100,2.5202060546875,-0.7126017416328191,2.8648642386898397,-3.0941128470420836
1761338362009271000,2.53027099609375,-1.5060487058281897,2.7315301194772124,-3.4074522357493637
1761338362019337200,2.540337158203125,-1.3014543540000916,2.3150483362033962,-2.8747119712263345
1761338362029403100,2.550403076171875,-1.9334896900117395,1.9373244458690284,-1.9191295946173368
1761338362039468000,2.560468017578125,-1.4425415715575218,2.0927187134593725,-1.652359795513749
1761338362049534200,2.5705341796875,-1.0240659841179847,2.406896598817408,-1.8208279180802405
1761338362059599000,2.58059912109375,-0.1558914034575224,2.608438869598508,-2.4893118471756575
1761338362069665300,2.590665283203125,0.8962795621603726,2.2155746932774782,-2.0432534024141726
1761338362079731000,2.60073095703125,-1.5338415526390075,0.5477252503501251,0.14313896245546637
1761338362089796000,2.610796142578125,-0.8828869966238737,-3.0295638025030494,1.4293281619802116
1761338362099862000,2.620862060546875,-0.8959364478111267,-2.204582174620032,2.7073969642177222
1761338362109927200,2.63092724609375,-0.5658978532373905,0.7725687190786004,2.1762951145514844
1761338362119993000,2.6409931640625,-0.7425397837787866,3.0517098755985494,1.1788020800605417
1761338362130059000,2.65105908203125,-0.34980127966403957,3.3237215208783746,-0.5227895100034773
1761338362140124200,2.661124267578125,-0.37274668644368647,2.459051441207528,-1.3721012770228087
1761338362150190000,2.671190185546875,-1.082268582239747,2.1278800432115794,-0.9472650685101747
1761338362160255200,2.681255126953125,-1.385125155377388,2.2079228633500634,-0.5865902203932404
1761338362170321000,2.69132080078125,-0.762095548120141,1.458356395804882,-0.516918827871792
1761338362180387000,2.701386962890625,-0.11239946773350239,0.7035819843530654,-0.38951720398068423
1761338362190452200,2.7114521484375,1.0951491066008805,0.8292243800193071,-0.1479383255612105
1761338362200518100,2.72151806640625,1.5933908891946076,0.7597799646541475,0.0065865387834608555
1761338362210583300,2.731583251953125,2.3127649014413354,0.5804797016236931,0.043621297724731264
1761338362220649000,2.74164892578125,2.608819977870583,0.6343100029453634,0.21461660068128258
1761338362230715100,2.751715087890625,2.6530934193611144,0.974460607014969,0.4255888535108417
1761338362240780000,2.761780029296875,2.3892232872217893,1.2440117804653943,0.4537291985850781
1761338362250846200,2.77184619140625,1.981467831239104,1.2279264687135816,0.6932714566104113
1761338362260911000,2.7819111328125,1.8614952979028223,0.8596648187294602,0.6278433642145246
1761338362270977000,2.79197705078125,1.6622200952708721,0.43860959006026384,0.8050569571640342
1761338362281043000,2.80204296875,1.3388386204987763,0.11694251799061894,1.19622433950454
1761338362291108000,2.812108154296875,0.86187518825531,-0.13238712068609892,1.3661033517822623
1761338362301174300,2.82217431640625,0.340803734216094,-0.32959355421997605,1.259509355457127
1761338362311239000,2.832239013671875,-0.1014753381371498,-0.4301443248581141,1.1513077047396452
1761338362321305000,2.84230517578125,-0.4577946213930845,-0.3347559054192155,0.9176282743331045
1761338362331371000,2.85237109375,-0.6510106701165437,0.172138189381361,0.683189915318042
1761338362341436200,2.862436279296875,-0.5894125843375921,0.8760862305678426,0.4989858789592981
1761338362351502000,2.872502197265625,-0.19905133074820042,1.413629949849844,0.11593158738240598
1761338362361567000,2.88256689453125,0.33859131886363025,1.7052303849577903,0.012467851907014845
1761338362371633200,2.892633056640625,0.8256079430878162,1.6393632435575127,-0.18530688303411005
1761338362381698000,2.902697998046875,1.007528106293082,1.3447118964463471,-0.22094562103971838
1761338362391764200,2.91276416015625,1.0914403152108192,0.9546871813349426,-0.42284357339069245
1761338362401830100,2.922830078125,1.0761901391088962,0.6302209070008248,-0.40475042894780633
1761338362411895000,2.93289501953125,1.0308505296915769,0.39816381709910925,-0.2158129343263805
1761338362421961000,2.9429609375,1.0170499678760767,-0.33702706522159276,-0.15360489995554089
1761338362432027100,2.953027099609375,0.946179026839137,-1.4593568050190806,0.4431976485028863
1761338362442092300,2.96309228515625,0.6993272495180368,-2.5040233863562342,1.1018801684215664
1761338362452158200,2.973158203125,0.33457156182825565,-3.730705700227618,1.5173273479506373
1761338362462223000,2.98322314453125,-0.11378536913394928,-4.8681703922495245,1.9823954674780369
1761338362472289000,2.9932890625,-0.45783203079402446,-3.792586694601178,1.338839935673028
1761338362482354200,3.003354248046875,-0.4687310259491205,-2.1900819401025773,-0.4031017849579453
1761338362492420000,3.013420166015625,-0.5470914459586144,-1.7238778022825716,-1.6823567282401024
1761338362502486000,3.023486083984375,-0.628272184085846,-1.6553890802070497,-2.4035309217765928
1761338362512551200,3.03355126953125,-0.2130857013195753,-2.008802266757935,-2.832189172795415
1761338362522617000,3.0436171875,-0.034622985091805454,-2.44753621385023,-2.5085677517876026
1761338362532682200,3.05368212890625,-0.39754327404797074,-2.57510767788291,-2.382426612818986
1761338362542748200,3.063748046875,-1.1738286755621432,-2.4982956563591956,-2.501297176262736
1761338362552814000,3.07381396484375,-1.2361913159728048,-1.1339213203266263,-2.1644695060707626
1761338362562879000,3.08387890625,-0.5323480503350496,1.3533068524427712,-2.815662985408306
1761338362572945200,3.093945068359375,-0.24621464846134183,1.5047916915044188,-3.6837405354350805
1761338362583010300,3.10401025390625,0.44160979478955265,0.27871355407126247,-2.3067221141457557
1761338362593076000,3.114075927734375,0.06710954267680645,-0.5054714415863156,-0.06087722415849566
1761338362603142100,3.12414208984375,-1.3001561308830976,-1.191263940618187,0.6847830297283828
1761338362613207000,3.13420703125,-3.4564480295866726,-0.2730665611602366,1.599534360385686
1761338362623273200,3.144273193359375,-4.99508207719922,0.3367430606484413,2.505865214830637
1761338362633338000,3.154338134765625,-5.962284018322825,-0.031216099257767197,2.550956986966729
1761338362643404000,3.164404052734375,-5.939444410005211,-0.14065028744488953,2.7520930150344967
1761338362653470000,3.174469970703125,-5.016123696184158,-0.20261822944954036,3.0838053880393503
1761338362663535000,3.18453515625,-3.809496328347921,-0.4069327414229512,2.6355413960576057
1761338362673601000,3.19460107421875,-2.4431863480776546,-0.1573011971902102,1.7548163997732102
1761338362683666000,3.204666015625,-0.5816138932853937,0.3720321814987808,0.7072451830357313
1761338362693732000,3.214732177734375,1.2959306221425533,0.922985782778263,-0.17986688393726943
1761338362703798000,3.224798095703125,2.607876559540629,1.0895260060220957,-0.617605097990483
1761338362713863200,3.23486328125,3.4521699138760567,1.2131083273533732,-0.7274886373803019
1761338362723929000,3.24492919921875,3.7079853343755005,1.6731795884415506,-0.6074021222755313
1761338362733994000,3.254993896484375,3.4041625465542076,1.7077049583777784,-0.8080198255576193
1761338362744060200,3.26506005859375,2.848748093408346,1.6325664230242372,-0.8113095147527754
1761338362754126000,3.2751259765625,2.68223300460577,1.5925553151533007,-0.6272896027892828
1761338362764191200,3.285191162109375,2.6816929063796997,1.23695616286546,-0.3400426867157221
1761338362774257200,3.295257080078125,2.406855390024185,0.9295719562355428,-0.1454527192905545
1761338362784322000,3.305322021484375,1.7343325608015059,0.7608780620891601,-0.050317105568945406
1761338362794388000,3.315387939453125,1.3256430388391016,0.6460065051537006,-0.10197145109102129
1761338362804454100,3.3254541015625,1.1085177067399024,0.6078208591442554,-0.10588950131759046
1761338362814519000,3.33551904296875,1.0176771598637104,0.5607687467206269,-0.03705664197951555
1761338362824585200,3.345585205078125,0.9459802893966436,0.47668337319307025,-0.02424479894042015
1761338362834650000,3.355650146484375,0.758632255923748,0.49662791765630243,-0.10236951049789786
1761338362844716000,3.365716064453125,0.19519465532004832,0.49165012924373147,-0.2666984874330461
1761338362854782200,3.3757822265625,-0.45876492772996424,0.37364845758900045,-0.3084088004373014
1761338362864847000,3.38584716796875,-0.875728357040882,0.1689133821159601,-0.24614596713930367
1761338362874913000,3.3959130859375,-0.9955535908609628,-0.142075205681473,-0.17587386877834796
1761338362884978200,3.405978271484375,-1.0389888279616832,-0.41087285735085605,-0.07929536277204752
1761338362895044000,3.416044189453125,-1.0208359161555767,-0.6588472089610994,0.05314692216739058
1761338362905110000,3.426110107421875,-0.9936574018508195,-0.8676438347846269,0.2647368319712579
1761338362915175200,3.436175048828125,-0.881437382337451,-0.9984045963779091,0.502438357500732
1761338362925241000,3.446240966796875,-0.7491600787013769,-1.1045640006780624,0.6377224417373538
1761338362935306000,3.456305908203125,-0.5855342815995216,-1.0932089323185383,0.648692894693464
1761338362945372200,3.4663720703125,-0.34313597655594347,-1.098630226714909,0.5394238339401781
1761338362955438600,3.4764384765625,-0.10675298627912998,-1.0231447776198386,0.43505949636325236
1761338362965503500,3.48650341796875,0.0997808091789484,-0.9492062657058239,0.3107540483891964
1761338362975569400,3.4965693359375,0.1607306601822376,-0.7998045165285468,0.12312193727791308
1761338362985634600,3.506634521484375,0.1514811857998371,-0.6021810266263783,-0.11809022672101854
1761338362995700500,3.516700439453125,0.16215221741795538,-0.44789150540754197,-0.46650721241980786
1761338363005766700,3.5267666015625,0.13603285677731036,-0.35627032954767346,-0.732791566094011
1761338363015831600,3.53683154296875,0.05447568655312061,-0.3571088261984289,-0.8871342788048088
1761338363025897500,3.5468974609375,-0.11650164235532283,-0.3617553368300199,-0.9321174759998917
1761338363035962600,3.556962646484375,-0.32206103982329365,-0.4363955672726035,-0.9659555943243205
1761338363046028500,3.567028564453125,-0.39849721377193925,-0.4651620814211666,-1.029358537568152
1761338363056094500,3.577094482421875,-0.47370004653334613,-0.47978608844876286,-1.1089097747974097
1761338363066159400,3.587159423828125,-0.5092535904735327,-0.5968620235607027,-1.2718727240763603
1761338363076225500,3.5972255859375,-0.46727673548758025,-0.7107787639893591,-1.4071458485275505
1761338363086290700,3.607290771484375,-0.538923337072134,-0.7154970246829092,-1.4609969734415411
1761338363096356400,3.6173564453125,-0.7200351065039634,-0.7546462550275027,-1.4694797012351453
1761338363106422500,3.627422607421875,-0.8225795351773499,-0.8878655156888067,-1.4279403608836232
1761338363116487400,3.6374873046875,-0.7925368636131286,-1.1465893709808588,-1.2844802767150103
1761338363126553600,3.6475537109375,-0.9482266070187091,-1.393442901867628,-1.104707354671508
1761338363136618500,3.657618408203125,-1.180951659309864,-1.6464131620690226,-1.0256754651412368
1761338363146684400,3.667684326171875,-1.31716045717597,-1.9639301287218927,-0.8249262444339692
1761338363156750300,3.677750244140625,-1.3054858014732598,-2.5127386077314613,-0.4088632710941136
1761338363166815500,3.6878154296875,-1.4401485389411448,-3.2494398946151137,0.25617490146160127
1761338363176881700,3.697881591796875,-1.6618372334331273,-3.7303839209273457,1.1402785803988575
1761338363186946300,3.7079462890625,-1.8962655825108288,-4.088253940756618,1.7204206475660204
1761338363197012500,3.718012451171875,-2.647665549093485,-4.1768253736570475,2.178656875246763
1761338363207077400,3.728077392578125,-3.5502941880196333,-4.076439584322274,2.4472651418238875
1761338363217143600,3.7381435546875,-4.116205485260487,-3.9725361422553656,2.755363122746348
1761338363227209500,3.74820947265625,-4.207430647540092,-4.043205715501308,3.3014152887851
1761338363237274400,3.7582744140625,-3.7451194255053997,-3.7815392308861013,3.544076628679037
1761338363247340500,3.768340576171875,-2.774826532629132,-2.7783061914384364,3.1504175025880334
1761338363257406500,3.778406494140625,-1.6035919652134178,-0.9530698092661798,2.3380451809093357
1761338363267471600,3.7884716796875,-0.3225479465574026,0.9960767379522323,0.7678815841756761
1761338363277537500,3.79853759765625,0.5758470003217458,2.082324599086493,-0.27138912946730853
1761338363287602400,3.8086025390625,1.2470488100737334,2.73352012425065,-1.0974513921938835
1761338363297668400,3.81866845703125,1.245598611265421,3.4965631823539733,-1.5284928850874304
1761338363307733500,3.8287333984375,0.20365502515137193,3.75753934661746,-1.6646690958581865
1761338363317799700,3.838799560546875,-1.1755366485238075,3.6583448128938674,-2.1762059749633074
1761338363327865600,3.848865478515625,-2.363292142629623,3.5559886002689596,-2.6489544198602437
1761338363337930500,3.858930419921875,-2.8582383908092974,3.5818250523149966,-3.1977976779222486
1761338363347996400,3.868996337890625,-2.3837211826741695,3.7157846099495884,-3.9070655989572405
1761338363358061600,3.8790615234375,-1.1339800647765397,3.7717511195823548,-4.3768888040572405
1761338363368127500,3.88912744140625,0.06650748513042927,3.6945311017796394,-4.259992609426379
1761338363378193700,3.899193603515625,1.0329735131949185,3.3716052618205548,-3.734532565039396
1761338363388258600,3.909258544921875,1.469704888293147,2.6361469607353207,-2.86767929611057
1761338363398324500,3.919324462890625,1.7364122896850107,1.723931286035478,-1.6470301249235868
1761338363408389600,3.9293896484375,2.0851859798669814,0.7895316904477775,-0.33891273283772166
1761338363418455600,3.93945556640625,2.4085808986425397,0.1032129755847156,0.78211111199297
1761338363428521500,3.949521484375,2.9127380427598952,-0.46059199702665204,1.8660867173463105
1761338363438586400,3.95958642578125,3.82949165315032,-1.291971947644651,3.1857597418650982
1761338363448652500,3.969652587890625,3.7490287079036233,-2.23744326460585,3.6481688713163134
1761338363458717700,3.9797177734375,2.581872934234142,-2.451262979288399,3.5228500085160133
1761338363468783600,3.98978369140625,1.498856748497486,-2.0603798937819895,3.163393596278131
1761338363478849500,3.999849609375,0.43798108289837834,-1.417811034926772,2.1701026896521447
1761338363488914400,4.00991455078125,-0.5884545529603957,-0.6894184344440698,0.9754272600900381
1761338363498980600,4.019980712890625,-1.6642518933594226,-0.013986439776420593,-0.24483517680168151
1761338363509045500,4.03004541015625,-1.721765924695134,0.33801249606236816,-0.8627488292846828
1761338363519111400,4.040111328125,-1.5921908657550812,0.6332260071009397,-1.1246440811544656
1761338363529177300,4.05017724609375,-1.3272212479412555,0.7943615948222577,-1.2698518857732415
1761338363539242500,4.060242431640625,-0.778824564602971,0.9191390442222356,-1.0083412493068724
1761338363549308400,4.070308349609375,-0.29902210954129693,0.865706875372678,-0.9433861081849783
1761338363559373600,4.08037353515625,0.14322013793289662,0.7982311297319828,-0.8555996881823986
1761338363569439500,4.090439453125,0.6608510961294174,0.7238910512797534,-0.839473167637363
1761338363579505400,4.10050537109375,1.074693178549409,0.6469533575497567,-0.7950085874889046
1761338363589570600,4.110570556640625,1.2262743175923823,0.6786639623261987,-0.8386607552759349
1761338363599636500,4.120636474609375,1.264382806712389,0.7290107323810457,-0.8062802153486758
1761338363609701400,4.130701416015625,1.4505442607492207,0.5798557975716888,-0.5688777458310127
1761338363619767600,4.140767578125,1.4948381605058907,0.3159606771215796,-0.178655462320894
1761338363629833500,4.15083349609375,1.3241922555088996,-0.08517579911276697,0.1321182406168431
1761338363639898600,4.160898681640625,1.2001222237259148,-0.45114130098372696,0.46243828248046337
1761338363649964500,4.170964599609375,0.9458329898804425,-0.6460514402739703,0.6455582499295472
1761338363660029400,4.181029541015625,0.7564274393558502,-0.7861505235768854,0.6444307072043418
1761338363670095400,4.191095458984375,0.6999895128190518,-0.9244761674664914,0.6339721492931246
1761338363680160500,4.201160400390625,0.622923224273324,-1.0269826022170483,0.595611000586301
1761338363690226400,4.211226318359375,0.5709475378423929,-1.1325032702222466,0.37395240897163745
1761338363700292600,4.221292724609375,0.5287205074876546,-1.2116221073836086,0.10674392618983983
1761338363710357500,4.231357421875,0.4979477680832147,-1.2288484058640896,-0.05415229981765151
1761338363720423400,4.24142333984375,0.46761809627115725,-1.2301906142532826,-0.08513181384056806
1761338363730488600,4.251488525390625,0.43023324525058265,-1.158065143110603,-0.1325327397018671
1761338363740554500,4.261554443359375,0.3112999918341636,-1.047852371766418,-0.31301936297267674
1761338363750620700,4.27162060546875,0.08476151922345161,-0.9507118479631841,-0.535185904109478
1761338363760685600,4.281685546875,-0.11400456484258174,-0.8586093183271586,-0.6770264242522418
1761338363770751500,4.29175146484375,-0.2518418406933546,-1.023975237094611,-0.5960967382766306
1761338363780816600,4.301816650390625,-0.2912497219741344,-1.2853775178156792,-0.21124723384603858
1761338363790882600,4.311882568359375,-0.48116263749897475,-1.5009494829930363,0.08337561782300472
1761338363800948700,4.32194873046875,-0.7874217125564813,-1.7037928995005784,0.1685128384910524
1761338363811013400,4.332013427734375,-1.2395417954444885,-1.8262500892594455,0.4898498018234968
1761338363821079600,4.34207958984375,-1.4023393250286578,-1.92365130982548,0.9710971949964761
1761338363831144400,4.35214453125,-1.4691589448481797,-2.098398512661457,1.2326684025436638
1761338363841210600,4.362210693359375,-1.6193845776289701,-2.136173824304342,1.2857425517357886
1761338363851276300,4.3722763671875,-1.7816782493442296,-2.1871013168565927,1.2978877475596964
1761338363861341400,4.382341552734375,-1.9541542923778294,-2.3001722541108727,1.3753760609097778
1761338363871407600,4.39240771484375,-1.9637796143352984,-2.293471441297978,1.5036552348203955
1761338363881472500,4.402472412109375,-1.7975456805616616,-1.7857094045564532,1.3433809401035308
1761338363891538700,4.41253857421875,-1.4305197098523377,-0.6288580942150205,0.7892861912541091
1761338363901604400,4.422604248046875,-0.7579238153934479,0.962310515820235,0.3585840133175254
1761338363911670500,4.43267041015625,-0.5647919378221035,1.5075222855120896,0.3421116019442677
1761338363921735400,4.4427353515625,-1.1847586503773928,1.3961166511215268,0.41243659953624007
1761338363931801600,4.452801513671875,-1.993407859879732,1.282078768531233,0.5844789273276925
1761338363941866500,4.462866455078125,-2.3104753291994333,1.1423710226334631,0.6689770463746041
1761338363951932400,4.472932373046875,-2.2080928130894897,0.9687712362669407,0.6935466933552176
1761338363961998000,4.482998046875,-2.1011510262399913,0.775507549009472,0.6584289835490286
1761338363972063000,4.49306298828125,-2.3137053971618413,0.6184178756780923,0.5092675459336489
1761338363982129200,4.503129150390625,-2.155361924377084,0.5573348998144269,0.7013640160426498
1761338363992194000,4.513194091796875,-1.6794997313737867,0.32486389534957705,0.751834266346693
1761338364002260000,4.523260009765625,-1.1378057605445384,0.23141937652006744,0.5531706197418272
1761338364012326000,4.533325927734375,-0.6527747571796179,0.4927992992788553,0.05995842881314456
1761338364022391000,4.54339111328125,-0.07698854713439941,0.7658355383660644,-0.51891230324395
1761338364032457200,4.553457275390625,0.6037462301164865,1.0628963577717543,-0.9023052521906793
1761338364042521900,4.56352197265625,1.2712713971823453,1.3789295156076549,-1.2342008728079497
1761338364052588000,4.573588134765625,1.6866636316537855,1.7091424438349903,-1.6821873630225657
1761338364062654000,4.583654052734375,1.9429215352237224,1.9499527490347623,-1.8743208772063253
1761338364072719000,4.593718994140625,2.120918972027302,2.004733117622882,-1.8884530090637504
1761338364082785000,4.603784912109375,2.3099755629837513,1.8652854839660227,-1.7438856943055987
1761338364092850000,4.613849853515625,2.5926222917854784,1.663479155421257,-1.4388349721245466
1761338364102916000,4.623916015625,2.857477927830815,1.3643193909749387,-1.154048016423732
1761338364112982000,4.63398193359375,3.0086943252146243,1.18477779346928,-1.0377299139417708
1761338364123047200,4.644047119140625,2.8979198283344507,1.1384416472952812,-0.8064541836760938
1761338364133112800,4.65411279296875,2.663579157540202,0.8155234791859984,-0.4645853044465184
1761338364143178000,4.664177978515625,2.38605108692646,0.3087202044740319,-0.017579349701851606
1761338364153244000,4.674243896484375,2.079638282611966,-0.0024538959581404925,0.3888762757286429
1761338364163310000,4.68431005859375,1.7166320689380168,-0.06763754860628396,0.8456704879075289
1761338364173375200,4.694375244140625,1.253947921937704,-0.09890380714870989,1.0365040254086255
1761338364183441000,4.70444091796875,0.730127461451292,-0.16490630189906805,0.9175377465054392
1761338364193506000,4.714506103515625,0.24258009135127065,-0.1915678065923974,0.7140068591903894
1761338364203572000,4.724572021484375,-0.29818916584849353,-0.08410824294649064,0.3967315923389047
1761338364213638100,4.73463818359375,-0.8314338727623224,0.10755392739847301,-0.08472958971522748
1761338364223702800,4.744702880859375,-1.1861930670946836,0.23309352027736602,-0.48402284923568367
1761338364233769000,4.75476904296875,-1.2002286067098378,0.3476490700662136,-0.786840405537188
1761338364243834000,4.764834228515625,-0.9649556235015392,0.4951095489826053,-0.981159154805541
1761338364253900000,4.774900146484375,-0.5903910739809274,0.5317684238161892,-1.1287192216388882
1761338364263966200,4.78496630859375,-0.14870879847705362,0.42590529904887076,-1.158174302573502
1761338364274030800,4.79503076171875,0.18727555275857447,0.26675021762028334,-1.0593408572472631
1761338364284097000,4.805096923828125,0.4375298319995403,0.15395152143612503,-0.9837880420044064
1761338364294162000,4.815161865234375,0.5162859733283519,0.10151347819045185,-1.0124341446436942
1761338364304228000,4.82522802734375,0.48566871674656864,0.057881768669560546,-1.1209707994692026
1761338364314294000,4.8352939453125,0.42174306480288504,0.08327135373093188,-1.2116678462214767
1761338364324359000,4.84535888671875,0.49994683294594283,0.11534114720858633,-1.2425329400844871
1761338364334425000,4.855425048828125,0.6346797130405902,0.027749884451925753,-1.2883090412229299
1761338364344490000,4.865489990234375,0.7112240235388279,-0.1404732503775507,-1.3787658494785426
1761338364354556200,4.87555615234375,0.7800842092752456,-0.23423538378886877,-1.3848435619570314
1761338364364622000,4.8856220703125,0.7398334474295377,-0.3462721556898206,-1.3806382192216813
1761338364374687000,4.89568701171875,0.6393254930198192,-0.47450537156686184,-1.2731376294456422
1761338364384753000,4.9057529296875,0.5355529838562011,-0.5402965251214802,-1.1451225132986902
1761338364394818000,4.915818115234375,0.40174247930347917,-0.5689167626671493,-1.0190323738649487
1761338364404884200,4.92588427734375,0.3157669081151485,-0.6662091890964656,-0.9000872838802635
1761338364414950000,4.935949951171875,0.2768114467769861,-0.8591438635952771,-0.6988767292715609
1761338364425015000,4.94601513671875,0.18788287100195883,-1.1161642759703099,-0.39925270831435916
1761338364435081000,4.9560810546875,0.020229133558273313,-1.3640622013434767,-0.0852104320347309
1761338364445146000,4.96614599609375,-0.15540098959207535,-1.5492597787842153,0.13570757034569977
1761338364455212000,4.9762119140625,-0.36693420077264305,-1.5695724989727138,0.10282353787571191
1761338364465278000,4.98627783203125,-0.6686392657876015,-1.4171240755759178,-0.11896584051176905
1761338364475343000,4.996343017578125,-0.9866893164038657,-1.3330872173652053,-0.36243060574308034
1761338364485409000,5.006408935546875,-1.1485165396511554,-1.288600863776356,-0.42786037863939996
1761338364495474200,5.01647412109375,-1.2463748563349246,-1.2623133069619537,-0.32308249182552096
1761338364505539800,5.026539794921875,-1.363451668229699,-1.2937971172451972,-0.19809929072037338
1761338364515605000,5.03660498046875,-1.542484877821803,-1.3985089530855417,-0.08755816420465708
1761338364525671000,5.0466708984375,-1.6800731473475694,-1.490854059305787,0.03196092627570033
1761338364535737000,5.056737060546875,-1.8954273781210182,-1.5744178931772708,0.17701587842032313
1761338364545802200,5.06680224609375,-2.197479064616561,-1.58572137748003,0.22353110748827457
1761338364555868000,5.076867919921875,-2.5306366679936647,-1.3729860970333219,0.08619842015877366
1761338364565933000,5.08693310546875,-2.76000364202857,-1.083946013932675,-0.01302840839922428
1761338364575999000,5.0969990234375,-2.7685557817965742,-0.8871966765165329,0.006493892063945531
1761338364586065200,5.107065185546875,-2.6424358317464587,-0.6324763577774166,0.1226028818398714
1761338364596129800,5.1171298828125,-2.3398826254695653,-0.68874199648723,0.5245110730990767
1761338364606196000,5.127196044921875,-1.5688275258243083,-0.7832214843876659,1.1505603204384445
1761338364616261000,5.13726123046875,-1.2419681458085774,-0.5573917445681988,1.4407485506609081
1761338364626327000,5.1473271484375,-1.247308337792754,-0.44312794426754115,1.4799217464029788
1761338364636393000,5.15739306640625,-1.2945961586683987,-0.2839857223205268,1.3572380544118583
1761338364646457900,5.167457763671875,-1.5421125373780726,0.11936828383281826,0.8589122467964887
1761338364656524000,5.17752392578125,-1.7461054161816834,0.7191345044024289,-0.14025485838651655
1761338364666589000,5.1875888671875,-1.9829291359633205,1.4491896312698722,-1.343569886804372
1761338364676655000,5.197655029296875,-2.2280635879725215,2.0870003358125686,-2.4980945808291435
1761338364686721000,5.207720947265625,-2.5180448974460363,2.640377145650983,-3.3181431362241502
1761338364696786000,5.217785888671875,-2.3275042054116724,2.9285066897779704,-3.7283608906671404
1761338364706851800,5.227851806640625,-1.6950176185011863,2.835847695302963,-3.7090421499520536
1761338364716917000,5.2379169921875,-1.2306868733376264,2.5725363660901786,-3.3211569310873745
1761338364726983200,5.247983154296875,-0.9595616555035114,2.264964308737963,-2.953015108090639
1761338364737049000,5.258049072265625,-0.7502940511673688,1.9912259857960044,-2.5258088094457984
1761338364747114000,5.268114013671875,-0.31272973237633706,1.6074311049848793,-1.9064068911664187
1761338364757180000,5.278179931640625,0.5919488248169422,1.1721538742177187,-1.0712579434037208
1761338364767245000,5.2882451171875,1.9117332007557153,0.7097974978670477,-0.283935891829431
1761338364777311000,5.29831103515625,3.2596026844501496,0.22990268834680316,0.37281186063438654
1761338364787377200,5.308377197265625,4.4624400123536585,-0.03767820794396102,0.9666621351584792
1761338364797442000,5.318442138671875,5.12966181255877,0.042327239326201374,1.2522744357675313
1761338364807508000,5.328508056640625,5.215647320619225,0.24020514238085597,1.2473583144143223
1761338364817573000,5.338572998046875,4.555685866805911,0.4932581854948774,1.0714257011860608
1761338364827639000,5.34863916015625,3.561947216412425,0.7398422883231193,0.7303297060251236
1761338364837705000,5.358705078125,2.598697812306881,1.0703348372094332,0.2850137501940131
1761338364847769900,5.368769775390625,1.5638941610753536,1.3619474011465906,-0.1513940920382738
1761338364857836000,5.3788359375,0.4771954874336719,1.4711290758773683,-0.5624819073140621
1761338364867901200,5.388901123046875,-0.033091537740826606,1.472451118261367,-0.9221610223919152
1761338364877967000,5.398967041015625,-0.13839023355841637,1.3952213097169994,-1.1896692187726496
1761338364888032000,5.409031982421875,-0.18175474351048468,1.5550313479229807,-1.4578519534140824
1761338364898098000,5.419097900390625,-0.4129460103631019,2.0219246370509265,-1.7622689077362417
1761338364908164000,5.4291640625,-0.9743845461040734,2.503180505791306,-2.2429291486710308
1761338364918229000,5.43922900390625,-1.761709228026867,3.0202006386131046,-2.713237214678526
1761338364928295000,5.449294921875,-2.577051797688007,3.265195097629726,-2.9646292657777664
1761338364938360000,5.459360107421875,-2.937922752898931,2.9067314958214756,-2.8126690642893313
1761338364948426000,5.469426025390625,-2.7507448152959344,2.11898245100677,-1.9443883929058907
1761338364958493000,5.479492919921875,-2.2313538616895676,1.1172548476859927,-0.7717138558149337
1761338364968557800,5.489557861328125,-1.190298748847842,-0.01981879919171333,0.29854367837458845
1761338364978623700,5.499623779296875,0.2122013197004795,-0.9067227033067494,1.3614996573790907
1761338364988689000,5.50968896484375,1.5856261004120111,-1.4558498198114336,2.307659687256813
1761338364998755000,5.519755126953125,2.5543898840248582,-1.8365233537316321,2.9104709746107456
1761338365008820700,5.52982080078125,3.053475131705403,-2.1173460819765926,3.257606249935925
1761338365018886000,5.539885986328125,3.069330287963152,-2.212708636321872,3.4256901954904198
1761338365028951800,5.549951904296875,2.7719144445747137,-2.1255786344014105,3.4042157380461693
1761338365039017000,5.560016845703125,2.234106959789991,-1.9197899582222102,3.1361133751645682
1761338365049083000,5.570082763671875,1.6704565932184456,-1.6700621870733796,2.679223009134829
1761338365059148800,5.580148681640625,1.2153045952886343,-1.3940990276888012,2.204223278179765
1761338365069214000,5.5902138671875,0.8123591699361801,-1.0936876557461916,1.8295780646383761
1761338365079279900,5.60027978515625,0.5421762013882399,-0.8262664069965481,1.4468383919686079
1761338365089345000,5.610344970703125,0.37514322619140145,-0.6188903154954314,1.0595327265575527
1761338365099410700,5.62041064453125,0.2347615265548229,-0.40273967364728447,0.7258262571260332
1761338365109476900,5.630476806640625,0.15319091232717036,-0.2069559663929045,0.41838937046080826
1761338365119541800,5.640541748046875,-0.04310732032060623,-0.026814503297954796,0.2791986341744661
1761338365129608000,5.65060791015625,-0.32148703932762146,0.09913710444793104,0.07406652220785617
1761338365139673000,5.660673095703125,-0.4415466664254665,0.21579861354008315,-0.1364949213311076
1761338365149738800,5.67073876953125,-0.45883331679105754,0.2780900153454393,-0.2103834566235542
1761338365159805000,5.680804931640625,-0.4259264879673719,0.12990071069784462,-0.1461898013934493
1761338365169869800,5.690869873046875,-0.3110194213271141,-0.10530490636266768,0.09151391609311103
1761338365179936000,5.70093603515625,-0.16924772863686083,-0.3380075276263058,0.43389059871435165
1761338365190001000,5.7110009765625,-0.037010757011175156,-0.8140086907088756,0.91773210003376
1761338365200066800,5.72106689453125,-0.0006722001731395721,-1.4129443056732416,1.6452812354296444
1761338365210132000,5.731132080078125,-0.05159224007129669,-1.898426852197945,2.250191248628497
1761338365220198000,5.741197998046875,-0.047538580766320226,-2.231463167282939,2.575334180115163
1761338365230264000,5.75126416015625,0.014510171389579772,-2.29692260466516,2.537920103000104
1761338365240328700,5.76132861328125,-0.044912908437848086,-1.9182386371269822,2.065741713076085
1761338365250395000,5.771394775390625,-0.36838206149339675,-1.3725310467422007,1.488117912340164
1761338365260459800,5.781459716796875,-0.6576695434838533,-1.0049286643844098,1.1412909723117948
1761338365270526000,5.79152587890625,-0.8049211288899183,-0.8961533054322004,0.9292134251214563
1761338365280592000,5.801591796875,-0.8696288711220026,-0.7956877288594841,0.9828304490186274
1761338365290656800,5.81165673828125,-0.5430453854382038,0.12458667606823146,1.1905761044844985
1761338365300723000,5.821722900390625,0.027196049961447713,1.3617007329091428,1.2463988217324018
1761338365310787800,5.831787841796875,0.7729752540528774,2.1448104274854063,0.7811606063351034
1761338365320854000,5.84185400390625,0.9601187048643827,2.703758607715368,0.2318430087596178
1761338365330920000,5.851919921875,-0.25105448970794675,2.892902292433381,0.10361205790489911
1761338365340984800,5.86198486328125,-1.8863146818608045,2.73733500636369,-0.20253230473175643
1761338365351050800,5.87205078125,-3.083765056028962,2.7898502064988016,-0.7808477409936487
1761338365361116000,5.882115966796875,-4.164889144408702,3.4531881510078906,-0.5837785239733755
1761338365371182000,5.89218212890625,-4.261642714720964,3.9210692821294066,-0.2924986991219222
1761338365381248000,5.902248046875,-3.2672809639930724,3.9535353814482685,0.37485213429033754
1761338365391313000,5.91231298828125,-4.85932920640707,2.790988855139911,1.1801740990661085
1761338365401378800,5.92237890625,-4.363078305369616,1.7207368739083408,1.205477467148751
1761338365411444000,5.93244384765625,-1.9226123221665619,1.7084812034472823,2.2108843435041603
1761338365421510000,5.942510009765625,-0.3408212698727846,1.1935543165776878,2.500098029606044
1761338365431575800,5.952575927734375,1.3433008606046437,0.9246339883767067,2.187550521928817
1761338365441641000,5.962640869140625,2.607878313106298,1.1966240063466131,2.1936085067935287
1761338365451707000,5.972706787109375,3.639280631461739,1.3575104416124522,2.0664248730346557
1761338365461772000,5.98277197265625,4.521172771829367,1.6090043456509708,1.8407167137682436
1761338365471838000,5.992837890625,4.883391634517908,2.061512112682313,1.4640702434070407
1761338365481902800,6.00290283203125,4.2014591719150545,2.482373572345078,1.1813036876179277
1761338365491968800,6.01296875,2.9978906071275473,2.6690873995676636,0.7733670298494398
1761338365502035000,6.023034912109375,2.018697199437022,2.8898201085090633,0.31653657731339335
1761338365512100000,6.03310009765625,1.2455039187192916,3.0735142956495283,0.06284311740398407
1761338365522165800,6.043165771484375,0.8147691536873578,3.2186127946749328,-0.18070742641463874
1761338365532231000,6.05323095703125,0.5577665692299604,3.2570231893509622,0.12543255230784414
1761338365542296800,6.063296875,0.7684376106232405,2.7841251068502664,0.30464287203252316
1761338365552363000,6.073363037109375,0.9023170887589455,2.4762816852107643,0.42117271756902336
1761338365562428000,6.083427978515625,1.0109586652636526,2.606198397195339,0.6685385818921029
1761338365572493800,6.093493896484375,0.8028051596492528,2.599557351745665,0.6534926961906254
1761338365582559000,6.10355908203125,0.5785141737043857,2.4466928948938844,0.33889906963855027
1761338365592625000,6.113625,0.3520429211109876,2.366757772913575,0.11545037973672151
1761338365602690800,6.12369091796875,0.02964928833246231,2.3424203272536395,-0.1409580382198095
1761338365612755700,6.133755615234375,-0.03367021441161632,2.2917107152357694,-0.49521936603263017
1761338365622822000,6.14382177734375,-0.4350771781504154,2.3228182395525274,-0.5634858236595988
1761338365632886800,6.15388671875,-0.5420090281277895,2.476446228122711,-0.3247501327767968
1761338365642953000,6.163952880859375,-0.7535282107830047,2.3978894087582825,-0.16149506868347524
1761338365653019000,6.174018798828125,-0.7723919012069702,2.0171324343383312,-0.0516591678276658
1761338365663083800,6.184083740234375,-0.432914447158575,1.8085669869221745,0.22211042703539133
1761338365673150000,6.19414990234375,-0.05307400306165218,1.586163276028633,0.5572172647841275
1761338365683214800,6.20421484375,0.160810155159235,1.2471236288756131,0.7791200404182076
1761338365693281000,6.214281005859375,0.26942075200378895,1.130641933329776,1.036185314848274
1761338365703345700,6.224345703125,0.3351747884184122,1.0330707630243152,1.2388853773623705
1761338365713411800,6.234411865234375,0.32310791852772236,0.8777884313758462,1.427257493185997
1761338365723477800,6.244477783203125,0.30017244862020015,0.8505315180726349,1.6356337016403675
1761338365733543000,6.25454296875,0.665370619380474,0.8559642106458544,1.6751814297832548
1761338365743608800,6.26460888671875,0.7567576942235231,0.8541611067466437,1.507736220523715
1761338365753673700,6.274673828125,0.7503092487365007,1.0121098811253906,1.071151268158853
1761338365763740000,6.284739990234375,0.894156578657031,1.2142549401052296,0.5357734947390854
1761338365773805800,6.294805908203125,0.8247931195735931,1.3523647492870687,0.1320291740939021
1761338365783871000,6.30487109375,0.7611041989952325,1.5009012599371372,-0.18387158953398466
1761338365793937000,6.31493701171875,0.6831231336921453,1.733491433802247,-0.5034156781002879
1761338365804001800,6.325001708984375,0.40783319739401336,1.9207652329951523,-0.9223863555803894
1761338365814068000,6.33506787109375,0.012217676538228988,2.0715331559590995,-1.332023533656448
1761338365824134000,6.3451337890625,-0.5685118351280689,2.3243222143746913,-1.6978075414806604
1761338365834199000,6.355198974609375,-1.11952600748837,2.3943201719693836,-1.904251320567727
1761338365844265000,6.365264892578125,-1.3931009565621613,2.239920614504814,-2.0425747725002465
1761338365854329900,6.375329833984375,-1.3138415418863296,1.9762223318010568,-2.0384864802733063
1761338365864395800,6.385395751953125,-1.0696738890826702,1.6147262304291128,-1.9687518497899175
1761338365874462000,6.3954619140625,-0.6620651480942964,1.369871179883182,-1.9519585358992217
1761338365884526800,6.40552685546875,-0.22892098383307455,1.4216215331256388,-1.7635528100669382
1761338365894593000,6.415593017578125,0.09842354935109615,1.1433357029471545,-1.284865915031731
1761338365904658000,6.425657958984375,0.36610184160172937,0.6386434290397912,-0.8708588513083756
1761338365914723800,6.435723876953125,0.2887842086434364,0.3753374335892498,-0.4026951038531959
1761338365924789000,6.4457890625,0.09433248064517974,0.20166633555218577,0.03904284736067056
1761338365934855000,6.45585498046875,-0.05068798470795154,0.04715805701613426,0.4915346131052822
1761338365944920800,6.4659208984375,-0.2452104398548603,-0.17964155074879526,1.0547297101899982
1761338365954986000,6.475986083984375,-0.39988369969427584,-0.3928362654007971,1.6634831009440123
1761338365965051600,6.4860517578125,-0.5269470680743455,-0.5339709753617644,2.3951380642235276
1761338365975116800,6.49611669921875,-0.7765133650511503,-0.8427373570650816,3.1406016264945267
1761338365985182500,6.506182373046875,-0.957859527760744,-1.0753953354693948,3.4843224172011014
1761338365995248600,6.51624853515625,-0.650374125778675,-0.9635863809749483,3.689166067615151
1761338366005313500,6.5263134765625,-0.45060500214993954,-0.8450158233910798,3.5993262222141027
1761338366015379700,6.536379638671875,-0.07982932351827621,-0.37383302037566896,3.0664883425354956
1761338366025444900,6.54644482421875,0.16918109314143656,0.43319260651282965,2.4637989279955623
1761338366035510500,6.556510498046875,0.33977848282158374,1.2076686205174774,1.8796666221484541
1761338366045576400,6.566576416015625,0.6842904239058494,1.7063956293448805,1.4630080210030079
1761338366055641600,6.5766416015625,0.7344792269200087,1.9597477284707128,1.029734239012748
1761338366065707800,6.586707763671875,0.30067922909855843,2.218919181399792,0.41069399365261194
1761338366075772400,6.5967724609375,-0.5989701017558574,2.674368262580037,-0.2509668114244938
1761338366085838600,6.606838623046875,-1.6520406465619801,3.205113553893566,-0.9308766821585595
1761338366095904500,6.616904541015625,-2.4984406177878378,3.6753514772742983,-1.57016724999547
1761338366105969700,6.6269697265625,-2.852093896704912,4.023432216756046,-1.9879748750455677
1761338366116035600,6.63703564453125,-2.7263895417183637,4.108423453082144,-2.106964096432924
1761338366126100500,6.6471005859375,-2.023553991818428,3.6884886067450045,-1.8352078872188924
1761338366136166700,6.657166748046875,-0.9575666822940111,3.1765821636751292,-1.2916484147787093
1761338366146231600,6.6672314453125,0.03500935406088829,2.7040286568284033,-0.8743605758190155
1761338366156297700,6.677297607421875,0.8623661866426467,2.386421235413104,-0.5861918687254191
1761338366166363600,6.68736376953125,1.489936359938979,2.2333536572046575,-0.5227184905938804
1761338366176428500,6.697428466796875,1.6892337744027375,2.2602874029681086,-0.6737210990965365
1761338366186494500,6.707494384765625,1.5715946524500846,2.3474448774173853,-0.7216483869194984
1761338366196559600,6.7175595703125,1.3932511786878108,2.2412813814640042,-0.8301144607268274
1761338366206625800,6.727625732421875,1.149287524023652,2.097371507701278,-0.9822194775134324
1761338366216691700,6.737691650390625,1.0500105727136135,1.9828519790738819,-0.8754837346300482
1761338366226756600,6.747756591796875,1.2484744589626788,1.7270624236680567,-0.4828578971095383
1761338366236822500,6.757822509765625,1.6039689818322658,1.3180151743091642,0.07682049709111452
1761338366246887700,6.7678876953125,1.9367910696446895,0.9187683842789381,0.7757493949413299
1761338366256953600,6.77795361328125,2.13656896110177,0.41304800943285225,1.393242264728993
1761338366267019800,6.788019775390625,2.0964631606847046,-0.07567936423197388,1.8729291305869817
1761338366277084700,6.798084716796875,1.8945266298890113,-0.35780707412827756,2.1802692788794635
1761338366287150600,6.808150634765625,1.5349743560612201,-0.39213509486149994,2.1922936248026788
1761338366297215700,6.8182158203125,1.0857120006918906,-0.25190168112181127,1.817235592676699
1761338366307281700,6.82828173828125,0.712206604835391,0.07192001169845462,1.2623302580967546
1761338366317347600,6.83834765625,0.3545937746375799,0.3838231570575386,0.8225672602176666
1761338366327412500,6.84841259765625,-0.11224281586706637,0.5897472231194376,0.565188974315673
1761338366337478700,6.858478759765625,-0.4710135839283466,0.6878844298098236,0.2719200214736163
1761338366347543800,6.868543701171875,-0.8002116360247135,0.6370932769883424,0.02935308186486363
1761338366357609700,6.878609619140625,-1.0126093550801276,0.5579463827762753,-0.10031652349084615
1761338366367674600,6.888674560546875,-1.0683265661269425,0.592309547888115,-0.36500673984140153
1761338366377740500,6.898740478515625,-1.0510060134917496,0.7133242837537079,-0.9297107071191072
1761338366387806700,6.908806640625,-0.9225959066778421,0.8812227166734635,-1.4991078006491063
1761338366397871600,6.91887158203125,-0.5937614271968603,0.9124266871020197,-1.7218562333270906
1761338366407937500,6.9289375,-0.08076689662933349,0.6902688407283276,-1.5286037981159983
1761338366418002700,6.939002685546875,0.4374444918036461,0.2768042863838375,-1.1945406242012977
1761338366428068600,6.949068603515625,0.8294581887751817,-0.2157544090721756,-0.9043484484560788
1761338366438134800,6.959134765625,1.0468453866809606,-0.5733885012537241,-0.5315701978303492
1761338366448199700,6.96919970703125,1.1397054566860199,-0.9096339145783334,-0.16143880845159292
1761338366458265600,6.979265625,0.9853045840471982,-1.2028360127292572,0.038174686224013564
1761338366468330500,6.98933056640625,0.6974485961645841,-1.431166191062331,0.3031184389442205
1761338366478396700,6.999396728515625,0.2615881586819887,-1.5983244000740349,0.696542294974625
1761338366488462600,7.009462646484375,-0.14789339044094085,-1.9334280229523777,0.9522364271819591
1761338366498527500,7.019527587890625,-0.3552811723798513,-2.1675427760362624,1.1204499904654919
1761338366508593700,7.02959375,-0.49159459966421126,-2.1445529455929995,1.4583618026323615
1761338366518658600,7.039658447265625,-0.6412976698756218,-2.0538503458827733,1.5859079860933125
1761338366528724700,7.049724853515625,-0.652946022093296,-1.9961983673810957,1.5889096521273254
1761338366538790700,7.059790771484375,-0.834250683748722,-1.8615254007801412,1.4204207790337502
1761338366548855600,7.06985546875,-1.079713637059927,-1.6933549459859727,1.0780930501207708
1761338366558921500,7.07992138671875,-1.0322726714491843,-1.408948514035344,0.8023680834062397
1761338366568986600,7.089986572265625,-0.7443716753810644,-1.1615545195963233,0.7474984290994703
1761338366579052800,7.100052734375,-0.2461515200972557,-1.1744913041893392,0.7072004671111702
1761338366589118700,7.11011865234375,0.16638415589928626,-1.1835774777688086,0.7014239295363426
1761338366599183600,7.12018359375,0.4277998806238174,-1.1454844784788787,0.7655071101292967
1761338366609249500,7.13024951171875,0.5757762731730938,-1.1688266294911502,0.7998268744908272
1761338366619314700,7.140314697265625,0.6207020410925149,-1.308157943291962,0.8493893623001872
1761338366629380600,7.150380615234375,0.6693436146646737,-1.5832380362316965,1.0754195931278168
1761338366639445500,7.160445556640625,0.8603501706451178,-1.8252207462117074,1.5171556446455419
1761338366649511700,7.17051171875,1.0264297906398772,-1.9220856679439544,1.9727482259497044
1761338366659577600,7.18057763671875,0.8788052802681923,-1.5666323538675904,1.963069274108857
1761338366669642800,7.190642822265625,0.3029237931549549,-0.9927822264514863,1.70828012791723
1761338366679708700,7.200708740234375,-0.49344636501073835,-0.342008068504557,1.392556328291446
1761338366689773600,7.210773681640625,-1.4660913739711046,0.2810750955708325,1.0887760644376276
1761338366699839500,7.220839599609375,-2.360064412754774,0.6731010675020516,1.0063748446047305
1761338366709905700,7.23090576171875,-2.5338988846600055,0.6824431886039674,0.8378440320655703
1761338366719970800,7.240970703125,-1.8813164351820946,0.7836074149653315,0.807453423846513
1761338366730036700,7.25103662109375,-1.1387807430565358,1.0486821005888283,1.040361869880557
1761338366740101600,7.2611015625,-0.559153055152297,1.1521859488788992,1.3260391985498368
1761338366750167600,7.27116748046875,-0.13111118246614933,1.0181935849532484,1.5758488027632236
1761338366760233700,7.281233642578125,-0.14709084188640117,0.829947287466377,1.7710101403355598
1761338366770298600,7.291298583984375,-0.35820670443773267,0.7634271620500832,1.6047611551232634
1761338366780364800,7.30136474609375,-0.2714829452306032,0.8104480025526136,1.2036113810159266
1761338366790429700,7.3114296875,0.03545885139405727,0.9803853939540683,0.7626967288836837
1761338366800495600,7.32149560546875,0.5440928486645221,1.1357924479607493,0.35199075253233314
1761338366810561500,7.3315615234375,1.087255723002553,1.232254268784821,0.020268881046772002
1761338366820626700,7.341626708984375,1.4002461521416902,1.2381161465555428,-0.22525383962765336
1761338366830692600,7.351692626953125,1.533601898664236,1.207330255408585,-0.3862431507460773
1761338366840757500,7.361757568359375,1.3909481624424456,1.2211018833905458,-0.5370357697598636
1761338366850823700,7.37182373046875,1.1246540180265903,1.3115978546127676,-0.7875598058529197
1761338366860888800,7.381888916015625,0.8915893585175275,1.4438416943706571,-0.9847612709507345
1761338366870954800,7.391954833984375,0.6760632783085108,1.6117825781926511,-1.1177972839996217
1761338366881020700,7.402020751953125,0.6028764615446329,1.749824290574342,-1.199295709773898
1761338366891085600,7.41208544921875,0.6266583191484213,1.8133122817531226,-1.1272840742692352
1761338366901151700,7.42215185546875,0.5568675745636225,1.7767250108510255,-0.9853430163614452
1761338366911216600,7.432216552734375,0.4094441397219896,1.609184962914884,-0.7699003766521811
1761338366921282600,7.442282470703125,0.285730081769824,1.395386437150836,-0.4998150232598185
1761338366931348500,7.452348388671875,0.15412147117555142,1.1793583257038145,-0.26015315744280815
1761338366941413600,7.46241357421875,-0.021214637464284897,1.0212555298071353,-0.0677114540927112
1761338366951479600,7.4724794921875,-0.32460955526232715,0.9096854986350983,0.09709507722631096
1761338366961544400,7.48254443359375,-0.6973077263891696,0.8441488312982022,0.20836627158224583
1761338366971610600,7.492610595703125,-0.9330360521495342,0.8212495286826044,0.181817579613626
1761338366981676500,7.502676513671875,-1.048110876572132,0.8228943732801824,0.10673179736062884
1761338366991741400,7.512741455078125,-0.9907394685775041,0.7922212217926978,0.07755509497597814
1761338367001807400,7.522807373046875,-0.8243377770215272,0.6484061867065727,0.010250175857543944
1761338367011872500,7.53287255859375,-0.4790934300094843,0.449025843199715,0.012791530903428792
1761338367021938700,7.542938720703125,-0.12449731728434561,0.250025256258063,0.05682853328958153
1761338367032003300,7.55300341796875,0.11110182913839817,0.0034611367719247937,0.06467939292043447
1761338367042069500,7.563069580078125,0.24299451737105845,-0.20354984774384646,0.06842179431915282
1761338367052135400,7.573135498046875,0.29074761767089363,-0.1935041084172204,0.07268515085205435
1761338367062200600,7.58320068359375,0.34957799230217934,-0.08178597401138395,-0.051865650185197586
1761338367072266500,7.5932666015625,0.3218511964648962,-0.02944339049682021,-0.19644845477342604
1761338367082331400,7.603331298828125,0.2953641715556383,0.004678586270287633,-0.3421683005675673
1761338367092397600,7.6133974609375,0.22862580027878282,0.03395210009291768,-0.39936932043135165
1761338367102463500,7.62346337890625,0.18531681990623472,-0.010928915369324386,-0.4399634888872504
1761338367112528600,7.633528564453125,0.23755320309996603,-0.04902593324724584,-0.46462359063029285
1761338367122594300,7.64359423828125,0.4647574461430311,-0.0593767930002883,-0.4560847487352788
1761338367132659500,7.653659423828125,0.7851485069274902,-0.0752535400353372,-0.435127300902456
1761338367142725400,7.663725341796875,1.105588667550683,-0.05108903978951275,-0.4130389493435621
1761338367152791600,7.67379150390625,1.2481354362666606,-0.06937781640235334,-0.41184769373238084
1761338367162856700,7.683856689453125,1.1268383763283492,-0.09533139202203601,-0.3856263340219855
1761338367172922400,7.69392236328125,0.851613906481862,-0.24615809596851468,-0.45826004694774747
1761338367182987500,7.703987548828125,0.6997159565746783,-0.6218859171148389,-0.269708775164932
1761338367193053400,7.714053466796875,0.6133347271949052,-0.9279315686173737,0.09834814602732658
1761338367203119600,7.72411962890625,0.7283487613409757,-1.2916443231254815,0.5452383654378354
1761338367213184300,7.734184326171875,0.9975053094506263,-1.4541159817561506,0.5746757645852864
1761338367223250400,7.74425048828125,1.504586232060194,-1.5568524258702992,0.8991944266937673
1761338367233315600,7.754315673828125,1.6430173821508884,-1.528868440401554,1.1208102020800113
1761338367243381500,7.764381591796875,0.9637024085700512,-1.4194851056188345,1.4910447595722973
1761338367253446700,7.77444677734375,0.05686228942871093,-1.7455635643899439,1.8793807909443974
1761338367263512300,7.78451220703125,-0.7437339619994163,-2.5329434836313127,1.840254210823029
1761338367273578500,7.79457861328125,-0.802543878364563,-2.6954648266226053,1.4281696395948529
1761338367283643400,7.804643310546875,-0.2714788535773754,-2.8195576547592878,0.14488441788330672
1761338367293709600,7.81470947265625,0.45473348025679583,-2.486896018205583,0.20798983948528765
1761338367303774500,7.8247744140625,0.8971645283013582,-0.7848596069835126,1.9718775805950164
1761338367313840400,7.83484033203125,2.785058588308096,-0.5635045283600688,1.5055961397550999
1761338367323906300,7.84490625,2.268663893908262,-1.317359779140353,1.0047006277821957
1761338367333971500,7.854971435546875,-1.0902589964717626,-0.7141473636396228,0.6059736969076097
1761338367344037600,7.86503759765625,-3.167277451974153,-0.044889235301315784,0.23975743514597414
1761338367354102300,7.875102294921875,-4.684008879858255,0.3494511510521173,0.4740459373615682
1761338367364168400,7.88516845703125,-5.26407320561409,0.3248560773693025,-0.05479015932977199
1761338367374234400,7.895234375,-5.608043294906616,-0.22519056513309477,-1.3569307420283556
1761338367384299500,7.905299560546875,-5.902312072440981,-0.463810228420794,-2.5299729433879254
1761338367394365400,7.915365478515625,-5.4786026760011906,-0.16257263478711245,-1.886451752243936
1761338367404430300,7.925430419921875,-5.157908248355985,-0.05057349148280918,-0.1130894958242774
1761338367414496500,7.93549658203125,-5.462988927283883,-0.3643206572733819,0.7824807490229606
1761338367424562400,7.9455625,-5.133832376241684,-0.06806932761967181,0.9052376523807645
1761338367434627600,7.955627685546875,-4.215400018984079,-0.1380036088610068,0.6507496810927986
1761338367444693500,7.965693603515625,-2.8833038584828374,-0.4030390584526583,0.6617793168902397
1761338367454758400,7.97575830078125,-1.3191624446481465,-0.5174169501196593,0.38595790406391023
1761338367464824300,7.98582421875,0.1927384943395853,-0.7456653684534132,-0.031558482954651114
1761338367474889500,7.995889404296875,1.1958575520187615,-0.20066914120838045,0.6486496400736272
1761338367484955600,8.00595556640625,1.745386454257369,0.9452503676868974,1.7110868559010326
1761338367495020300,8.016020263671875,1.7418191171646118,1.0844206457071006,1.7814049853608012
1761338367505086500,8.02608642578125,2.6095786872833964,1.8837433700680732,1.2923144774720072
1761338367515151600,8.036151611328124,3.258683231517672,1.46682728703022,0.5366336186997592
1761338367525217500,8.046217529296875,2.7369161964297293,0.1968282478712499,-0.8407561201199889
1761338367535283500,8.056283447265624,1.3928268157958983,0.07989259801283478,-1.6268796095594762
1761338367545348400,8.066348388671875,0.13094050207436084,0.08082491042688489,-2.0406594403982163
1761338367555414500,8.07641455078125,-0.02112637465894222,0.4604539037302136,-1.976591457374394
1761338367565479400,8.0864794921875,0.2976771246731281,0.9338356780946254,-1.7294873127274215
1761338367575545600,8.096545654296875,0.8679898717433213,0.9550720159340649,-1.385448542112857
1761338367585611500,8.106611572265624,1.5415367833167313,1.0428772137023508,-0.6134091076053678
1761338367595676400,8.116676513671875,1.3291034084260462,1.4676593539401888,0.4399298788785934
1761338367605742300,8.126742431640626,1.077816863527894,1.690764052709937,0.3683063659086823
1761338367615807500,8.136807373046874,2.50259539937973,1.5327090414777398,0.14946480447612703
1761338367625873700,8.146873779296875,2.731052857354283,1.241740328402072,-0.23918745323829352
1761338367635939300,8.156939208984374,2.48167010025084,1.164660011330992,-0.5165758961856365
1761338367646004500,8.16700439453125,2.156247475039959,1.0486028978727757,-0.7292936409756541
1761338367656070400,8.1770703125,1.7264327474623917,1.0917451433762908,-1.0927981595605611
1761338367666135600,8.187135498046874,2.1638053430736064,1.4892727814637123,-1.2538090979889034
1761338367676201500,8.197201416015625,2.798047833740711,1.5668006961718202,-0.8326353575065731
1761338367686267400,8.207267333984374,3.0923639575481414,1.0650317623652517,-0.25894217421784993
1761338367696332500,8.21733251953125,2.8346465028196572,0.22185831543784587,0.18674553753510117
1761338367706398500,8.2273984375,2.4698101511090993,-0.5586230399288237,0.4617517615210265
1761338367716463600,8.237463623046875,1.4259849890321492,-0.7485008841402828,1.195815101116523
1761338367726529300,8.247529296875,-0.293751475661993,-0.42325683036670086,1.7121555080458521
1761338367736594400,8.257594482421876,-1.302120708954334,-0.3592681231241673,1.3859512309379876
1761338367746660400,8.267660400390625,-2.251265599861741,-0.3133824971966445,0.8726089098460972
1761338367756726500,8.2777265625,-2.7752771990060805,-0.5103050722878426,0.31443025268390773
1761338367766791700,8.287791748046875,-3.0270044734090567,-0.45973245758786796,-0.17754516299143433
1761338367776857300,8.297857421875,-2.8505916754484173,0.20769348688721656,-0.8848015980735421
1761338367786922500,8.307922607421874,-2.6994962740957735,0.8734182534676045,-0.9732651136200875
1761338367796988400,8.317988525390625,-2.821873530486226,0.9011487756319344,-0.3264167508147657
1761338367807054600,8.3280546875,-2.741170931264758,0.8913948588587343,0.5627087748724967
1761338367817119200,8.338119140625,-2.3438749099761247,0.9393914855908602,1.2049747783236204
1761338367827185400,8.348185302734375,-1.3914637107491492,0.9278709244713187,1.4850078174956143
1761338367837250600,8.35825048828125,-0.18943126948773858,0.8733630161490291,1.5457026708245276
1761338367847316500,8.36831640625,0.6212193429648876,0.6993541375249623,1.4808721789956092
1761338367857382700,8.378382568359376,0.9010428310394286,0.6243244693733752,1.3686290708675979
1761338367867447300,8.388447265625,0.6249053380012511,0.9464481991693376,1.2792356540597976
1761338367877513500,8.398513427734375,0.4926765496820211,1.3051485323429106,1.6884893857762218
1761338367887579400,8.408579345703124,0.4542997650146484,0.9264441065385937,1.563279828569293
1761338367897644500,8.41864453125,0.185784437417984,0.07080456126984208,0.8917923337437212
1761338367907710500,8.42871044921875,0.08154840239584446,-0.5714159225391223,0.14917930206563323
1761338367917775400,8.438775390625,0.2466173840433359,-0.6733607413515448,-0.24039302963577208
1761338367927841500,8.448841552734375,0.5765607015490531,-0.5699303966891021,-0.23460326725319028
1761338367937907500,8.458907470703124,1.3085206391245126,-0.2938992866348475,-0.10745824847165494
1761338367947972600,8.46897265625,2.294600883719325,-0.2171956208564341,-0.25935122994277626
1761338367958038500,8.47903857421875,3.2102935868799682,-0.7526231517020613,-0.7708370729804038
1761338367968103700,8.489103759765625,3.618374621555209,-1.5570977789334952,-1.2701703040726482
1761338367978169600,8.499169677734375,3.6182483648270365,-1.8896314051933585,-1.2137585348904132
1761338367988234800,8.50923486328125,3.280351457968354,-1.8338437592588364,-0.7999990892525762
1761338367998300700,8.51930078125,2.800201796904206,-1.7557107182644307,-0.17210552922077477
1761338368008366800,8.529366943359374,1.9494787017822264,-1.4462366266831754,0.26173421608917413
1761338368018431700,8.539431640625,0.5042646961450576,-1.3910035458914936,0.5131660877421498
1761338368028497700,8.54949755859375,-1.0525509048461914,-1.4913916733138262,0.46164011784009634
1761338368038562800,8.559562744140624,-2.1966239090919495,-1.2664441231563686,0.1953362557478249
1761338368048628700,8.569628662109375,-2.6691858915060758,-0.7315555945582688,0.08117094738557934
1761338368058694700,8.579694580078124,-2.9094886855751274,-0.16076722933296114,0.000762654935568571
1761338368068759600,8.589759521484375,-3.2792794448226688,-0.4257212477188557,-0.017168138552457093
1761338368078825700,8.59982568359375,-3.269754660630226,-1.6479153833255171,0.2633021960582584
1761338368088891000,8.609890869140624,-2.7191461464613673,-3.1444384281784292,1.1454342826616017
1761338368098956800,8.619956787109375,-2.8185604604154824,-4.341148505373299,2.6948762130796906
1761338368109022700,8.630022705078124,-3.195700997903943,-4.250741381478309,3.689143563522398
1761338368119087600,8.640087646484375,-3.2243355562359093,-2.930634933978319,3.407714686077833
1761338368129153800,8.65015380859375,-2.961334608146548,-1.6621218955934047,2.1024553868368265
1761338368139218700,8.66021875,-2.657625802093744,0.30502514934837816,1.6426858121089636
1761338368149284600,8.67028466796875,-2.078727597507834,1.2998885659880934,1.8394063618220389
1761338368159350500,8.6803505859375,-1.428131937932968,1.0207621202670036,1.2718155870616434
1761338368169415700,8.690415771484375,-0.8638666543334722,1.440531546909362,0.5345267826136201
1761338368179481900,8.70048193359375,-0.605785626989603,1.8108464761614798,-0.03049538376778364
1761338368189546800,8.710546630859374,-0.47145197534561156,1.9039874089345334,0.0038648587346076964
1761338368199612700,8.72061279296875,-0.014122633376717566,1.9032389286547897,0.34610220595039426
1761338368209678600,8.7306787109375,0.4327934511274099,1.4129564345024526,0.7957028533633798
1761338368219743700,8.74074365234375,0.7122749938964843,0.6836139128837734,1.1800244614623487
1761338368229809700,8.7508095703125,0.9238432763904333,0.15197832166701555,1.6638098486803472
1761338368239874600,8.76087451171875,1.056482983598113,-0.04535651031977031,2.252524806142598
1761338368249940700,8.770940673828125,0.8188876949220896,0.054446382826822806,2.485090137827396
1761338368260005600,8.781005615234376,0.3757248254716396,0.6117839175563305,2.0405625558950007
1761338368270071800,8.79107177734375,0.015665771165490148,1.373088096103072,1.3258622345477342
1761338368280137700,8.8011376953125,0.019135493102669716,1.9513247680403292,0.7183408698067069
1761338368290202600,8.81120263671875,0.36067221776843067,2.0677112595833838,0.06992664592415095
1761338368300268500,8.8212685546875,1.0482359642565249,1.7479785165771842,-0.3473288251359016
1761338368310333700,8.831333740234374,1.9307593882650136,1.4665375103034077,-0.3221929225746542
1761338368320400000,8.84139990234375,2.4544646979391573,1.3076857957355676,-0.3626254707280546
1761338368330465800,8.8514658203125,2.4034271691411733,1.3319672734245658,-0.6096197983250021
1761338368340530700,8.86153076171875,2.2851403969347475,1.3857856651127338,-0.7931463007483631
1761338368350596600,8.8715966796875,2.274760457217693,1.1098017552010715,-0.6517598810486495
1761338368360661800,8.881661865234374,2.4587486588686702,0.6637504708327353,-0.13094678568467497
1761338368370727700,8.891727783203125,2.6780390600472685,0.16537768227048216,0.49685222793146966
1761338368380793900,8.9017939453125,2.684891994681954,-0.44067141796089704,0.839234390445426
1761338368390858800,8.911858642578125,2.356242808640003,-0.8283940666750073,1.0380126764059066
1761338368400924700,8.921924560546875,1.630701505935192,-0.675624959956482,1.149585557122156
1761338368410989800,8.93198974609375,0.7039145773082971,-0.32834201978892086,0.9199504336703568
1761338368421055700,8.9420556640625,-0.21961188821792602,0.16360800571683792,0.3613884032137692
1761338368431122000,8.952121826171876,-1.0412041659235953,0.7020387734990566,-0.29550467600487174
1761338368441186600,8.9621865234375,-1.6593132679134606,1.1712066564954817,-0.7896010293569415
1761338368451252700,8.972252685546875,-1.9344822081804274,1.4870676726348697,-1.0381667709890752
1761338368461318000,8.98231787109375,-1.7939672375530002,1.505186536040902,-1.055946830894798
1761338368471383800,8.9923837890625,-1.3265063776701689,1.3533007149629295,-0.9160282187253236
1761338368481448700,9.00244873046875,-0.7323550743728876,1.0874779874511062,-0.7057531178470701
1761338368491514600,9.0125146484375,-0.18694062171578407,0.897920022843778,-0.5301230677619576
1761338368501580800,9.022580810546875,0.2669283506661653,0.9062253482438624,-0.6014580461140722
1761338368511645700,9.032645751953124,0.5027326642721891,0.9539666850406676,-0.563371184303984
1761338368521711900,9.0427119140625,0.6233470026433467,0.795715420584008,-0.4312676297996193
1761338368531776800,9.05277685546875,0.7941279321968555,0.5605717628438025,-0.3543886805195361
1761338368541842700,9.0628427734375,1.0459452229708432,0.3530322974745184,-0.24798363089524209
1761338368551908600,9.07290869140625,1.211086100810766,0.1351294599304907,-0.07509908012598752
1761338368561973800,9.082973876953124,1.0771271276980638,-0.13328786891810596,-0.003945815016329288
1761338368572039700,9.093039794921875,0.7742185321122408,-0.45999841504767536,0.040900896317511794
1761338368582104600,9.1031044921875,0.3322030791312456,-1.0042489384919404,0.4581469419620931
1761338368592170800,9.113170654296875,-0.21468261512219905,-1.6189439942546189,1.11135731408
1761338368602236700,9.123236572265625,-0.4437620043873787,-1.8081968384355305,1.3481862945586442
1761338368612301800,9.1333017578125,-0.03402209658920765,-1.993857357212901,1.2256696296975016
1761338368622367700,9.14336767578125,0.3259948721408844,-1.823114859973639,0.6704338210541755
1761338368632432600,9.1534326171875,-0.3625923721760511,-1.2879901845321058,-0.11283734769411384
1761338368642498800,9.163498779296875,-1.1406062049180268,-0.4276109339229762,-0.8885502830825746
1761338368652563700,9.173563720703125,-1.4762234764069317,0.09299834596458822,-1.0023923508398234
1761338368662629600,9.183629638671874,-1.3041267880797385,0.14668701032586395,-0.7446214854236691
1761338368672695600,9.193695556640625,-0.8641969092011451,-0.004020743416063488,-0.6359207260776311
1761338368682760700,9.2037607421875,-0.4312468062072992,-0.2023605648940429,-0.6419167516220361
1761338368692826600,9.21382666015625,-0.3409907812207937,-0.33592728728614746,-0.37965683115832505
1761338368702891800,9.223891845703125,-0.07255436407923697,-0.4177148322001099,-0.049083252925053236
1761338368712957700,9.233957763671874,0.3151566672623157,-0.6991035237647593,0.24299780530668794
1761338368723023600,9.244023681640625,0.7431243056684732,-0.9690331020735203,0.609267258560285
1761338368733088800,9.2540888671875,1.2435223895132541,-1.0802807694233953,0.9656443364180624
