time,seconds_elapsed,z,y,x
1761338359563330000,0.084330078125,0.10225455462932587,-0.27546873688697815,-0.36722373962402344
1761338359573396200,0.094396240234375,0.060494061559438705,-0.31682708859443665,-0.3391715884208679
1761338359583461000,0.104461181640625,0.022021401673555374,-0.36193814873695374,-0.3687962293624878
1761338359593527000,0.114527099609375,0.02397136762738228,-0.39212775230407715,-0.4421415328979492
1761338359603592200,0.12459228515625,0.05165702477097511,-0.425618976354599,-0.5262734293937683
1761338359613658000,0.134658203125,0.08988643437623978,-0.45071926712989807,-0.6088979840278625
1761338359623724000,0.14472412109375,0.13721095025539398,-0.42570143938064575,-0.6626308560371399
1761338359633789200,0.1547890625,0.16312271356582642,-0.36707940697669983,-0.7023013234138489
1761338359643855000,0.164855224609375,0.1696384698152542,-0.2886882424354553,-0.7446839809417725
1761338359653920300,0.174920166015625,0.16751380264759064,-0.231029212474823,-0.7860457897186279
1761338359663986200,0.184986083984375,0.15598681569099426,-0.20634065568447113,-0.8109658360481262
1761338359674052000,0.195052001953125,0.14084435999393463,-0.22211535274982452,-0.8145735859870911
1761338359684117000,0.205116943359375,0.10697946697473526,-0.3178675174713135,-0.8029482364654541
1761338359694183200,0.21518310546875,0.04868686944246292,-0.44163259863853455,-0.7758782505989075
1761338359704248000,0.225248046875,-0.018919188529253006,-0.5337107181549072,-0.7226396799087524
1761338359714314000,0.23531396484375,-0.08383852988481522,-0.512650191783905,-0.6237796545028687
1761338359724380000,0.2453798828125,-0.11599945276975632,-0.39685317873954773,-0.48792698979377747
1761338359734445000,0.255445068359375,-0.1298697292804718,-0.24519415199756622,-0.34514373540878296
1761338359744511200,0.26551123046875,-0.15148292481899261,-0.12721481919288635,-0.21800896525382996
1761338359754576100,0.275576171875,-0.20050746202468872,-0.08285028487443924,-0.10626351088285446
1761338359764642000,0.28564208984375,-0.2627306282520294,-0.10969264060258865,-0.02975885383784771
1761338359774708000,0.2957080078125,-0.3352367877960205,-0.18213701248168945,0.017666984349489212
1761338359784773000,0.305773193359375,-0.4156650900840759,-0.2779991924762726,0.04418438673019409
1761338359794839000,0.315839111328125,-0.49570563435554504,-0.33859917521476746,0.052092909812927246
1761338359804904000,0.325904052734375,-0.5610252618789673,-0.34213727712631226,0.045853689312934875
1761338359814970000,0.33597021484375,-0.5966892242431641,-0.31440287828445435,0.029182832688093185
1761338359825036000,0.3460361328125,-0.6073344945907593,-0.29472461342811584,-0.01021619327366352
1761338359835101200,0.35610107421875,-0.5842542052268982,-0.27456608414649963,-0.036060307174921036
1761338359845167000,0.3661669921875,-0.5232349634170532,-0.26217135787010193,-0.018485354259610176
1761338359855233300,0.3762333984375,-0.4514891505241394,-0.262838751077652,0.06384147703647614
1761338359865298000,0.3862978515625,-0.3752555549144745,-0.2755715250968933,0.1979677528142929
1761338359875364000,0.396364013671875,-0.32991790771484375,-0.3453176021575928,0.3532484173774719
1761338359885429200,0.40642919921875,-0.3357241451740265,-0.46527454257011414,0.4734331965446472
1761338359895495200,0.4164951171875,-0.3990536034107208,-0.5717863440513611,0.522155225276947
1761338359905560000,0.42656005859375,-0.4826773405075073,-0.5965965390205383,0.5252053141593933
1761338359915626000,0.4366259765625,-0.5770635604858398,-0.5021206140518188,0.5031013488769531
1761338359925692200,0.446692138671875,-0.6700996160507202,-0.2769903838634491,0.4733358323574066
1761338359935757000,0.456757080078125,-0.7887000441551208,0.01821064203977585,0.4558681547641754
1761338359945823200,0.4668232421875,-0.8995411992073059,0.3007851541042328,0.4449128806591034
1761338359955888600,0.476888671875,-0.9687072038650513,0.49418312311172485,0.4231410026550293
1761338359965953800,0.486953857421875,-0.9993352293968201,0.5538103580474854,0.37691158056259155
1761338359976019700,0.497019775390625,-1.005292534828186,0.47345635294914246,0.294089674949646
1761338359986084600,0.507084716796875,-1.003119945526123,0.31776249408721924,0.18624714016914368
1761338359996150800,0.51715087890625,-0.999442994594574,0.1622360348701477,0.09882194548845291
1761338360006216700,0.527216796875,-0.9754335880279541,0.04306045174598694,0.05012433975934982
1761338360016281600,0.537281494140625,-0.9421816468238831,-0.0029054423794150352,0.047618571668863297
1761338360026347500,0.547347412109375,-0.9047253727912903,0.008988589979708195,0.0817805677652359
1761338360036412700,0.55741259765625,-0.8719719648361206,-0.006866805255413055,0.12171068042516708
1761338360046478800,0.567478759765625,-0.8348529934883118,-0.04626147449016571,0.15656042098999023
1761338360056544800,0.577544677734375,-0.8028721809387207,-0.07889052480459213,0.19243186712265015
1761338360066609700,0.587609619140625,-0.7901051044464111,-0.09012781828641891,0.2058332860469818
1761338360076675600,0.597675537109375,-0.7950947880744934,-0.10544152557849884,0.20188461244106293
1761338360086740700,0.60774072265625,-0.8106315732002258,-0.11115095764398575,0.18423978984355927
1761338360096806700,0.617806640625,-0.8290764093399048,-0.12189068645238876,0.1525266021490097
1761338360106872800,0.627872802734375,-0.8401957154273987,-0.13189411163330078,0.1074974536895752
1761338360116937700,0.637937744140625,-0.8557930588722229,-0.13798049092292786,0.05626355856657028
1761338360127003600,0.648003662109375,-0.89101642370224,-0.15956604480743408,-0.023418093100190163
1761338360137068800,0.65806884765625,-0.9480895400047302,-0.1688128113746643,-0.11687853187322617
1761338360147134700,0.668134765625,-1.0097845792770386,-0.12842251360416412,-0.21179892122745514
1761338360157201000,0.678200927734375,-1.0695302486419678,-0.03326564282178879,-0.2827188968658447
1761338360167265500,0.688265625,-1.128703236579895,0.10966922342777252,-0.3332863450050354
1761338360177331700,0.698331787109375,-1.1718741655349731,0.24249011278152466,-0.36773166060447693
1761338360187396900,0.70839697265625,-1.1904796361923218,0.3575398325920105,-0.4084371030330658
1761338360197462800,0.718462890625,-1.187394618988037,0.4703196585178375,-0.43285056948661804
1761338360207528700,0.72852880859375,-1.166703224182129,0.587070643901825,-0.4422245919704437
1761338360217593600,0.738593505859375,-1.133830189704895,0.6623139977455139,-0.447727233171463
1761338360227659800,0.74865966796875,-1.1014279127120972,0.6769275665283203,-0.45575737953186035
1761338360237724700,0.758724609375,-1.0762724876403809,0.6406028866767883,-0.47595852613449097
1761338360247790800,0.768790771484375,-1.068542718887329,0.5632225275039673,-0.5103734731674194
1761338360257856500,0.7788564453125,-1.074893832206726,0.4460735321044922,-0.5664127469062805
1761338360267921700,0.788921630859375,-1.0873730182647705,0.334105521440506,-0.6169976592063904
1761338360277987800,0.79898779296875,-1.0949467420578003,0.2248632162809372,-0.6494645476341248
1761338360288053800,0.8090537109375,-1.0885353088378906,0.1606641560792923,-0.6698623299598694
1761338360298119000,0.819118896484375,-1.0751551389694214,0.13059253990650177,-0.6862983107566833
1761338360308184600,0.8291845703125,-1.0647497177124023,0.09303269535303116,-0.7178716063499451
1761338360318249700,0.839249755859375,-1.0506967306137085,0.07684946060180664,-0.7799341678619385
1761338360328315600,0.849315673828125,-1.0388318300247192,0.11517217755317688,-0.8827332854270935
1761338360338381800,0.8593818359375,-1.033713698387146,0.1548120081424713,-0.9987163543701172
1761338360348446700,0.86944677734375,-1.0177528858184814,0.20720432698726654,-1.0817408561706543
1761338360358512600,0.8795126953125,-0.9976940155029297,0.2629373371601105,-1.1144300699234009
1761338360368577800,0.889577880859375,-0.9790986776351929,0.29758891463279724,-1.0878496170043945
1761338360378643700,0.899643798828125,-0.9488326907157898,0.31751149892807007,-0.9819389581680298
1761338360388710000,0.9097099609375,-0.9065181016921997,0.3488452136516571,-0.8048253059387207
1761338360398774500,0.9197744140625,-0.8358287215232849,0.3716927170753479,-0.5597511529922485
1761338360408840700,0.9298408203125,-0.7279936075210571,0.41525882482528687,-0.2653411328792572
1761338360418905900,0.93990576171875,-0.5991852879524231,0.5121645331382751,0.027354391291737556
1761338360428971800,0.9499716796875,-0.46155765652656555,0.5883720517158508,0.26276353001594543
1761338360439037700,0.96003759765625,-0.32097044587135315,0.5728163123130798,0.3971428871154785
1761338360449102600,0.9701025390625,-0.1796460747718811,0.5658595561981201,0.45678892731666565
1761338360459168800,0.980168701171875,-0.03439248725771904,0.7036555409431458,0.4426073133945465
1761338360469233700,0.990233642578125,0.11033172160387039,0.9195711016654968,0.36900365352630615
1761338360479299800,1.0002998046875,0.24094565212726593,1.0783659219741821,0.2529641091823578
1761338360489365800,1.01036572265625,0.35165005922317505,1.167950987815857,0.1300768405199051
1761338360499430700,1.0204306640625,0.43281280994415283,1.1771734952926636,0.013004270382225513
1761338360509496600,1.03049658203125,0.5105457901954651,1.1618671417236328,-0.062281534075737
1761338360519561700,1.040561767578125,0.5779032707214355,1.225580096244812,-0.07380050420761108
1761338360529628000,1.0506279296875,0.6405611038208008,1.2773685455322266,0.0027839872054755688
1761338360539693800,1.06069384765625,0.6954565644264221,1.2333272695541382,0.16312891244888306
1761338360549758700,1.0707587890625,0.7177109122276306,1.1159924268722534,0.3693612515926361
1761338360559824600,1.08082470703125,0.6935121417045593,1.0649476051330566,0.5179595351219177
1761338360569889800,1.090889892578125,0.6520404815673828,1.0750739574432373,0.5213494896888733
1761338360579955700,1.100955810546875,0.6385457515716553,1.086949348449707,0.3579917252063751
1761338360590021600,1.111021728515625,0.7290563583374023,1.0904940366744995,0.09567820280790329
1761338360600086800,1.121086669921875,0.9040529727935791,0.9787063002586365,-0.19061186909675598
1761338360610152700,1.131152587890625,1.0867714881896973,0.6404449343681335,-0.4491637349128723
1761338360620217900,1.1412177734375,1.2387921810150146,0.15305739641189575,-0.6101829409599304
1761338360630283800,1.15128369140625,1.3624361753463745,-0.2364959418773651,-0.6217229962348938
1761338360640349700,1.161349609375,1.4892984628677368,-0.4646761119365692,-0.4550304114818573
1761338360650414600,1.17141455078125,1.5956289768218994,-0.5536546111106873,-0.14474448561668396
1761338360660480800,1.181480712890625,1.672943115234375,-0.5057691335678101,0.23559699952602386
1761338360670546000,1.1915458984375,1.7085703611373901,-0.296497642993927,0.6169653534889221
1761338360680611600,1.201611572265625,1.7283656597137451,0.0037135696038603783,0.8968396186828613
1761338360690677800,1.211677734375,1.7546181678771973,0.27620500326156616,1.0470868349075317
1761338360700742700,1.22174267578125,1.7789230346679688,0.42086073756217957,1.0706920623779297
1761338360710808800,1.231808837890625,1.723252296447754,0.43284788727760315,1.036368727684021
1761338360720874800,1.241874755859375,1.5491119623184204,0.40552037954330444,0.990350067615509
1761338360730939600,1.251939697265625,1.2587666511535645,0.3801134526729584,0.9472296237945557
1761338360741005600,1.262005615234375,0.9418609142303467,0.30338191986083984,0.8802857398986816
1761338360751070700,1.27207080078125,0.7261539697647095,0.1584557443857193,0.7673985362052917
1761338360761137000,1.282136962890625,0.5936217308044434,-0.048393040895462036,0.6351087093353271
1761338360771202800,1.292202880859375,0.5096148252487183,-0.22542402148246765,0.49926820397377014
1761338360781267700,1.302267822265625,0.3994777202606201,-0.24298730492591858,0.32674679160118103
1761338360791333600,1.312333740234375,0.249262735247612,-0.13890612125396729,0.11981267482042313
1761338360801398800,1.322398681640625,0.10125011205673218,-0.018933899700641632,-0.11178912222385406
1761338360811464700,1.332464599609375,-0.020909005776047707,0.0004078056663274765,-0.34600701928138733
1761338360821531000,1.34253076171875,-0.08589812368154526,-0.1689460724592209,-0.5490326285362244
1761338360831595800,1.352595703125,-0.10521570593118668,-0.46505919098854065,-0.6958541870117188
1761338360841661700,1.36266162109375,-0.05834541097283363,-0.8465386033058167,-0.8174629211425781
1761338360851726800,1.372726806640625,0.07382704317569733,-1.2850021123886108,-0.9349035620689392
1761338360861792800,1.382792724609375,0.2762365937232971,-1.6914160251617432,-1.0253900289535522
1761338360871859000,1.39285888671875,0.490926593542099,-2.025160074234009,-1.0610498189926147
1761338360881923600,1.402923583984375,0.6451395750045776,-2.229938268661499,-1.0246180295944214
1761338360891989800,1.41298974609375,0.732941210269928,-2.297285556793213,-0.9296168088912964
1761338360902055000,1.423054931640625,0.7695533037185669,-2.253098964691162,-0.7979636788368225
1761338360912120800,1.433120849609375,0.802409827709198,-2.1586334705352783,-0.6447984576225281
1761338360922186500,1.4431865234375,0.8510937690734863,-1.9641526937484741,-0.4907657504081726
1761338360932251600,1.453251708984375,0.9091333746910095,-1.6939908266067505,-0.3594817519187927
1761338360942317800,1.46331787109375,0.9646597504615784,-1.3830101490020752,-0.2503294348716736
1761338360952382700,1.4733828125,1.1841198205947876,-0.9183765053749084,-0.2636774778366089
1761338360962449700,1.48344970703125,2.2295479774475098,0.2954883277416229,-0.9142999649047852
1761338360972515600,1.493515625,2.136826753616333,0.4134715497493744,-1.4836362600326538
1761338360982580700,1.503580810546875,1.6307790279388428,0.5951891541481018,-1.7415711879730225
1761338360992646700,1.513646728515625,1.2791975736618042,0.9633039236068726,-1.8429570198059082
1761338361002711600,1.523711669921875,0.8832485675811768,1.0517925024032593,-1.8979556560516357
1761338361012777500,1.533777587890625,0.49941858649253845,0.7924720644950867,-1.905950665473938
1761338361022843600,1.54384375,0.193900465965271,0.4719172716140747,-1.7550263404846191
1761338361032908800,1.55390869140625,0.02334679290652275,0.24932561814785004,-1.4341011047363281
1761338361042974700,1.563974609375,-0.0521964356303215,0.06443006545305252,-1.0461760759353638
1761338361053039600,1.57403955078125,-0.09606815129518509,0.051364410668611526,-0.7129507064819336
1761338361063105500,1.58410546875,-0.13294973969459534,0.12244099378585815,-0.43030574917793274
1761338361073171700,1.594171630859375,-0.15628811717033386,0.3039611577987671,-0.153886079788208
1761338361083236600,1.604236572265625,-0.16755275428295135,0.5441343188285828,0.0826239213347435
1761338361093302800,1.614302734375,-0.08076130598783493,0.7394545078277588,0.24125821888446808
1761338361103367700,1.62436767578125,0.1520327925682068,0.8534839153289795,0.3459998071193695
1761338361113433600,1.63443359375,0.45910435914993286,0.8722777366638184,0.41754743456840515
1761338361123499500,1.64449951171875,0.7959420680999756,0.849223256111145,0.4642083942890167
1761338361133564700,1.654564697265625,1.0309028625488281,0.7992856502532959,0.45016855001449585
1761338361143630800,1.664630859375,1.0580955743789673,0.7183130383491516,0.3542417585849762
1761338361153695500,1.674695556640625,0.8979092240333557,0.5855789184570312,0.21412241458892822
1761338361163761700,1.68476171875,0.6240992546081543,0.3525272607803345,0.06827917695045471
1761338361173827600,1.69482763671875,0.36387473344802856,0.1095796450972557,-0.024254675954580307
1761338361183892700,1.704892822265625,0.23952242732048035,-0.065458744764328,-0.017744844779372215
1761338361193958400,1.71495849609375,0.2925574779510498,-0.24403108656406403,0.06747647374868393
1761338361204023600,1.7250234375,0.437076598405838,-0.4432304799556732,0.2053842693567276
1761338361214089700,1.73508984375,0.5689215660095215,-0.6432924866676331,0.35800832509994507
1761338361224155600,1.74515576171875,0.6148149967193604,-0.8582887053489685,0.4762260615825653
1761338361234220800,1.755220703125,0.5646300315856934,-1.076555848121643,0.5564088821411133
1761338361244286500,1.765286376953125,0.4064371883869171,-1.151125192642212,0.6103941202163696
1761338361254351600,1.7753515625,0.26669177412986755,-1.1864328384399414,0.6009180545806885
1761338361264417500,1.78541748046875,0.20194019377231598,-1.01131010055542,0.5074741244316101
1761338361274483700,1.795483642578125,0.164643332362175,-0.614154040813446,0.43027162551879883
1761338361284548600,1.805548583984375,0.09761129319667816,-0.2006966769695282,0.43136510252952576
1761338361294614500,1.815614501953125,0.039557285606861115,-0.025658313184976578,0.4403056204319
1761338361304679700,1.8256796875,0.015211200341582298,0.10080002248287201,0.3308006823062897
1761338361314745600,1.83574560546875,0.033647097647190094,0.1566230058670044,0.16153056919574738
1761338361324811800,1.845811767578125,0.019098514690995216,0.26399660110473633,0.054218485951423645
1761338361334876400,1.85587646484375,0.042875297367572784,0.4058181643486023,0.08746051788330078
1761338361344942600,1.865942626953125,0.07708387076854706,0.5048725605010986,0.2231570929288864
1761338361355007700,1.8760078125,0.10211855918169022,0.4056330919265747,0.30218061804771423
1761338361365073700,1.88607373046875,0.10797804594039917,0.32163006067276,0.2898864150047302
1761338361375139800,1.896139892578125,0.08072355389595032,0.2777330279350281,0.2998948097229004
1761338361385204500,1.90620458984375,0.06806554645299911,0.23483562469482422,0.38323548436164856
1761338361395270700,1.916270751953125,0.08335984498262405,0.21094131469726562,0.4454232156276703
1761338361405335600,1.92633544921875,0.10095135867595673,0.2754542827606201,0.4200209081172943
1761338361415401700,1.936401611328125,0.13214688003063202,0.06830466538667679,0.2768189609050751
1761338361425467600,1.946467529296875,0.2444755584001541,-0.19090905785560608,0.1546318084001541
1761338361435532500,1.956532470703125,0.3483666777610779,-0.2659730613231659,0.1746985912322998
1761338361445598700,1.9665986328125,0.36477068066596985,-0.49293404817581177,0.3822789490222931
1761338361455663600,1.97666357421875,0.3764117658138275,-0.5976250767707825,0.5842978954315186
1761338361465729800,1.986729736328125,0.33931154012680054,-0.6295922994613647,0.7231234312057495
1761338361475795700,1.996795654296875,0.22709934413433075,-0.5189180374145508,0.8076049089431763
1761338361485860600,2.006860595703125,0.01241661049425602,-0.36875593662261963,0.823976993560791
1761338361495926500,2.016926513671875,-0.3309011459350586,-0.2324071079492569,0.7793939113616943
1761338361505991700,2.02699169921875,-0.7362046837806702,-0.028337333351373672,0.6937969923019409
1761338361516057900,2.037057861328125,-1.1018539667129517,0.162419393658638,0.5524805188179016
1761338361526123500,2.04712353515625,-1.3700891733169556,0.2568090260028839,0.41736429929733276
1761338361536188700,2.057188720703125,-1.5742486715316772,0.295808345079422,0.3414556682109833
1761338361546254600,2.067254638671875,-1.732346773147583,0.3043197989463806,0.3183719217777252
1761338361556319700,2.07731982421875,-1.859649896621704,0.24604305624961853,0.29434439539909363
1761338361566385700,2.0873857421875,-1.9971786737442017,0.09524530917406082,0.36028212308883667
1761338361576451600,2.09745166015625,-2.1168758869171143,0.013801898807287216,0.4693700671195984
1761338361586516700,2.107516845703125,-2.17525053024292,-0.028213195502758026,0.601875901222229
1761338361596582700,2.117582763671875,-2.1609888076782227,0.027607137337327003,0.6751915812492371
1761338361606647800,2.127647705078125,-1.9969110488891602,0.08984201401472092,0.6760213971138
1761338361616713500,2.13771337890625,-1.8236238956451416,0.002898859791457653,0.6810334324836731
1761338361626779600,2.147779541015625,-1.6108484268188477,-0.06363648921251297,0.7209315896034241
1761338361636844500,2.157844482421875,-1.2581835985183716,-0.12375251203775406,0.7989444732666016
1761338361646910700,2.16791064453125,-0.8274324536323547,0.018114082515239716,0.7940157651901245
1761338361656976000,2.177975830078125,-0.49447041749954224,0.5863875150680542,1.0103001594543457
1761338361667041500,2.18804150390625,-0.46987131237983704,1.3047360181808472,1.4836708307266235
1761338361677107500,2.198107421875,-0.7168172001838684,1.5535727739334106,1.8224713802337646
1761338361687172600,2.208172607421875,-0.7985248565673828,1.326641321182251,1.9475864171981812
1761338361697238800,2.21823876953125,-0.8267961144447327,0.769771933555603,1.8575680255889893
1761338361707303400,2.228303466796875,-0.8108011484146118,0.06971023976802826,1.5433062314987183
1761338361717369600,2.23836962890625,-0.7597166895866394,-0.36303526163101196,1.1557856798171997
1761338361727435500,2.248435546875,-0.7668233513832092,-0.27461883425712585,0.8117856979370117
1761338361737500700,2.258500732421875,-0.8298808336257935,-0.44689950346946716,0.5800487399101257
1761338361747566600,2.268566650390625,-0.8325360417366028,-0.8418825268745422,0.5810077786445618
1761338361757631500,2.278631591796875,-0.6765492558479309,-0.8633948564529419,0.6876588463783264
1761338361767697700,2.28869775390625,-0.36582151055336,-0.19297707080841064,0.30195772647857666
1761338361777763600,2.298763671875,-0.19567599892616272,0.05422533303499222,-0.27041351795196533
1761338361787828700,2.308828857421875,-0.12171735614538193,0.22423914074897766,-0.8413134813308716
1761338361797894700,2.318894775390625,-0.10478335618972778,-0.11892565339803696,-1.440432071685791
1761338361807959600,2.32895947265625,-0.2705768346786499,-0.6347328424453735,-1.9543625116348267
1761338361818025500,2.339025390625,-0.6260433197021484,-0.5088437795639038,-2.3382396697998047
1761338361828091600,2.349091552734375,-1.1440324783325195,0.2836783230304718,-2.6408817768096924
1761338361838156800,2.35915673828125,-1.6712067127227783,1.0895813703536987,-2.9081411361694336
1761338361848222700,2.36922265625,-2.017200469970703,1.4866174459457397,-3.0063140392303467
1761338361858287600,2.37928759765625,-2.131603240966797,1.378981590270996,-2.7594685554504395
1761338361868353500,2.389353515625,-2.2174782752990723,0.5631382465362549,-2.3365848064422607
1761338361878419700,2.399419677734375,-2.149648666381836,-0.6629957556724548,-1.711021065711975
1761338361888484600,2.409484619140625,-1.8622703552246094,-1.4975645542144775,-1.052931785583496
1761338361898550800,2.41955078125,-1.1510940790176392,-2.333932638168335,-0.44200584292411804
1761338361908615700,2.42961572265625,0.4674064517021179,-2.5216104984283447,-0.10717539489269257
1761338361918681600,2.439681640625,2.2214765548706055,-2.3789098262786865,-0.10055956244468689
1761338361928747800,2.449747802734375,2.8636040687561035,-2.122267723083496,-0.2638810873031616
1761338361938812700,2.459812744140625,2.9886183738708496,-1.8464182615280151,-0.3678794801235199
1761338361948878600,2.469878662109375,3.1533477306365967,-1.2817463874816895,-0.37102362513542175
1761338361958943200,2.479943115234375,3.162179708480835,-0.31204646825790405,-0.2809946537017822
1761338361969009200,2.490009033203125,2.9510698318481445,0.747761070728302,-0.2113969326019287
1761338361979075000,2.500074951171875,2.73059344291687,1.6257734298706055,-0.15384553372859955
1761338361989140000,2.510139892578125,2.582218647003174,1.7947864532470703,-0.02314823493361473
1761338361999206100,2.5202060546875,2.4776291847229004,1.9287890195846558,0.24120336771011353
1761338362009271000,2.53027099609375,2.4242136478424072,1.9239715337753296,0.5725501179695129
1761338362019337200,2.540337158203125,2.3712000846862793,1.6925883293151855,0.854373574256897
1761338362029403100,2.550403076171875,2.28165864944458,1.7296841144561768,0.9502625465393066
1761338362039468000,2.560468017578125,2.122501850128174,1.9058785438537598,0.8489444255828857
1761338362049534200,2.5705341796875,1.9556857347488403,2.40041446685791,0.48154300451278687
1761338362059599000,2.58059912109375,2.040560245513916,1.5646597146987915,-0.07339143007993698
1761338362069665300,2.590665283203125,2.6495025157928467,1.0201117992401123,-0.5224640965461731
1761338362079731000,2.60073095703125,3.24269962310791,0.8699678778648376,-0.4072878956794739
1761338362089796000,2.610796142578125,3.410172939300537,0.4604301452636719,-0.3082984685897827
1761338362099862000,2.620862060546875,3.503340721130371,0.06550144404172897,-0.35388487577438354
1761338362109927200,2.63092724609375,3.399596929550171,-0.14255401492118835,-0.36460354924201965
1761338362119993000,2.6409931640625,2.921387195587158,-0.23428761959075928,-0.41062507033348083
1761338362130059000,2.65105908203125,2.3642704486846924,-0.3274069130420685,-0.42081645131111145
1761338362140124200,2.661124267578125,1.9516538381576538,-0.7120358347892761,-0.40144839882850647
1761338362150190000,2.671190185546875,1.696612000465393,-0.5038474798202515,-0.21215784549713135
1761338362160255200,2.681255126953125,1.6369330883026123,-0.35152721405029297,0.06821489334106445
1761338362170321000,2.69132080078125,1.725440263748169,-0.2717586159706116,0.21630342304706573
1761338362180387000,2.701386962890625,1.8939851522445679,-0.09622470289468765,0.28835242986679077
1761338362190452200,2.7114521484375,2.057863712310791,0.1525781899690628,0.23641280829906464
1761338362200518100,2.72151806640625,2.1771299839019775,0.3702668249607086,0.10773756355047226
1761338362210583300,2.731583251953125,2.2094337940216064,0.45340776443481445,-0.04912155494093895
1761338362220649000,2.74164892578125,2.1044228076934814,0.358530193567276,-0.22418612241744995
1761338362230715100,2.751715087890625,1.931594967842102,0.2546781003475189,-0.3609652817249298
1761338362240780000,2.761780029296875,1.866672396659851,0.26679372787475586,-0.5224493145942688
1761338362250846200,2.77184619140625,1.8104615211486816,0.29204607009887695,-0.6491886377334595
1761338362260911000,2.7819111328125,1.7973273992538452,0.31764212250709534,-0.7542279362678528
1761338362270977000,2.79197705078125,1.82485830783844,0.3875165581703186,-0.8171302080154419
1761338362281043000,2.80204296875,1.8572806119918823,0.5040364265441895,-0.819016695022583
1761338362291108000,2.812108154296875,1.9091891050338745,0.6250087022781372,-0.7688901424407959
1761338362301174300,2.82217431640625,2.0151100158691406,0.6828973293304443,-0.6352936625480652
1761338362311239000,2.832239013671875,2.1507108211517334,0.6899842619895935,-0.4194990396499634
1761338362321305000,2.84230517578125,2.2893121242523193,0.6957373023033142,-0.17520643770694733
1761338362331371000,2.85237109375,2.3143908977508545,0.8412902355194092,-0.0335284024477005
1761338362341436200,2.862436279296875,2.2354483604431152,0.9954507350921631,0.03999766334891319
1761338362351502000,2.872502197265625,2.1535239219665527,1.111257553100586,0.029949821531772614
1761338362361567000,2.88256689453125,2.070997953414917,1.24941885471344,-0.0452609658241272
1761338362371633200,2.892633056640625,2.0238561630249023,1.429105520248413,-0.15193814039230347
1761338362381698000,2.902697998046875,1.9903225898742676,1.5327991247177124,-0.2733530104160309
1761338362391764200,2.91276416015625,1.9502646923065186,1.4166282415390015,-0.4267473518848419
1761338362401830100,2.922830078125,1.9080743789672852,1.1583465337753296,-0.6287222504615784
1761338362411895000,2.93289501953125,1.9608944654464722,0.8875177502632141,-0.8433901071548462
1761338362421961000,2.9429609375,2.1519508361816406,0.6107860803604126,-1.0360448360443115
1761338362432027100,2.953027099609375,2.413160562515259,0.23443424701690674,-1.2190476655960083
1761338362442092300,2.96309228515625,2.8355047702789307,-0.0783759206533432,-1.2384556531906128
1761338362452158200,2.973158203125,3.2395174503326416,-0.3578009009361267,-1.1408185958862305
1761338362462223000,2.98322314453125,3.399550676345825,-0.6722764372825623,-1.005691409111023
1761338362472289000,2.9932890625,3.2079930305480957,-0.8372925519943237,-0.8999253511428833
1761338362482354200,3.003354248046875,2.845576524734497,-0.824251651763916,-0.817086935043335
1761338362492420000,3.013420166015625,2.5135107040405273,-0.7135581374168396,-0.7414544820785522
1761338362502486000,3.023486083984375,2.298382520675659,-0.5293759703636169,-0.6607129573822021
1761338362512551200,3.03355126953125,2.228496551513672,-0.21981866657733917,-0.530879557132721
1761338362522617000,3.0436171875,2.132798910140991,-0.019872209057211876,-0.3384101688861847
1761338362532682200,3.05368212890625,1.9895929098129272,0.10678347200155258,-0.08298665285110474
1761338362542748200,3.063748046875,1.6574382781982422,0.2812003195285797,-0.02470065839588642
1761338362552814000,3.07381396484375,1.0112859010696411,0.1580142378807068,-0.149683877825737
1761338362562879000,3.08387890625,0.606404721736908,-0.27286359667778015,-0.5421768426895142
1761338362572945200,3.093945068359375,0.558811604976654,-0.7993084788322449,-1.133164405822754
1761338362583010300,3.10401025390625,0.5808343887329102,-1.2476290464401245,-1.6408311128616333
1761338362593076000,3.114075927734375,0.6084764003753662,-1.2496311664581299,-1.8202654123306274
1761338362603142100,3.12414208984375,0.8292636275291443,-1.025377631187439,-1.633286952972412
1761338362613207000,3.13420703125,1.0715761184692383,-0.7686058282852173,-1.1882274150848389
1761338362623273200,3.144273193359375,1.198923110961914,-0.3961755037307739,-0.6682652235031128
1761338362633338000,3.154338134765625,1.3147295713424683,-0.1809321790933609,-0.09047910571098328
1761338362643404000,3.164404052734375,1.3841496706008911,-0.03949645534157753,0.4508124589920044
1761338362653470000,3.174469970703125,1.33468759059906,0.15891385078430176,0.9488070011138916
1761338362663535000,3.18453515625,1.2136324644088745,0.36027640104293823,1.2728190422058105
1761338362673601000,3.19460107421875,1.0487794876098633,0.4313068985939026,1.3778687715530396
1761338362683666000,3.204666015625,0.8910258412361145,0.3761889934539795,1.218069314956665
1761338362693732000,3.214732177734375,0.7698307037353516,0.24156005680561066,0.8793674111366272
1761338362703798000,3.224798095703125,0.6991410851478577,0.006980324164032936,0.4666256308555603
1761338362713863200,3.23486328125,0.6351146697998047,-0.247701495885849,0.10764005780220032
1761338362723929000,3.24492919921875,0.5283656120300293,-0.4210188686847687,-0.10580488294363022
1761338362733994000,3.254993896484375,0.4573449492454529,-0.5151488184928894,-0.2081453651189804
1761338362744060200,3.26506005859375,0.46583372354507446,-0.5694106817245483,-0.3413108289241791
1761338362754126000,3.2751259765625,0.5483331084251404,-0.6315332055091858,-0.4982048273086548
1761338362764191200,3.285191162109375,0.6825984716415405,-0.6945031881332397,-0.6159875988960266
1761338362774257200,3.295257080078125,0.8305272459983826,-0.7362048029899597,-0.6452938318252563
1761338362784322000,3.305322021484375,0.973385214805603,-0.7322635650634766,-0.6686848402023315
1761338362794388000,3.315387939453125,1.113645076751709,-0.678347110748291,-0.7108362913131714
1761338362804454100,3.3254541015625,1.2360577583312988,-0.6391324400901794,-0.7803316712379456
1761338362814519000,3.33551904296875,1.3318167924880981,-0.6132177710533142,-0.8712876439094543
1761338362824585200,3.345585205078125,1.3737200498580933,-0.5674259662628174,-0.9734249114990234
1761338362834650000,3.355650146484375,1.366796612739563,-0.5502291321754456,-1.0201377868652344
1761338362844716000,3.365716064453125,1.317171335220337,-0.5544344782829285,-1.0149619579315186
1761338362854782200,3.3757822265625,1.2525830268859863,-0.5537436604499817,-0.9923580288887024
1761338362864847000,3.38584716796875,1.194981575012207,-0.5553394556045532,-0.9549888372421265
1761338362874913000,3.3959130859375,1.1447011232376099,-0.5269157886505127,-0.8930003046989441
1761338362884978200,3.405978271484375,1.1040955781936646,-0.43788644671440125,-0.8066885471343994
1761338362895044000,3.416044189453125,1.097691297531128,-0.33124974370002747,-0.7001392245292664
1761338362905110000,3.426110107421875,1.1115472316741943,-0.2482239007949829,-0.5998218059539795
1761338362915175200,3.436175048828125,1.1543368101119995,-0.1683141589164734,-0.4933640658855438
1761338362925241000,3.446240966796875,1.2137348651885986,-0.11253926903009415,-0.40633851289749146
1761338362935306000,3.456305908203125,1.2711602449417114,-0.05700277164578438,-0.3615492284297943
1761338362945372200,3.4663720703125,1.3266549110412598,-0.02153821289539337,-0.3499428331851959
1761338362955438600,3.4764384765625,1.3649489879608154,-0.061817992478609085,-0.3747166395187378
1761338362965503500,3.48650341796875,1.3629627227783203,-0.14174965023994446,-0.4115384519100189
1761338362975569400,3.4965693359375,1.3518277406692505,-0.20681919157505035,-0.45644038915634155
1761338362985634600,3.506634521484375,1.3079900741577148,-0.24590060114860535,-0.5113964080810547
1761338362995700500,3.516700439453125,1.2578762769699097,-0.25669997930526733,-0.5570206046104431
1761338363005766700,3.5267666015625,1.2073851823806763,-0.25521761178970337,-0.6017278432846069
1761338363015831600,3.53683154296875,1.1719510555267334,-0.2373022735118866,-0.6143043637275696
1761338363025897500,3.5468974609375,1.1380535364151,-0.21898265182971954,-0.6039142608642578
1761338363035962600,3.556962646484375,1.092839241027832,-0.23279033601284027,-0.6184884309768677
1761338363046028500,3.567028564453125,1.062159538269043,-0.2538381516933441,-0.6307148337364197
1761338363056094500,3.577094482421875,1.042794942855835,-0.2779488265514374,-0.6508839726448059
1761338363066159400,3.587159423828125,1.0130833387374878,-0.2904272675514221,-0.6803057193756104
1761338363076225500,3.5972255859375,0.9755042195320129,-0.29399749636650085,-0.6923165917396545
1761338363086290700,3.607290771484375,0.9305298328399658,-0.30749398469924927,-0.6878975629806519
1761338363096356400,3.6173564453125,0.9038630723953247,-0.33052659034729004,-0.6940044164657593
1761338363106422500,3.627422607421875,0.8932437300682068,-0.34671494364738464,-0.7063717246055603
1761338363116487400,3.6374873046875,0.8727999329566956,-0.3644028604030609,-0.7009745240211487
1761338363126553600,3.6475537109375,0.8304444551467896,-0.37532487511634827,-0.665988028049469
1761338363136618500,3.657618408203125,0.8205106258392334,-0.3353063464164734,-0.644091010093689
1761338363146684400,3.667684326171875,0.828587532043457,-0.2547522485256195,-0.6269679665565491
1761338363156750300,3.677750244140625,0.8658416867256165,-0.20537033677101135,-0.5802542567253113
1761338363166815500,3.6878154296875,0.9244686365127563,-0.11019814759492874,-0.569877028465271
1761338363176881700,3.697881591796875,0.958797812461853,0.02020993083715439,-0.5239702463150024
1761338363186946300,3.7079462890625,0.9323387145996094,0.17624595761299133,-0.3531346321105957
1761338363197012500,3.718012451171875,0.8712311387062073,0.3239153027534485,-0.07416290789842606
1761338363207077400,3.728077392578125,0.9018245935440063,0.43058153986930847,0.27370312809944153
1761338363217143600,3.7381435546875,1.1202805042266846,0.4778103232383728,0.6244480609893799
1761338363227209500,3.74820947265625,1.382611632347107,0.5078961253166199,0.9478169679641724
1761338363237274400,3.7582744140625,1.5469942092895508,0.42062270641326904,1.076048493385315
1761338363247340500,3.768340576171875,1.5702543258666992,0.19150158762931824,1.0365864038467407
1761338363257406500,3.778406494140625,1.458055853843689,-0.17739441990852356,0.8184609413146973
1761338363267471600,3.7884716796875,1.2647053003311157,-0.5606480836868286,0.40118464827537537
1761338363277537500,3.79853759765625,0.9437507390975952,-0.9855466485023499,-0.20067405700683594
1761338363287602400,3.8086025390625,0.7144523859024048,-1.2608604431152344,-0.6699638962745667
1761338363297668400,3.81866845703125,0.6193448305130005,-1.241163969039917,-0.9066534042358398
1761338363307733500,3.8287333984375,0.6297666430473328,-1.1178241968154907,-0.8333073854446411
1761338363317799700,3.838799560546875,0.6904484033584595,-1.0058600902557373,-0.5363859534263611
1761338363327865600,3.848865478515625,0.6907044649124146,-0.922224760055542,-0.17477113008499146
1761338363337930500,3.858930419921875,0.5814586281776428,-0.9065800309181213,0.0881345272064209
1761338363347996400,3.868996337890625,0.3630755841732025,-0.9479261636734009,0.20233361423015594
1761338363358061600,3.8790615234375,0.09131438285112381,-0.974520742893219,0.2010025680065155
1761338363368127500,3.88912744140625,-0.17155326902866364,-0.9050657153129578,0.19997653365135193
1761338363378193700,3.899193603515625,-0.37132948637008667,-0.7129951119422913,0.29554805159568787
1761338363388258600,3.909258544921875,-0.472154825925827,-0.42828720808029175,0.4583424925804138
1761338363398324500,3.919324462890625,-0.49291789531707764,-0.036498941481113434,0.6516903638839722
1761338363408389600,3.9293896484375,-0.46046698093414307,0.34864261746406555,0.8020883798599243
1761338363418455600,3.93945556640625,-0.2532906234264374,0.49346691370010376,0.6933674812316895
1761338363428521500,3.949521484375,0.11808118969202042,0.3852231800556183,0.2927778959274292
1761338363438586400,3.95958642578125,0.4535350799560547,0.21396514773368835,-0.0945056602358818
1761338363448652500,3.969652587890625,0.7460649609565735,0.033274952322244644,-0.35296499729156494
1761338363458717700,3.9797177734375,0.9459285736083984,-0.061317067593336105,-0.48262283205986023
1761338363468783600,3.98978369140625,0.9993869066238403,-0.12825995683670044,-0.47687721252441406
1761338363478849500,3.999849609375,0.8922263383865356,-0.2532391846179962,-0.3095383048057556
1761338363488914400,4.00991455078125,0.6597931385040283,-0.32205694913864136,-0.07766242325305939
1761338363498980600,4.019980712890625,0.4455106556415558,-0.29529109597206116,0.14617919921875
1761338363509045500,4.03004541015625,0.23017199337482452,-0.24579685926437378,0.35374775528907776
1761338363519111400,4.040111328125,0.048391811549663544,-0.15710029006004333,0.5129315853118896
1761338363529177300,4.05017724609375,-0.078914113342762,-0.03894571214914322,0.6451544761657715
1761338363539242500,4.060242431640625,-0.17314793169498444,0.08658184856176376,0.7397965788841248
1761338363549308400,4.070308349609375,-0.22430844604969025,0.22010217607021332,0.7769134640693665
1761338363559373600,4.08037353515625,-0.24449945986270905,0.3407337963581085,0.7531905770301819
1761338363569439500,4.090439453125,-0.2748500108718872,0.40754297375679016,0.6633968353271484
1761338363579505400,4.10050537109375,-0.341736376285553,0.421639084815979,0.571448802947998
1761338363589570600,4.110570556640625,-0.4002743065357208,0.4131903350353241,0.472062349319458
1761338363599636500,4.120636474609375,-0.4324588477611542,0.4076610803604126,0.34005263447761536
1761338363609701400,4.130701416015625,-0.4237007796764374,0.4122486412525177,0.23241299390792847
1761338363619767600,4.140767578125,-0.3902069926261902,0.4191659390926361,0.15486067533493042
1761338363629833500,4.15083349609375,-0.3466484546661377,0.4212561547756195,0.10632948577404022
1761338363639898600,4.160898681640625,-0.3290140628814697,0.4053688049316406,0.10394647717475891
1761338363649964500,4.170964599609375,-0.31356415152549744,0.385055273771286,0.10653605312108994
1761338363660029400,4.181029541015625,-0.29874953627586365,0.3596210181713104,0.099480539560318
1761338363670095400,4.191095458984375,-0.30002516508102417,0.337919145822525,0.09373311698436737
1761338363680160500,4.201160400390625,-0.3266271948814392,0.3269524872303009,0.10471439361572266
1761338363690226400,4.211226318359375,-0.3562232255935669,0.34346529841423035,0.1253667026758194
1761338363700292600,4.221292724609375,-0.3754909336566925,0.39205202460289,0.14049291610717773
1761338363710357500,4.231357421875,-0.3768107295036316,0.43338894844055176,0.14075814187526703
1761338363720423400,4.24142333984375,-0.3836342692375183,0.4172118306159973,0.14696890115737915
1761338363730488600,4.251488525390625,-0.4071016013622284,0.40413904190063477,0.16484007239341736
1761338363740554500,4.261554443359375,-0.45103204250335693,0.4029051959514618,0.17208200693130493
1761338363750620700,4.27162060546875,-0.47862017154693604,0.38021519780158997,0.1683889776468277
1761338363760685600,4.281685546875,-0.4618033766746521,0.30134060978889465,0.1285366415977478
1761338363770751500,4.29175146484375,-0.40463119745254517,0.14399157464504242,0.03606896847486496
1761338363780816600,4.301816650390625,-0.350256085395813,-0.06764957308769226,-0.0638807937502861
1761338363790882600,4.311882568359375,-0.329793781042099,-0.23455527424812317,-0.12269312888383865
1761338363800948700,4.32194873046875,-0.2690305709838867,-0.31696680188179016,-0.09634727239608765
1761338363811013400,4.332013427734375,-0.16005659103393555,-0.34513452649116516,-0.05194685980677605
1761338363821079600,4.34207958984375,-0.03261234611272812,-0.3094140887260437,0.01500660553574562
1761338363831144400,4.35214453125,0.10692452639341354,-0.19566133618354797,0.1169196143746376
1761338363841210600,4.362210693359375,0.26739171147346497,-0.06450784206390381,0.2649482190608978
1761338363851276300,4.3722763671875,0.4542349576950073,0.05070016160607338,0.435709148645401
1761338363861341400,4.382341552734375,0.6327149868011475,0.1340126395225525,0.6010507345199585
1761338363871407600,4.39240771484375,0.6404975056648254,0.1544710397720337,0.6707019805908203
1761338363881472500,4.402472412109375,0.45739322900772095,0.03055788204073906,0.5928716659545898
1761338363891538700,4.41253857421875,0.18986225128173828,-0.2907017767429352,0.40112343430519104
1761338363901604400,4.422604248046875,-0.011822929605841637,-0.6471845507621765,0.04579145088791847
1761338363911670500,4.43267041015625,-0.1311262995004654,-0.9637569785118103,-0.2769281566143036
1761338363921735400,4.4427353515625,-0.16687017679214478,-1.1351239681243896,-0.39000755548477173
1761338363931801600,4.452801513671875,-0.13410533964633942,-1.07852041721344,-0.3174760937690735
1761338363941866500,4.462866455078125,-0.023696016520261765,-0.8646683096885681,-0.18153981864452362
1761338363951932400,4.472932373046875,0.14922748506069183,-0.6512422561645508,-0.08638366311788559
1761338363961998000,4.482998046875,0.2774674892425537,-0.4170460104942322,0.09573180973529816
1761338363972063000,4.49306298828125,0.35805168747901917,-0.11236725747585297,0.3568687438964844
1761338363982129200,4.503129150390625,0.42753222584724426,0.16408297419548035,0.5793076753616333
1761338363992194000,4.513194091796875,0.4687018394470215,0.30763208866119385,0.7409031391143799
1761338364002260000,4.523260009765625,0.45405659079551697,0.3550526201725006,0.8569056391716003
1761338364012326000,4.533325927734375,0.37396368384361267,0.37510398030281067,0.9516096115112305
1761338364022391000,4.54339111328125,0.2505299150943756,0.37563982605934143,1.0205740928649902
1761338364032457200,4.553457275390625,0.13642267882823944,0.37894248962402344,1.0320698022842407
1761338364042521900,4.56352197265625,-0.03044593147933483,0.37575310468673706,0.9699624180793762
1761338364052588000,4.573588134765625,-0.2267068773508072,0.34014666080474854,0.880069375038147
1761338364062654000,4.583654052734375,-0.3941962420940399,0.29494190216064453,0.7916207313537598
1761338364072719000,4.593718994140625,-0.5275899767875671,0.290661096572876,0.7257681488990784
1761338364082785000,4.603784912109375,-0.6095865368843079,0.25696811079978943,0.6576434373855591
1761338364092850000,4.613849853515625,-0.609674334526062,0.2195683717727661,0.5690931677818298
1761338364102916000,4.623916015625,-0.6289523839950562,0.17097659409046173,0.4067879319190979
1761338364112982000,4.63398193359375,-0.6924489736557007,0.08125348389148712,0.18528905510902405
1761338364123047200,4.644047119140625,-0.7170464992523193,-0.024848446249961853,-0.034323737025260925
1761338364133112800,4.65411279296875,-0.621232807636261,-0.08651147782802582,-0.22138294577598572
1761338364143178000,4.664177978515625,-0.5068537592887878,-0.13761088252067566,-0.3861530125141144
1761338364153244000,4.674243896484375,-0.40595361590385437,-0.2167891263961792,-0.535548746585846
1761338364163310000,4.68431005859375,-0.29881730675697327,-0.27183616161346436,-0.6433761715888977
1761338364173375200,4.694375244140625,-0.19366246461868286,-0.26876509189605713,-0.6966965794563293
1761338364183441000,4.70444091796875,-0.09477395564317703,-0.19803181290626526,-0.6974853873252869
1761338364193506000,4.714506103515625,-0.01664889231324196,-0.06459552049636841,-0.6380805969238281
1761338364203572000,4.724572021484375,0.028209658339619637,0.1205650120973587,-0.515845775604248
1761338364213638100,4.73463818359375,0.017890458926558495,0.30707216262817383,-0.33141040802001953
1761338364223702800,4.744702880859375,-0.035471029579639435,0.4743596911430359,-0.12727327644824982
1761338364233769000,4.75476904296875,-0.11274145543575287,0.6056070327758789,0.0476081520318985
1761338364243834000,4.764834228515625,-0.19465284049510956,0.6808322668075562,0.16217361390590668
1761338364253900000,4.774900146484375,-0.2805255353450775,0.7102890014648438,0.1933516561985016
1761338364263966200,4.78496630859375,-0.3504926264286041,0.6796591877937317,0.15420424938201904
1761338364274030800,4.79503076171875,-0.37944692373275757,0.5805245637893677,0.07180909812450409
1761338364284097000,4.805096923828125,-0.3780207931995392,0.4268297851085663,-0.05250966176390648
1761338364294162000,4.815161865234375,-0.366820752620697,0.2604861557483673,-0.15235409140586853
1761338364304228000,4.82522802734375,-0.35314780473709106,0.12469052523374557,-0.21304087340831757
1761338364314294000,4.8352939453125,-0.33930501341819763,0.02680164948105812,-0.23242917656898499
1761338364324359000,4.84535888671875,-0.31142863631248474,-0.04647895321249962,-0.2558697760105133
1761338364334425000,4.855425048828125,-0.2841227054595947,-0.0806053951382637,-0.2936347723007202
1761338364344490000,4.865489990234375,-0.2613454759120941,-0.0858539566397667,-0.3481414318084717
1761338364354556200,4.87555615234375,-0.2497219294309616,-0.06704357266426086,-0.41403964161872864
1761338364364622000,4.8856220703125,-0.23792678117752075,-0.035330116748809814,-0.47543323040008545
1761338364374687000,4.89568701171875,-0.22540733218193054,-0.021519888192415237,-0.5194357633590698
1761338364384753000,4.9057529296875,-0.2175281047821045,-0.02382645010948181,-0.5517942309379578
1761338364394818000,4.915818115234375,-0.21730375289916992,-0.027018802240490913,-0.5774301886558533
1761338364404884200,4.92588427734375,-0.21907129883766174,-0.013816446997225285,-0.6004244685173035
1761338364414950000,4.935949951171875,-0.21157003939151764,0.010739892721176147,-0.6281822919845581
1761338364425015000,4.94601513671875,-0.19210658967494965,0.03096793405711651,-0.6469495296478271
1761338364435081000,4.9560810546875,-0.15562847256660461,0.030152471736073494,-0.6485030055046082
1761338364445146000,4.96614599609375,-0.1218915656208992,-0.0028699254617094994,-0.6331141591072083
1761338364455212000,4.9762119140625,-0.10290034115314484,-0.06316880136728287,-0.5935289263725281
1761338364465278000,4.98627783203125,-0.10786047577857971,-0.1035764142870903,-0.5303827524185181
1761338364475343000,4.996343017578125,-0.13659006357192993,-0.13147103786468506,-0.45235002040863037
1761338364485409000,5.006408935546875,-0.16695410013198853,-0.14776158332824707,-0.3795322775840759
1761338364495474200,5.01647412109375,-0.18375685811042786,-0.13874931633472443,-0.32054001092910767
1761338364505539800,5.026539794921875,-0.17810963094234467,-0.08598410338163376,-0.243592768907547
1761338364515605000,5.03660498046875,-0.15149347484111786,-0.007181281223893166,-0.18035756051540375
1761338364525671000,5.0466708984375,-0.10618191957473755,0.06890789419412613,-0.12032991647720337
1761338364535737000,5.056737060546875,-0.05897073075175285,0.14274722337722778,-0.057828716933727264
1761338364545802200,5.06680224609375,-0.03169570118188858,0.22000020742416382,0.05760094150900841
1761338364555868000,5.076867919921875,-0.04266907274723053,0.28993165493011475,0.2149546891450882
1761338364565933000,5.08693310546875,-0.05953114479780197,0.35310956835746765,0.38456687331199646
1761338364575999000,5.0969990234375,-0.069285087287426,0.3719693720340729,0.525505781173706
1761338364586065200,5.107065185546875,-0.09060582518577576,0.3534553349018097,0.65567946434021
1761338364596129800,5.1171298828125,-0.09780184924602509,0.2594335675239563,0.6464651226997375
1761338364606196000,5.127196044921875,-0.06331737339496613,0.11330404877662659,0.47311970591545105
1761338364616261000,5.13726123046875,0.0262756384909153,0.012399113737046719,0.2598470449447632
1761338364626327000,5.1473271484375,0.20625339448451996,-0.06417049467563629,0.017515910789370537
1761338364636393000,5.15739306640625,0.42977675795555115,-0.17385448515415192,-0.17928153276443481
1761338364646457900,5.167457763671875,0.6178076863288879,-0.25372374057769775,-0.31624576449394226
1761338364656524000,5.17752392578125,0.7263749837875366,-0.22442011535167694,-0.3751358389854431
1761338364666589000,5.1875888671875,0.7360313534736633,-0.05833127722144127,-0.3520326316356659
1761338364676655000,5.197655029296875,0.6021445393562317,0.19918125867843628,-0.24281926453113556
1761338364686721000,5.207720947265625,0.3992606997489929,0.4873054623603821,-0.015029513277113438
1761338364696786000,5.217785888671875,0.17221121490001678,0.7383741736412048,0.1885010451078415
1761338364706851800,5.227851806640625,-0.059978071600198746,0.9272093772888184,0.3327772617340088
1761338364716917000,5.2379169921875,-0.26612091064453125,1.0977717638015747,0.5204889178276062
1761338364726983200,5.247983154296875,-0.44341447949409485,1.2398223876953125,0.7669974565505981
1761338364737049000,5.258049072265625,-0.6047509908676147,1.3252543210983276,1.077797532081604
1761338364747114000,5.268114013671875,-0.7234624624252319,1.3793503046035767,1.4148725271224976
1761338364757180000,5.278179931640625,-0.7719346284866333,1.3817241191864014,1.658882975578308
1761338364767245000,5.2882451171875,-0.7547860145568848,1.3399772644042969,1.7373687028884888
1761338364777311000,5.29831103515625,-0.6542881727218628,1.205901026725769,1.6167781352996826
1761338364787377200,5.308377197265625,-0.5212675333023071,0.9447020292282104,1.2689541578292847
1761338364797442000,5.318442138671875,-0.39825648069381714,0.5518414974212646,0.7631019949913025
1761338364807508000,5.328508056640625,-0.3210484981536865,0.10120584070682526,0.22531016170978546
1761338364817573000,5.338572998046875,-0.281855046749115,-0.27029848098754883,-0.23943674564361572
1761338364827639000,5.34863916015625,-0.2606152594089508,-0.5355530381202698,-0.5624273419380188
1761338364837705000,5.358705078125,-0.24527694284915924,-0.6717760562896729,-0.7304012775421143
1761338364847769900,5.368769775390625,-0.22683030366897583,-0.584271252155304,-0.669833779335022
1761338364857836000,5.3788359375,-0.20257024466991425,-0.2957223653793335,-0.4604581594467163
1761338364867901200,5.388901123046875,-0.12018641829490662,0.10764933377504349,-0.24430428445339203
1761338364877967000,5.398967041015625,-0.01656077429652214,0.5211970806121826,-0.13788805902004242
1761338364888032000,5.409031982421875,0.05413496866822243,0.8148100972175598,-0.16539132595062256
1761338364898098000,5.419097900390625,0.04115959629416466,0.9042581915855408,-0.25863584876060486
1761338364908164000,5.4291640625,-0.0854441449046135,0.845966637134552,-0.36028629541397095
1761338364918229000,5.43922900390625,-0.3159123659133911,0.6870579123497009,-0.38852131366729736
1761338364928295000,5.449294921875,-0.6020887494087219,0.4198956787586212,-0.2889587879180908
1761338364938360000,5.459360107421875,-0.8838626742362976,0.080560103058815,-0.1488599330186844
1761338364948426000,5.469426025390625,-1.0480921268463135,-0.20878329873085022,0.05649614334106445
1761338364958493000,5.479492919921875,-1.083606243133545,-0.3338637351989746,0.307297945022583
1761338364968557800,5.489557861328125,-1.0273245573043823,-0.3359713554382324,0.48205962777137756
1761338364978623700,5.499623779296875,-0.8870871663093567,-0.3152122497558594,0.5141564011573792
1761338364988689000,5.50968896484375,-0.686819314956665,-0.3234795033931732,0.4164053201675415
1761338364998755000,5.519755126953125,-0.4729275405406952,-0.33825647830963135,0.22361372411251068
1761338365008820700,5.52982080078125,-0.274078905582428,-0.3260869085788727,0.009500633925199509
1761338365018886000,5.539885986328125,-0.0733320564031601,-0.2934078872203827,-0.17592903971672058
1761338365028951800,5.549951904296875,0.11547274142503738,-0.2710588872432709,-0.3132823705673218
1761338365039017000,5.560016845703125,0.2522868812084198,-0.24998077750205994,-0.38742589950561523
1761338365049083000,5.570082763671875,0.34767624735832214,-0.2256067395210266,-0.40544193983078003
1761338365059148800,5.580148681640625,0.4190405309200287,-0.1818859875202179,-0.38847029209136963
1761338365069214000,5.5902138671875,0.45468640327453613,-0.13105396926403046,-0.34729889035224915
1761338365079279900,5.60027978515625,0.477350652217865,-0.09053430706262589,-0.2988433539867401
1761338365089345000,5.610344970703125,0.49349579215049744,-0.06167575716972351,-0.2535536289215088
1761338365099410700,5.62041064453125,0.5137948393821716,-0.041711874306201935,-0.214983269572258
1761338365109476900,5.630476806640625,0.5331760048866272,-0.043689802289009094,-0.18173930048942566
1761338365119541800,5.640541748046875,0.5561050176620483,-0.07165031135082245,-0.13970927894115448
1761338365129608000,5.65060791015625,0.552905261516571,-0.13660535216331482,-0.08644339442253113
1761338365139673000,5.660673095703125,0.5191211700439453,-0.21588164567947388,-0.03833601623773575
1761338365149738800,5.67073876953125,0.4627907872200012,-0.2768283486366272,0.009946029633283615
1761338365159805000,5.680804931640625,0.41125285625457764,-0.30723437666893005,0.061166226863861084
1761338365169869800,5.690869873046875,0.3818108141422272,-0.32206740975379944,0.11474716663360596
1761338365179936000,5.70093603515625,0.36514467000961304,-0.32161179184913635,0.14819709956645966
1761338365190001000,5.7110009765625,0.42167824506759644,-0.3218189775943756,0.16380535066127777
1761338365200066800,5.72106689453125,0.57393479347229,-0.35509049892425537,0.16139577329158783
1761338365210132000,5.731132080078125,0.7967396378517151,-0.4036087691783905,0.160971537232399
1761338365220198000,5.741197998046875,1.065025806427002,-0.43952465057373047,0.14783591032028198
1761338365230264000,5.75126416015625,1.319126009941101,-0.461721807718277,0.13713133335113525
1761338365240328700,5.76132861328125,1.3625681400299072,-0.4913026690483093,0.12170988321304321
1761338365250395000,5.771394775390625,1.2865400314331055,-0.5070866942405701,0.12962132692337036
1761338365260459800,5.781459716796875,1.1817748546600342,-0.5488241910934448,0.15183357894420624
1761338365270526000,5.79152587890625,1.1039785146713257,-0.6008946299552917,0.20851603150367737
1761338365280592000,5.801591796875,0.9893765449523926,-0.7320023775100708,0.20656751096248627
1761338365290656800,5.81165673828125,0.7845394611358643,-1.008278489112854,0.07502493262290955
1761338365300723000,5.821722900390625,0.5487877130508423,-1.399827003479004,-0.195429265499115
1761338365310787800,5.831787841796875,0.31757852435112,-1.8007869720458984,-0.6049742102622986
1761338365320854000,5.84185400390625,0.1473539173603058,-1.8539406061172485,-0.9152469635009766
1761338365330920000,5.851919921875,0.14423829317092896,-1.1897146701812744,-0.9641830921173096
1761338365340984800,5.86198486328125,0.19420453906059265,-0.12871047854423523,-0.8084733486175537
1761338365351050800,5.87205078125,0.26242539286613464,0.7263711094856262,-0.4405062794685364
1761338365361116000,5.882115966796875,0.33499738574028015,1.2583799362182617,0.02525574341416359
1761338365371182000,5.89218212890625,0.17908796668052673,1.0607808828353882,0.06303135305643082
1761338365381248000,5.902248046875,0.22196057438850403,0.5633315443992615,0.005677247419953346
1761338365391313000,5.91231298828125,0.37256312370300293,0.3548859655857086,0.6110912561416626
1761338365401378800,5.92237890625,0.4727221131324768,0.15335623919963837,0.946208119392395
1761338365411444000,5.93244384765625,0.6834407448768616,-0.15076583623886108,1.1434266567230225
1761338365421510000,5.942510009765625,0.837589681148529,-0.29597604274749756,1.2417097091674805
1761338365431575800,5.952575927734375,0.9155574440956116,-0.2190607786178589,1.2296024560928345
1761338365441641000,5.962640869140625,0.9974761009216309,0.00519034918397665,1.1573219299316406
1761338365451707000,5.972706787109375,1.090555191040039,0.21024629473686218,0.9448315501213074
1761338365461772000,5.98277197265625,1.1551103591918945,0.24402639269828796,0.5680393576622009
1761338365471838000,5.992837890625,1.1515194177627563,0.09942634403705597,0.14184649288654327
1761338365481902800,6.00290283203125,1.1468614339828491,0.0016024131327867508,-0.1878630816936493
1761338365491968800,6.01296875,1.1515973806381226,-0.09804961085319519,-0.37541672587394714
1761338365502035000,6.023034912109375,1.1761459112167358,-0.21798250079154968,-0.43710848689079285
1761338365512100000,6.03310009765625,1.1279016733169556,-0.3722738027572632,-0.44047099351882935
1761338365522165800,6.043165771484375,1.085080862045288,-0.506454586982727,-0.39887523651123047
1761338365532231000,6.05323095703125,1.2384060621261597,-0.5292062759399414,-0.32433226704597473
1761338365542296800,6.063296875,1.4422423839569092,-0.45805901288986206,-0.3050852119922638
1761338365552363000,6.073363037109375,1.6231416463851929,-0.439049631357193,-0.37919139862060547
1761338365562428000,6.083427978515625,1.8135453462600708,-0.4522431194782257,-0.48347583413124084
1761338365572493800,6.093493896484375,2.001776695251465,-0.4148952066898346,-0.5617485046386719
1761338365582559000,6.10355908203125,2.1454451084136963,-0.3770987391471863,-0.6394525170326233
1761338365592625000,6.113625,2.2305006980895996,-0.33452996611595154,-0.6792318820953369
1761338365602690800,6.12369091796875,2.2485594749450684,-0.357624351978302,-0.6756836771965027
1761338365612755700,6.133755615234375,2.2243106365203857,-0.38822007179260254,-0.6408580541610718
1761338365622822000,6.14382177734375,2.1505298614501953,-0.37979787588119507,-0.5889356136322021
1761338365632886800,6.15388671875,2.0859179496765137,-0.3880361020565033,-0.5261696577072144
1761338365642953000,6.163952880859375,2.0507218837738037,-0.3550778031349182,-0.3930659890174866
1761338365653019000,6.174018798828125,2.014828681945801,-0.2791004776954651,-0.2784384787082672
1761338365663083800,6.184083740234375,2.014129400253296,-0.22706103324890137,-0.21507582068443298
1761338365673150000,6.19414990234375,2.0097525119781494,-0.16817134618759155,-0.2126520872116089
1761338365683214800,6.20421484375,2.016597032546997,-0.12330902367830276,-0.2237350195646286
1761338365693281000,6.214281005859375,2.03975248336792,-0.1285940706729889,-0.25916463136672974
1761338365703345700,6.224345703125,2.075113296508789,-0.1533667892217636,-0.2903164327144623
1761338365713411800,6.234411865234375,2.115983486175537,-0.162469744682312,-0.3022820055484772
1761338365723477800,6.244477783203125,2.1916089057922363,-0.20748701691627502,-0.32064104080200195
1761338365733543000,6.25454296875,2.288226366043091,-0.28394556045532227,-0.38151344656944275
1761338365743608800,6.26460888671875,2.3767008781433105,-0.2662099003791809,-0.4323889911174774
1761338365753673700,6.274673828125,2.4354419708251953,-0.26320984959602356,-0.49906548857688904
1761338365763740000,6.284739990234375,2.4561753273010254,-0.2676715552806854,-0.5701258182525635
1761338365773805800,6.294805908203125,2.4602108001708984,-0.21761691570281982,-0.6462751626968384
1761338365783871000,6.30487109375,2.447429895401001,-0.169922336935997,-0.744729220867157
1761338365793937000,6.31493701171875,2.421194553375244,-0.15215826034545898,-0.8410230278968811
1761338365804001800,6.325001708984375,2.368986129760742,-0.14973066747188568,-0.9240185618400574
1761338365814068000,6.33506787109375,2.262507438659668,-0.16775280237197876,-0.980827271938324
1761338365824134000,6.3451337890625,2.1276214122772217,-0.22413812577724457,-0.9890797734260559
1761338365834199000,6.355198974609375,2.0211684703826904,-0.29252439737319946,-0.9198604822158813
1761338365844265000,6.365264892578125,1.934985637664795,-0.376848965883255,-0.8276042938232422
1761338365854329900,6.375329833984375,1.8964377641677856,-0.4683069884777069,-0.7514839768409729
1761338365864395800,6.385395751953125,1.8636538982391357,-0.496036559343338,-0.6648959517478943
1761338365874462000,6.3954619140625,1.7402212619781494,-0.5111966133117676,-0.6244135499000549
1761338365884526800,6.40552685546875,1.665401577949524,-0.4730023741722107,-0.6073120832443237
1761338365894593000,6.415593017578125,1.6655566692352295,-0.4006671905517578,-0.6203104853630066
1761338365904658000,6.425657958984375,1.6744146347045898,-0.3307563364505768,-0.6334679126739502
1761338365914723800,6.435723876953125,1.674997329711914,-0.2526061236858368,-0.5966734290122986
1761338365924789000,6.4457890625,1.6559417247772217,-0.17429500818252563,-0.5292324423789978
1761338365934855000,6.45585498046875,1.6480302810668945,-0.08572173863649368,-0.44350606203079224
1761338365944920800,6.4659208984375,1.6502457857131958,-0.020028486847877502,-0.35941728949546814
1761338365954986000,6.475986083984375,1.6781245470046997,-0.001161055639386177,-0.2678207755088806
1761338365965051600,6.4860517578125,1.809173822402954,0.0029624393209815025,-0.1773063689470291
1761338365975116800,6.49611669921875,1.9852561950683594,0.02037178725004196,-0.05902208015322685
1761338365985182500,6.506182373046875,2.186617136001587,-0.01102991309016943,0.05695994943380356
1761338365995248600,6.51624853515625,2.408576488494873,-0.04146238788962364,0.1351487636566162
1761338366005313500,6.5263134765625,2.609689474105835,-0.06452521681785583,0.1673285812139511
1761338366015379700,6.536379638671875,2.726613998413086,-0.1540851891040802,0.14174172282218933
1761338366025444900,6.54644482421875,2.7529940605163574,-0.2380865216255188,0.06383543461561203
1761338366035510500,6.556510498046875,2.7499728202819824,-0.3561231195926666,-0.08279980719089508
1761338366045576400,6.566576416015625,2.7855417728424072,-0.48051586747169495,-0.30986475944519043
1761338366055641600,6.5766416015625,2.8444743156433105,-0.494486540555954,-0.5644792318344116
1761338366065707800,6.586707763671875,2.8791677951812744,-0.3676990866661072,-0.7463445067405701
1761338366075772400,6.5967724609375,2.8772172927856445,-0.1490786075592041,-0.7885119318962097
1761338366085838600,6.606838623046875,2.834954261779785,0.05853210389614105,-0.6882449984550476
1761338366095904500,6.616904541015625,2.728046178817749,0.14581453800201416,-0.47865206003189087
1761338366105969700,6.6269697265625,2.593364715576172,0.1498202532529831,-0.22686690092086792
1761338366116035600,6.63703564453125,2.4771108627319336,0.15991069376468658,0.011191477067768574
1761338366126100500,6.6471005859375,2.4229092597961426,0.15580448508262634,0.16298869252204895
1761338366136166700,6.657166748046875,2.4541521072387695,0.14981530606746674,0.2277197539806366
1761338366146231600,6.6672314453125,2.5223374366760254,0.16196122765541077,0.21968293190002441
1761338366156297700,6.677297607421875,2.6174962520599365,0.20279785990715027,0.14055296778678894
1761338366166363600,6.68736376953125,2.6602282524108887,0.2498258501291275,0.03770061209797859
1761338366176428500,6.697428466796875,2.6414010524749756,0.2986149787902832,-0.0550900436937809
1761338366186494500,6.707494384765625,2.601125955581665,0.3779088854789734,-0.08821006119251251
1761338366196559600,6.7175595703125,2.5380232334136963,0.46410849690437317,-0.07425881922245026
1761338366206625800,6.727625732421875,2.4414615631103516,0.5353556275367737,-0.008532312698662281
1761338366216691700,6.737691650390625,2.3506364822387695,0.5764375329017639,0.051591210067272186
1761338366226756600,6.747756591796875,2.2733609676361084,0.5453126430511475,0.05807528644800186
1761338366236822500,6.757822509765625,2.183664083480835,0.41321536898612976,-0.042154110968112946
1761338366246887700,6.7678876953125,2.1662166118621826,0.2549196481704712,-0.20826227962970734
1761338366256953600,6.77795361328125,2.2257800102233887,0.1347474306821823,-0.39842450618743896
1761338366267019800,6.788019775390625,2.3395962715148926,0.04211584851145744,-0.5765059590339661
1761338366277084700,6.798084716796875,2.4941651821136475,-0.06084701791405678,-0.7518383860588074
1761338366287150600,6.808150634765625,2.6304736137390137,-0.169956237077713,-0.896652340888977
1761338366297215700,6.8182158203125,2.6988518238067627,-0.29622629284858704,-1.0099687576293945
1761338366307281700,6.82828173828125,2.7022154331207275,-0.43226537108421326,-1.1020829677581787
1761338366317347600,6.83834765625,2.6721551418304443,-0.5502429008483887,-1.1629786491394043
1761338366327412500,6.84841259765625,2.6294686794281006,-0.6376749277114868,-1.1580054759979248
1761338366337478700,6.858478759765625,2.58259916305542,-0.6850488781929016,-1.1036213636398315
1761338366347543800,6.868543701171875,2.528646230697632,-0.6648215651512146,-0.9977971315383911
1761338366357609700,6.878609619140625,2.478259325027466,-0.6181424856185913,-0.8538426160812378
1761338366367674600,6.888674560546875,2.406559944152832,-0.5530533194541931,-0.6777668595314026
1761338366377740500,6.898740478515625,2.278358221054077,-0.4695618748664856,-0.48337340354919434
1761338366387806700,6.908806640625,2.094534397125244,-0.3586355149745941,-0.30539438128471375
1761338366397871600,6.91887158203125,1.8914445638656616,-0.2439861297607422,-0.16695500910282135
1761338366407937500,6.9289375,1.7331116199493408,-0.15057945251464844,-0.07835450023412704
1761338366418002700,6.939002685546875,1.6213719844818115,-0.08607981353998184,-0.05002405494451523
1761338366428068600,6.949068603515625,1.5605937242507935,-0.034017838537693024,-0.051917605102062225
1761338366438134800,6.959134765625,1.5457801818847656,0.008533086627721786,-0.08429205417633057
1761338366448199700,6.96919970703125,1.5394203662872314,0.028401676565408707,-0.15113139152526855
1761338366458265600,6.979265625,1.48042893409729,-0.010199777781963348,-0.21880684792995453
1761338366468330500,6.98933056640625,1.443162441253662,-0.07877545803785324,-0.27413415908813477
1761338366478396700,6.999396728515625,1.4408478736877441,-0.13392339646816254,-0.28540199995040894
1761338366488462600,7.009462646484375,1.4297608137130737,-0.17591866850852966,-0.26505255699157715
1761338366498527500,7.019527587890625,1.4239120483398438,-0.1865505576133728,-0.23958583176136017
1761338366508593700,7.02959375,1.3630062341690063,-0.16439390182495117,-0.2027246206998825
1761338366518658600,7.039658447265625,1.2988139390945435,-0.14889246225357056,-0.1593734174966812
1761338366528724700,7.049724853515625,1.283233880996704,-0.14419901371002197,-0.10823855549097061
1761338366538790700,7.059790771484375,1.2764513492584229,-0.12037836760282516,-0.03392810374498367
1761338366548855600,7.06985546875,1.243360996246338,-0.11576764285564423,0.06641687452793121
1761338366558921500,7.07992138671875,1.1898823976516724,-0.14130708575248718,0.16882286965847015
1761338366568986600,7.089986572265625,1.1291924715042114,-0.1572701632976532,0.22778217494487762
1761338366579052800,7.100052734375,1.0770469903945923,-0.16221803426742554,0.2533850073814392
1761338366589118700,7.11011865234375,1.0274648666381836,-0.13108979165554047,0.26713335514068604
1761338366599183600,7.12018359375,0.9806181788444519,-0.07099582999944687,0.2913409471511841
1761338366609249500,7.13024951171875,0.9265244007110596,0.027829505503177643,0.3177703619003296
1761338366619314700,7.140314697265625,0.8583030104637146,0.15278714895248413,0.3353602886199951
1761338366629380600,7.150380615234375,0.7870957851409912,0.23050343990325928,0.3191409111022949
1761338366639445500,7.160445556640625,0.7529500722885132,0.1572936773300171,0.16484856605529785
1761338366649511700,7.17051171875,0.7774027585983276,-0.013768496923148632,-0.09783316403627396
1761338366659577600,7.18057763671875,0.813098132610321,-0.22534306347370148,-0.38841572403907776
1761338366669642800,7.190642822265625,0.8048683404922485,-0.4521792232990265,-0.6100246906280518
1761338366679708700,7.200708740234375,0.728840172290802,-0.6530572175979614,-0.6951441168785095
1761338366689773600,7.210773681640625,0.6673743724822998,-0.7069241404533386,-0.5803865790367126
1761338366699839500,7.220839599609375,0.6957383751869202,-0.45934441685676575,-0.2759350538253784
1761338366709905700,7.23090576171875,0.6966239213943481,-0.07727392762899399,0.024267518892884254
1761338366719970800,7.240970703125,0.6743737459182739,0.282366007566452,0.18586067855358124
1761338366730036700,7.25103662109375,0.6805661916732788,0.5201102495193481,0.19999058544635773
1761338366740101600,7.2611015625,0.7415634989738464,0.5474311113357544,0.14828930795192719
1761338366750167600,7.27116748046875,0.8385858535766602,0.48229870200157166,0.06962225586175919
1761338366760233700,7.281233642578125,0.9541299939155579,0.4290948808193207,0.018307937309145927
1761338366770298600,7.291298583984375,1.0508204698562622,0.2605139911174774,-0.013500554487109184
1761338366780364800,7.30136474609375,1.126356601715088,-0.08963894844055176,-0.0627402737736702
1761338366790429700,7.3114296875,1.1802294254302979,-0.5060641765594482,-0.14139726758003235
1761338366800495600,7.32149560546875,1.2054800987243652,-0.8593215346336365,-0.25229209661483765
1761338366810561500,7.3315615234375,1.2024850845336914,-1.089335322380066,-0.35318896174430847
1761338366820626700,7.341626708984375,1.190578579902649,-1.1857364177703857,-0.4171106815338135
1761338366830692600,7.351692626953125,1.179243803024292,-1.1329058408737183,-0.43391889333724976
1761338366840757500,7.361757568359375,1.149296522140503,-0.9803869128227234,-0.39538082480430603
1761338366850823700,7.37182373046875,1.093098521232605,-0.773996114730835,-0.3067615032196045
1761338366860888800,7.381888916015625,1.0046051740646362,-0.5469731092453003,-0.205071359872818
1761338366870954800,7.391954833984375,0.8964475393295288,-0.30638858675956726,-0.1133698970079422
1761338366881020700,7.402020751953125,0.7758496999740601,-0.09109916538000107,-0.04591761901974678
1761338366891085600,7.41208544921875,0.6584408283233643,0.08838548511266708,-0.02620254084467888
1761338366901151700,7.42215185546875,0.5592184066772461,0.24152258038520813,-0.03205110877752304
1761338366911216600,7.432216552734375,0.4993748664855957,0.3612436354160309,-0.0534006804227829
1761338366921282600,7.442282470703125,0.4698502719402313,0.43885135650634766,-0.09361707419157028
1761338366931348500,7.452348388671875,0.4626897871494293,0.47849637269973755,-0.14348845183849335
1761338366941413600,7.46241357421875,0.47612595558166504,0.51478111743927,-0.17637449502944946
1761338366951479600,7.4724794921875,0.49816375970840454,0.5400307774543762,-0.18011853098869324
1761338366961544400,7.48254443359375,0.5278244614601135,0.5050399899482727,-0.15013612806797028
1761338366971610600,7.492610595703125,0.5410475134849548,0.42753809690475464,-0.11099637299776077
1761338366981676500,7.502676513671875,0.5373334884643555,0.31024259328842163,-0.08196977525949478
1761338366991741400,7.512741455078125,0.5282793641090393,0.17599378526210785,-0.06544285267591476
1761338367001807400,7.522807373046875,0.5128058195114136,0.013237093575298786,-0.08104337751865387
1761338367011872500,7.53287255859375,0.516141414642334,-0.13112221658229828,-0.13408397138118744
1761338367021938700,7.542938720703125,0.5444929003715515,-0.2361258715391159,-0.19379311800003052
1761338367032003300,7.55300341796875,0.5804927349090576,-0.2850305438041687,-0.24041466414928436
1761338367042069500,7.563069580078125,0.6368103623390198,-0.28043898940086365,-0.25640907883644104
1761338367052135400,7.573135498046875,0.686633288860321,-0.24954606592655182,-0.2626193165779114
1761338367062200600,7.58320068359375,0.7110869884490967,-0.21682965755462646,-0.2684148848056793
1761338367072266500,7.5932666015625,0.712329089641571,-0.16568922996520996,-0.2703280746936798
1761338367082331400,7.603331298828125,0.6926766037940979,-0.10671059787273407,-0.24965262413024902
1761338367092397600,7.6133974609375,0.6648750305175781,-0.04437457025051117,-0.21315835416316986
1761338367102463500,7.62346337890625,0.6329647898674011,0.003722919151186943,-0.16434207558631897
1761338367112528600,7.633528564453125,0.6108878254890442,0.04806067422032356,-0.12218027561903
1761338367122594300,7.64359423828125,0.5916376709938049,0.0760694071650505,-0.1084199920296669
1761338367132659500,7.653659423828125,0.5833134651184082,0.09405358135700226,-0.1511152982711792
1761338367142725400,7.663725341796875,0.5674071907997131,0.10125397145748138,-0.2429291009902954
1761338367152791600,7.67379150390625,0.5487638711929321,0.10985349863767624,-0.34950071573257446
1761338367162856700,7.683856689453125,0.5247440338134766,0.12088937312364578,-0.4199937880039215
1761338367172922400,7.69392236328125,0.4990919828414917,0.12170539051294327,-0.4531541168689728
1761338367182987500,7.703987548828125,0.4693063795566559,0.11016378551721573,-0.4711728096008301
1761338367193053400,7.714053466796875,0.5023016929626465,0.10262656211853027,-0.4751053750514984
1761338367203119600,7.72411962890625,0.5475860834121704,0.04292674735188484,-0.48527437448501587
1761338367213184300,7.734184326171875,0.5857008099555969,0.028362937271595,-0.57103431224823
1761338367223250400,7.74425048828125,0.6150426864624023,0.12950819730758667,-0.7506421804428101
1761338367233315600,7.754315673828125,0.6848063468933105,0.2575712203979492,-0.9247030019760132
1761338367243381500,7.764381591796875,0.8047002553939819,0.43992796540260315,-1.0104330778121948
1761338367253446700,7.77444677734375,1.0890865325927734,0.39948996901512146,-0.8856680393218994
1761338367263512300,7.78451220703125,1.3912535905838013,0.4009464681148529,-0.6877754926681519
1761338367273578500,7.79457861328125,1.6081774234771729,0.30978912115097046,-0.4087965488433838
1761338367283643400,7.804643310546875,1.6414294242858887,0.10715556144714355,-0.1362566500902176
1761338367293709600,7.81470947265625,1.802835464477539,0.3631817400455475,0.060719799250364304
1761338367303774500,7.8247744140625,1.8984043598175049,0.7142984867095947,-0.12906797230243683
1761338367313840400,7.83484033203125,1.5595828294754028,-0.03793181851506233,-1.4882315397262573
1761338367323906300,7.84490625,1.5044809579849243,0.2619052231311798,-1.720851182937622
1761338367333971500,7.854971435546875,1.503984808921814,0.47315534949302673,-1.681278944015503
1761338367344037600,7.86503759765625,1.5510971546173096,0.8608114719390869,-1.4924578666687012
1761338367354102300,7.875102294921875,1.64914870262146,0.9535884857177734,-1.1315957307815552
1761338367364168400,7.88516845703125,1.7498912811279297,0.8514155149459839,-0.5944356322288513
1761338367374234400,7.895234375,1.726633906364441,0.716468334197998,-0.015498231165111065
1761338367384299500,7.905299560546875,1.5687252283096313,0.49815917015075684,0.571726381778717
1761338367394365400,7.915365478515625,1.490160346031189,0.12405484169721603,1.1698473691940308
1761338367404430300,7.925430419921875,1.493811845779419,-0.34501996636390686,1.7885702848434448
1761338367414496500,7.93549658203125,1.4265037775039673,-0.7685688734054565,2.380417585372925
1761338367424562400,7.9455625,1.3765580654144287,-1.3035457134246826,2.8101799488067627
1761338367434627600,7.955627685546875,1.3420277833938599,-1.7607020139694214,3.012078285217285
1761338367444693500,7.965693603515625,1.22283136844635,-2.0056543350219727,2.974709987640381
1761338367454758400,7.97575830078125,1.0659117698669434,-2.213789701461792,2.7601823806762695
1761338367464824300,7.98582421875,0.9381394386291504,-2.1600990295410156,2.4824795722961426
1761338367474889500,7.995889404296875,0.9251901507377625,-1.6909725666046143,2.0329248905181885
1761338367484955600,8.00595556640625,1.0529236793518066,-0.9747670292854309,1.5437679290771484
1761338367495020300,8.016020263671875,1.111302137374878,-0.27155566215515137,0.9781979322433472
1761338367505086500,8.02608642578125,1.002443552017212,0.02498197741806507,0.5014644265174866
1761338367515151600,8.036151611328124,0.7370588779449463,0.19624941051006317,0.1478753238916397
1761338367525217500,8.046217529296875,0.4602576196193695,0.43265047669410706,-0.07846301048994064
1761338367535283500,8.056283447265624,0.23201903700828552,0.520200252532959,-0.10109736770391464
1761338367545348400,8.066348388671875,0.12887480854988098,0.5699886083602905,-0.08994697779417038
1761338367555414500,8.07641455078125,0.07142973691225052,0.3836849331855774,-0.13959112763404846
1761338367565479400,8.0864794921875,0.003784376662224531,-0.17782661318778992,-0.2839301824569702
1761338367575545600,8.096545654296875,-0.012584574520587921,-0.8878907561302185,-0.5048075318336487
1761338367585611500,8.106611572265624,0.03963388502597809,-1.1961069107055664,-0.6746112108230591
1761338367595676400,8.116676513671875,0.22287042438983917,-1.3576269149780273,-0.8062125444412231
1761338367605742300,8.126742431640626,0.24231842160224915,-1.5622674226760864,-0.9869269728660583
1761338367615807500,8.136807373046874,0.04783289134502411,-1.6802806854248047,-1.1434118747711182
1761338367625873700,8.146873779296875,-0.26896795630455017,-1.6046366691589355,-1.2700438499450684
1761338367635939300,8.156939208984374,-0.6313070058822632,-1.1089118719100952,-1.3366577625274658
1761338367646004500,8.16700439453125,-0.9408742189407349,-0.4760003983974457,-1.4090145826339722
1761338367656070400,8.1770703125,-1.1141371726989746,-0.09460234642028809,-1.4787319898605347
1761338367666135600,8.187135498046874,-1.1657660007476807,0.08355673402547836,-1.5636649131774902
1761338367676201500,8.197201416015625,-1.1277960538864136,0.06074686348438263,-1.6562190055847168
1761338367686267400,8.207267333984374,-1.0679795742034912,0.027468806132674217,-1.7643702030181885
1761338367696332500,8.21733251953125,-0.9895874857902527,0.07758800685405731,-1.8764424324035645
1761338367706398500,8.2273984375,-0.8552866578102112,0.3725557327270508,-1.830239176750183
1761338367716463600,8.237463623046875,-0.6924870014190674,0.7915236353874207,-1.6626179218292236
1761338367726529300,8.247529296875,-0.5134434700012207,1.1890629529953003,-1.368578553199768
1761338367736594400,8.257594482421876,-0.3234948515892029,1.4183131456375122,-1.0061345100402832
1761338367746660400,8.267660400390625,-0.18133051693439484,1.3417751789093018,-0.6146565079689026
1761338367756726500,8.2777265625,-0.2014264464378357,0.9344518184661865,-0.23832891881465912
1761338367766791700,8.287791748046875,-0.4146721661090851,0.1327178180217743,0.07178393751382828
1761338367776857300,8.297857421875,-0.7163003087043762,-0.7444992065429688,0.3384767174720764
1761338367786922500,8.307922607421874,-0.9845626354217529,-1.4174813032150269,0.5622482299804688
1761338367796988400,8.317988525390625,-1.0992213487625122,-1.626469373703003,0.6878091096878052
1761338367807054600,8.3280546875,-1.0054354667663574,-1.413743019104004,0.7155246138572693
1761338367817119200,8.338119140625,-0.7973489165306091,-0.9672440886497498,0.653052031993866
1761338367827185400,8.348185302734375,-0.5674853324890137,-0.555385410785675,0.5833362936973572
1761338367837250600,8.35825048828125,-0.3588921129703522,-0.3237861692905426,0.5503144264221191
1761338367847316500,8.36831640625,-0.2026021033525467,-0.25810888409614563,0.5748967528343201
1761338367857382700,8.378382568359376,-0.09432064741849899,-0.29006510972976685,0.649186909198761
1761338367867447300,8.388447265625,0.024303199723362923,-0.30222004652023315,0.7395037412643433
1761338367877513500,8.398513427734375,0.18777236342430115,-0.2577570974826813,0.8018544316291809
1761338367887579400,8.408579345703124,0.35559678077697754,-0.12138170003890991,0.8880609273910522
1761338367897644500,8.41864453125,0.4453103542327881,0.042748160660266876,1.0292080640792847
1761338367907710500,8.42871044921875,0.41775035858154297,0.16048066318035126,1.2000598907470703
1761338367917775400,8.438775390625,0.322475403547287,0.22662150859832764,1.347090721130371
1761338367927841500,8.448841552734375,0.2310573309659958,0.2992696166038513,1.376603603363037
1761338367937907500,8.458907470703124,0.14931222796440125,0.38862156867980957,1.245136022567749
1761338367947972600,8.46897265625,0.08024419844150543,0.5007443428039551,0.942130446434021
1761338367958038500,8.47903857421875,-0.038304299116134644,0.5643427968025208,0.5098602175712585
1761338367968103700,8.489103759765625,-0.18170247972011566,0.5108441114425659,0.05671273171901703
1761338367978169600,8.499169677734375,-0.31737592816352844,0.47725027799606323,-0.3864228129386902
1761338367988234800,8.50923486328125,-0.4203110933303833,0.4936915934085846,-0.7847132086753845
1761338367998300700,8.51930078125,-0.49997827410697937,0.45758336782455444,-1.090044617652893
1761338368008366800,8.529366943359374,-0.5500076413154602,0.37136298418045044,-1.251962661743164
1761338368018431700,8.539431640625,-0.5851693153381348,0.31994226574897766,-1.2291159629821777
1761338368028497700,8.54949755859375,-0.5883991718292236,0.3356732726097107,-1.0314726829528809
1761338368038562800,8.559562744140624,-0.5718480348587036,0.3923819065093994,-0.7571222186088562
1761338368048628700,8.569628662109375,-0.5835701823234558,0.46188801527023315,-0.49113577604293823
1761338368058694700,8.579694580078124,-0.7032483816146851,0.48206689953804016,-0.2911529541015625
1761338368068759600,8.589759521484375,-0.9666994214057922,0.3849286139011383,-0.13778044283390045
1761338368078825700,8.59982568359375,-1.182252287864685,0.20530414581298828,-0.06147417426109314
1761338368088891000,8.609890869140624,-1.0819562673568726,0.1842697113752365,-0.030927717685699463
1761338368098956800,8.619956787109375,-0.7466037273406982,0.46699070930480957,0.12739230692386627
1761338368109022700,8.630022705078124,-0.31164515018463135,0.6821485161781311,0.35076704621315
1761338368119087600,8.640087646484375,-0.11001454293727875,0.4620808959007263,0.5702725052833557
1761338368129153800,8.65015380859375,-0.02289295569062233,0.013525472953915596,0.7213491201400757
1761338368139218700,8.66021875,0.1485132873058319,-0.2065630406141281,0.7105274796485901
1761338368149284600,8.67028466796875,0.35357561707496643,-0.3685135841369629,0.5882095098495483
1761338368159350500,8.6803505859375,0.5184083580970764,-0.49667513370513916,0.4282941520214081
1761338368169415700,8.690415771484375,0.5421302318572998,-0.5286223888397217,0.2722505033016205
1761338368179481900,8.70048193359375,0.43704953789711,-0.5964207053184509,0.1648918092250824
1761338368189546800,8.710546630859374,0.28911545872688293,-0.6322617530822754,0.11525768041610718
1761338368199612700,8.72061279296875,0.1255131959915161,-0.5297209024429321,0.1268366575241089
1761338368209678600,8.7306787109375,-0.05466403439640999,-0.2818682789802551,0.20129838585853577
1761338368219743700,8.74074365234375,-0.2013619989156723,-0.007658897899091244,0.29854699969291687
1761338368229809700,8.7508095703125,-0.2062840461730957,0.2181643843650818,0.361145943403244
1761338368239874600,8.76087451171875,-0.06902404874563217,0.39598381519317627,0.35871273279190063
1761338368249940700,8.770940673828125,0.14494016766548157,0.49758076667785645,0.3567238748073578
1761338368260005600,8.781005615234376,0.30194178223609924,0.400704026222229,0.41997769474983215
1761338368270071800,8.79107177734375,0.40960273146629333,0.16789287328720093,0.5203444957733154
1761338368280137700,8.8011376953125,0.3636469841003418,-0.05785641074180603,0.6095810532569885
1761338368290202600,8.81120263671875,0.19487714767456055,-0.29646897315979004,0.6345000267028809
1761338368300268500,8.8212685546875,0.04319177195429802,-0.5090963244438171,0.5555327534675598
1761338368310333700,8.831333740234374,-0.02292812615633011,-0.6610080599784851,0.3923880457878113
1761338368320400000,8.84139990234375,-0.05241812393069267,-0.7010889649391174,0.20057924091815948
1761338368330465800,8.8514658203125,-0.08208121359348297,-0.6221265196800232,0.04995431751012802
1761338368340530700,8.86153076171875,-0.16101926565170288,-0.5206591486930847,-0.033041201531887054
1761338368350596600,8.8715966796875,-0.23860220611095428,-0.43674296140670776,-0.09639674425125122
1761338368360661800,8.881661865234374,-0.26121464371681213,-0.3490132987499237,-0.21030877530574799
1761338368370727700,8.891727783203125,-0.2409762442111969,-0.2294623851776123,-0.38214898109436035
1761338368380793900,8.9017939453125,-0.19440673291683197,-0.14378270506858826,-0.5690993070602417
1761338368390858800,8.911858642578125,-0.10331595689058304,-0.1014602929353714,-0.7370888590812683
1761338368400924700,8.921924560546875,-0.004636323545128107,-0.042942143976688385,-0.8385145664215088
1761338368410989800,8.93198974609375,0.06930474191904068,0.05000217631459236,-0.867783784866333
1761338368421055700,8.9420556640625,0.10438114404678345,0.15917029976844788,-0.8120694756507874
1761338368431122000,8.952121826171876,0.08800003677606583,0.2516357898712158,-0.6922069787979126
1761338368441186600,8.9621865234375,0.024334674701094627,0.3091655671596527,-0.5205637216567993
1761338368451252700,8.972252685546875,-0.04940692335367203,0.25783661007881165,-0.32960015535354614
1761338368461318000,8.98231787109375,-0.11209577322006226,0.11321426182985306,-0.15699946880340576
1761338368471383800,8.9923837890625,-0.17537246644496918,-0.00024412479251623154,-0.033674340695142746
1761338368481448700,9.00244873046875,-0.14291013777256012,-0.05710660666227341,0.014983206987380981
1761338368491514600,9.0125146484375,-0.09091884642839432,-0.04703293368220329,0.051887962967157364
1761338368501580800,9.022580810546875,-0.057389866560697556,-0.057938359677791595,0.029298681765794754
1761338368511645700,9.032645751953124,-0.047147080302238464,-0.10181766003370285,-0.026058580726385117
1761338368521711900,9.0427119140625,-0.05198035016655922,-0.1455364227294922,-0.0942973643541336
1761338368531776800,9.05277685546875,-0.05374123156070709,-0.1576942801475525,-0.16388069093227386
1761338368541842700,9.0628427734375,-0.03941668942570686,-0.15365208685398102,-0.26247140765190125
1761338368551908600,9.07290869140625,-0.021626239642500877,-0.12051943689584732,-0.37836283445358276
1761338368561973800,9.082973876953124,-0.027593102306127548,-0.07340120524168015,-0.47378361225128174
1761338368572039700,9.093039794921875,-0.07215471565723419,-0.02806595154106617,-0.5193985104560852
1761338368582104600,9.1031044921875,-0.03468768298625946,0.005366167053580284,-0.4896875321865082
1761338368592170800,9.113170654296875,0.06287909299135208,0.010010452941060066,-0.3986614942550659
1761338368602236700,9.123236572265625,0.15849317610263824,-0.058710940182209015,-0.2766109108924866
1761338368612301800,9.1333017578125,0.23815739154815674,-0.14343594014644623,-0.2139967978000641
1761338368622367700,9.14336767578125,0.29374104738235474,-0.08137645572423935,-0.20335297286510468
1761338368632432600,9.1534326171875,0.3195558786392212,0.11293523758649826,-0.13420026004314423
1761338368642498800,9.163498779296875,0.2628023326396942,0.11570890992879868,-0.02404766157269478
1761338368652563700,9.173563720703125,0.19364163279533386,0.14233680069446564,0.0762147605419159
1761338368662629600,9.183629638671874,0.11856657266616821,0.15304431319236755,0.166482612490654
1761338368672695600,9.193695556640625,0.04736056923866272,0.14521194994449615,0.22136902809143066
1761338368682760700,9.2037607421875,-0.01679067313671112,0.09442994743585587,0.2466825395822525
1761338368692826600,9.21382666015625,-0.0627211481332779,0.04732874780893326,0.27507665753364563
1761338368702891800,9.223891845703125,-0.08873054385185242,0.022037740796804428,0.268716424703598
1761338368712957700,9.233957763671874,-0.07669172435998917,0.03609097748994827,0.2430667132139206
1761338368723023600,9.244023681640625,-0.03386569768190384,-0.03652490675449371,0.21193274855613708
1761338368733088800,9.2540888671875,0.06652296334505081,-0.10395507514476776,0.11908990889787674
