time,seconds_elapsed,z,y,x
1761340634566963000,0.074962890625,-0.18469021244049072,0.005394515987299383,0.1621833432085812
1761340634577030000,0.08502978515625,-0.4136719865500927,-0.10572258378546684,-0.04067047139538917
1761340634587098000,0.09509814453125,-0.4471382028222084,-0.24065650287754833,-0.30045038877874614
1761340634597165000,0.1051650390625,-0.2792161698311567,-0.35434520670399067,-0.456638985084556
1761340634607232000,0.11523193359375,-0.11834171726405619,-0.49820404439922417,-0.41991840665899216
1761340634617300000,0.125300048828125,0.09461188210844992,-0.6401240960516035,-0.501446168125607
1761340634627367000,0.135366943359375,-0.06918459538519382,-0.68141961770989,-0.5875555582940578
1761340634637434000,0.14543408203125,-0.22780220893621445,-0.6311104762516916,-0.641102658760175
1761340634647501000,0.1555009765625,0.08985212036073208,-0.5655016935266554,-0.6980976346578449
1761340634657569300,0.1655693359375,0.6113035136282443,-0.7075948732562363,-0.6093671752708032
1761340634667636200,0.17563623046875,1.052868884754181,-0.8738012614358216,-0.38778161235973235
1761340634677703200,0.185703125,0.8269757243096828,-0.8359581452537328,-0.21336488358713684
1761340634687771100,0.195771240234375,-0.18787410317361353,-0.5455602178033441,-0.23932417656155303
1761340634697838000,0.205838134765625,-0.8986743483424187,-0.08644426641231402,-0.3531261132378131
1761340634707905000,0.215905029296875,-1.256823769634962,0.3023979426499456,-0.32256982959564773
1761340634717973000,0.225972900390625,-1.2609691988766192,0.4404117441114038,-0.30328446142720056
1761340634728040000,0.2360400390625,-0.6063163728654384,0.06367373214238323,0.0929202209607698
1761340634738107000,0.24610693359375,0.492085598051548,-0.2482363270146772,0.497683418058604
1761340634748174000,0.256174072265625,1.3699766860842704,0.24026900139730423,0.1134726316566579
1761340634758242000,0.266241943359375,1.3660492835074662,0.06258751694140956,0.2449458341019228
1761340634768309000,0.27630908203125,0.8318681725263595,-0.22020824667587874,0.5708547449924052
1761340634778376200,0.286376220703125,0.24018355160355567,-0.04920447728508152,0.9646548139240592
1761340634788444200,0.296444091796875,-0.6953238590955734,0.05902999798976816,1.418387373510003
1761340634798511000,0.306510986328125,-2.2994284500062463,0.0031298955235630273,1.684602022948861
1761340634808578000,0.316578125,-2.721446240097284,0.161825268752221,1.4649441036321222
1761340634818646000,0.32664599609375,-2.101632087755203,0.23745661085769532,1.0667208844959735
1761340634828713200,0.336713134765625,-1.377495391151309,0.41704263202697034,0.6597032412685454
1761340634838780200,0.3467802734375,-0.8987509207099675,0.6037730085255578,0.17838937699692323
1761340634848847000,0.35684716796875,-1.0316104081481694,0.6695061117500066,-0.2173629402473569
1761340634858915000,0.3669150390625,-0.8573024735122918,0.5552842143623158,-0.5856157128052786
1761340634868982000,0.37698193359375,0.06516016217470169,0.5544466310270131,-0.7633129610858858
1761340634879049000,0.387049072265625,1.1806266651391983,0.3833714677672833,-1.0164577010713518
1761340634889117000,0.397116943359375,1.9809242258816957,-0.06918569136373698,-0.9681939478356391
1761340634899183900,0.407183837890625,1.751630317083001,-0.6122391870431602,-0.612108108009398
1761340634909251000,0.4172509765625,0.6996954983085394,-0.9938120078906416,-0.03621733704458456
1761340634919319000,0.427319091796875,0.08664601779580115,-1.0128196368299425,0.5823216762285679
1761340634929386200,0.43738623046875,0.12211305249631405,-0.8647863995268941,0.8998140198968351
1761340634939453200,0.447453125,0.8733715647816658,-0.801086226902157,0.6782633456360548
1761340634949520100,0.45752001953125,2.150512146258354,-1.01978070801422,0.43327169963102785
1761340634959588000,0.467588134765625,3.2553532103121277,-1.51327544221133,0.7833972793459891
1761340634969655000,0.477655029296875,3.8668414328575134,-2.3403610566362736,1.6042591969504951
1761340634979722000,0.487721923828125,3.940370194926858,-2.080928906944394,1.4092609409853816
1761340634989790000,0.4977900390625,3.7524265336483715,-1.1358320493187755,-0.18798961931206284
1761340634999857000,0.50785693359375,3.5907010172098874,0.13713431521318853,-1.7845836153969168
1761340635009924000,0.517924072265625,2.9872067160278557,0.9067460841823368,-1.3970301127046345
1761340635019992000,0.527991943359375,3.467974801251292,1.3548644571483135,-0.5976621609624475
1761340635030059000,0.53805908203125,3.7207583067089316,1.1500621616579592,0.7111559267386793
1761340635040126200,0.548126220703125,3.4823294898182153,1.0897723819985985,1.2435842027030886
1761340635050193200,0.558193115234375,2.1974159362524746,1.2507866814278066,0.7305011170692741
1761340635060261000,0.56826123046875,0.9769751471191644,1.1634141759883612,-0.14815034261038526
1761340635070328000,0.578328125,1.4213193353086708,0.9385990200389176,-0.30428320840727535
1761340635080395000,0.58839501953125,2.164211001265049,0.526693531704694,-0.1788293758493848
1761340635090463200,0.598463134765625,3.1226363462150095,0.15163186458321287,0.07763785962229594
1761340635100530200,0.6085302734375,4.4300861412376165,-0.024004925769940018,0.26401441771453243
1761340635110597000,0.61859716796875,4.745468433949351,0.31261202428080137,0.9545926349192857
1761340635120665000,0.6286650390625,4.63910941542387,0.06110316013516858,0.03620140425651334
1761340635130732000,0.63873193359375,4.556550959202647,-0.23190964425504207,-0.4557003159949556
1761340635140799000,0.648799072265625,3.8642332961857315,0.7755112753365189,1.7251093899041414
1761340635150867000,0.658866943359375,3.8884950462609527,2.735275735746324,2.069878812880814
1761340635160934000,0.668933837890625,3.12274798989594,3.843641466794908,2.0841868858270347
1761340635171000800,0.679000732421875,1.5646283205687999,3.889641293686628,1.7711327438019215
1761340635181068000,0.689068115234375,0.7281886023432016,2.9223014053970573,1.432997790403664
1761340635191136000,0.699135986328125,-0.12762509391605853,1.7168201388560234,0.7972713447891175
1761340635201203200,0.709203125,-1.5313976666182278,1.207819281034544,-0.37919352449551225
1761340635211270100,0.719270263671875,-3.4498984618127344,0.6003610081249847,-0.884202024745196
1761340635221338000,0.729338134765625,-5.12550293931365,-0.009867679345980287,-0.8203140744633972
1761340635231405000,0.739405029296875,-6.444235175850987,-0.541975929575786,-0.8109373204395175
1761340635241472000,0.749471923828125,-7.703775218707323,-0.8617360720455646,-1.3265269820667802
1761340635251539000,0.7595390625,-10.0815506447196,-1.2064206662829964,-1.8459560757264495
1761340635261607200,0.769607177734375,-13.005904306471347,-1.1839513525824994,-2.449522857622802
1761340635271674000,0.779674072265625,-15.851763692700862,-0.7775531564276665,-2.929861611518264
1761340635281741000,0.789740966796875,-17.357769143909216,-0.857457444878295,-3.479751748284697
1761340635291809000,0.79980908203125,-17.247361142253876,-1.7494024119004605,-4.138339575657248
1761340635301876000,0.8098759765625,-15.870743118458986,-3.0560096186190844,-4.957593181282282
1761340635311943200,0.819943115234375,-13.871864133691787,-5.337725301802158,-6.581839227467775
1761340635322011000,0.830010986328125,-11.616493436598777,-7.9272005277335635,-9.05441708972454
1761340635332078000,0.840078125,-9.145851510840654,-8.364354512158036,-10.52861285969615
1761340635342145000,0.85014501953125,-6.3812967813789845,-7.684310639780759,-10.277960521048307
1761340635352212000,0.8602119140625,-4.293005236712098,-7.190900515127182,-9.710240713080763
1761340635362280200,0.8702802734375,-3.9714901403337715,-5.608925922960043,-8.22318604605794
1761340635372347100,0.88034716796875,-5.326682514262199,-2.3519613319285213,-5.61917025359869
1761340635382414000,0.8904140625,-7.814733839982748,1.8139546713098882,-1.9326817346297203
1761340635392482000,0.90048193359375,-9.455601350623368,3.9089015822127458,1.0666258996888995
1761340635402549000,0.910549072265625,-9.637449033114313,2.900664450867474,2.8064573501676318
1761340635412616000,0.920615966796875,-7.926072400486468,3.2977827775016424,2.9599703340560195
1761340635422684000,0.930683837890625,-5.108032749074697,5.847282259136438,1.7287487693198025
1761340635432751000,0.940751220703125,-3.0827140856713053,5.795137645879388,3.908267668223381
1761340635442818000,0.950818115234375,-0.7260293784826993,4.1780549154520035,5.709190131741762
1761340635452885200,0.96088525390625,1.4438906480789184,3.514989650404453,5.39025920663774
1761340635462953200,0.970953125,3.0330238798290488,3.523801610152423,4.7314779025197025
1761340635473020200,0.981020263671875,5.2464726669937365,2.997267506793141,4.1219899138808245
1761340635483087000,0.991087158203125,7.448772283634543,2.314328497496247,3.6973230705857274
1761340635493155000,1.001155029296875,7.944734430858492,1.975807905781269,4.051783574232459
1761340635503222000,1.011221923828125,7.775802928563952,1.9560770771339535,3.9805119434401393
1761340635513289000,1.0212890625,8.342161385050415,1.8034896836578844,3.4211434919714927
1761340635523357200,1.031357177734375,9.103589409172534,1.7426323332436382,2.9226363364398478
1761340635533424000,1.041424072265625,9.756799635159968,1.6740040565669536,2.4573051820620893
1761340635543491000,1.051490966796875,10.480713628923892,1.5830483588784932,1.913779611891508
1761340635553558000,1.06155810546875,11.106470030796528,1.4414540685817598,1.37104533822909
1761340635563626000,1.0716259765625,11.622490631186961,1.1803706445515154,0.9349429817494005
1761340635573692700,1.081692626953125,12.150164259970188,1.0693003065299242,0.7145875816877931
1761340635583760000,1.091759765625,12.709301533031462,1.178072377546504,0.6075712682973593
1761340635593827800,1.101827880859375,13.236757719671726,1.2289841610729693,0.6933643955908715
1761340635603894800,1.111894775390625,13.59947459501028,0.9716690766002982,0.8721846930846572
1761340635613961700,1.121961669921875,13.637565548473596,0.8939042113311588,0.8788670934580266
1761340635624029700,1.13202978515625,13.285226274764536,0.9827284499488771,0.7750657235261053
1761340635634096600,1.1420966796875,12.805284703493118,1.0091748505868017,0.5080178016008808
1761340635644163800,1.152163818359375,11.714015068674087,0.976980919272825,0.36658432788904755
1761340635654230800,1.162230712890625,10.4940547565341,1.0178925561800598,0.3977566976029426
1761340635664298800,1.172298828125,9.451840536785125,1.0711953264962881,0.5066088846510276
1761340635674365700,1.18236572265625,8.395387948325276,1.0915645261123776,0.5755763301542028
1761340635684432600,1.1924326171875,7.436700153046846,1.1138406553283333,0.46799942373894154
1761340635694500600,1.20250048828125,6.625458588963746,1.1520793466992676,0.14212868943437934
1761340635704567600,1.212567626953125,5.859745434868335,1.3947459472902117,-0.21447269869856536
1761340635714634800,1.222634765625,4.633799034056067,1.4891311810359358,-0.19656755110844967
1761340635724701700,1.23270166015625,5.728795580443739,1.0795508477136493,-0.7497519801799207
1761340635734770000,1.24277001953125,6.035093818467855,1.2616121729552745,-1.501765183290094
1761340635744836900,1.2528369140625,6.125072780078649,1.514381357626617,-1.8783640151172876
1761340635754903800,1.26290380859375,6.7483209985226384,1.7649176686793564,-2.32279062089324
1761340635764971800,1.2729716796875,7.512080095940828,2.1739048584140837,-2.2412381268441677
1761340635775038700,1.283038818359375,7.999814513045549,2.5794629504829643,-2.0695262000508605
1761340635785105700,1.293105712890625,8.477113460853696,3.151295454466343,-1.8132120362490414
1761340635795173600,1.303173583984375,8.457195292940735,2.956795211151242,-1.8571685207448898
1761340635805240600,1.313240478515625,8.806923507368564,1.979071583752334,-2.0684078635454175
1761340635815307500,1.3233076171875,9.478487136170267,-0.30034334820769726,-1.6636062889322638
1761340635825374700,1.333374755859375,9.094469114127754,-4.839591363497078,0.3829077227130532
1761340635835442700,1.343442626953125,5.0416918526828285,-9.941800813245774,5.982796060475707
1761340635845510000,1.353510009765625,-5.953106440132856,-10.121314499831199,12.688657388931512
1761340635855576800,1.363576904296875,-23.044546368312833,-3.1506261769026516,15.224934108638763
1761340635865644800,1.373644775390625,-43.51225838108063,4.714991170360148,14.677434666401147
1761340635875711700,1.383711669921875,-59.74881750993728,12.911443231010436,10.755632978343963
1761340635885778700,1.39377880859375,-63.948719515538215,15.112684863030909,7.2405188247770065
1761340635895845600,1.403845703125,-52.99806665391922,10.151909544581175,4.264250851392745
1761340635905913900,1.413913818359375,-36.67389470806122,3.574567044010758,-0.2673204187236726
1761340635915980800,1.423980712890625,-24.42794133889675,-6.494778199130296,-6.444037022930384
1761340635926047700,1.4340478515625,-16.56623064368367,-22.277952924251554,-16.7878088635385
1761340635936115700,1.44411572265625,-13.699907146096228,-19.94900027359724,-21.67399918886423
1761340635946182700,1.4541826171875,-12.68399874947071,-7.230324178498983,-15.730814423286914
1761340635956249600,1.46424951171875,-8.690706527173518,-2.139365752213448,-6.942444225218892
1761340635966317600,1.474317626953125,-3.656239949569106,2.197558851854503,0.7087250463299453
1761340635976384500,1.484384521484375,-0.757516988158226,3.5030522521123286,4.4954713443398475
1761340635986451700,1.49445166015625,-1.532519948646426,3.2189097317948936,6.44587183714211
1761340635996518700,1.5045185546875,-2.595258485507965,4.659880985295772,6.897201646435261
1761340636006587000,1.5145869140625,-2.634135620912909,5.000860076078772,5.475162764680385
1761340636016653800,1.52465380859375,-1.0922960552573204,5.074700388315319,4.277121438881754
1761340636026720800,1.534720703125,1.2222031226307153,4.583451825609803,3.9486607611492275
1761340636036788700,1.544788818359375,4.049951682630181,4.21707759680748,4.058351846706867
1761340636046855700,1.554855712890625,7.073678741803765,4.765548514425754,3.937769949300587
1761340636056922600,1.564922607421875,9.78385949152112,5.203696770584583,3.536009934340417
1761340636066989600,1.574989501953125,11.659140153670311,4.985874103870987,4.434728121824563
1761340636077057800,1.585057861328125,13.244112174087762,4.968112821730971,5.487931645360589
1761340636087124700,1.595124755859375,14.487046534579992,4.8154149536177515,5.830905709353089
1761340636097192000,1.60519189453125,15.37594884597063,4.396815739798545,5.258180640444159
1761340636107259600,1.615259765625,15.892150648146867,4.046514986179769,3.970333079253137
1761340636117326800,1.625326904296875,16.173355945968627,3.7831320530354975,2.3027209156803785
1761340636127393800,1.635393798828125,16.382112093651294,3.1858748926773663,0.7024421666681766
1761340636137460700,1.645460693359375,16.456745017570256,2.430435003054142,-0.4484764291560277
1761340636147528700,1.65552880859375,16.317690767145155,1.6632497305795548,-1.1777439493097364
1761340636157595600,1.665595703125,15.864258432614802,1.0177311550732702,-1.5745546712994574
1761340636167662600,1.67566259765625,14.961590630722045,0.666401642928645,-1.5747599846132099
1761340636177730800,1.685730712890625,13.789393940275907,0.5833310724668205,-1.2500339633643627
1761340636187797800,1.6957978515625,12.326001303869486,0.41056021120510994,-0.721700920824334
1761340636197864700,1.70586474609375,10.603077441310882,0.19272797294557092,-0.522070949937962
1761340636207931600,1.715931640625,8.82696150226891,0.018582206601463258,-0.7314996996525674
1761340636217999600,1.72599951171875,7.155652676135301,-0.05638389479462057,-0.8895712966933846
1761340636228066600,1.736066650390625,5.66374413934052,-0.09297603366808034,-0.9380530765939503
1761340636238133800,1.7461337890625,3.0963422135293484,-0.397525336532481,-0.16657514842674134
1761340636248201700,1.75620166015625,3.3114830938130617,-0.5024448603067547,-0.17300278858775273
1761340636258269000,1.76626904296875,4.31370198778212,0.4735750319141894,-0.6046269584737718
1761340636268335900,1.7763359375,4.820008418887853,0.29874886382417754,-0.19197344651753082
1761340636278403800,1.78640380859375,6.066666183817386,-0.292927318063844,-0.29305041472055016
1761340636288470800,1.796470703125,7.134851880168914,-0.6506451978050172,-0.30340434321351345
1761340636298537700,1.806537841796875,8.186542368793488,-1.057088109884411,-0.561246337637119
1761340636308604700,1.816604736328125,9.010652766799927,-1.3673041058741509,-0.8680228972300886
1761340636318672600,1.826672607421875,9.451002332395314,-1.3572268023654819,-1.1918316575035452
1761340636328739600,1.836739501953125,9.449562070459127,-0.9294353242438286,-0.9490673686917871
1761340636338806500,1.846806640625,8.563751879864931,-0.811666365366429,-1.1542991416405886
1761340636348873700,1.856873779296875,6.935902840751409,-0.36152865193467587,-1.3575611488863826
1761340636358941700,1.866941650390625,4.92775567690134,0.39677839062269776,-1.6482319019287823
1761340636369009000,1.8770087890625,3.1571354126662015,1.1310442305203527,-2.228655562516302
1761340636379075800,1.887075927734375,1.7420248688697815,1.5128735834121703,-2.5714462327659127
1761340636389143800,1.897143798828125,0.3513181139677763,0.9407401967860758,-2.1942576183520255
1761340636399210800,1.907210693359375,-1.6063398026168345,0.05130796607008669,-1.3584642352059482
1761340636409277700,1.917277587890625,-4.513374080777168,-0.5106425606139003,0.5015458656404167
1761340636419345700,1.927345703125,-9.071337829387188,-0.6931022375233471,3.6536928954347965
1761340636429412900,1.937412841796875,-16.53866809849739,0.325839133589901,6.478059119519591
1761340636439479800,1.947479736328125,-27.029451870536803,2.413540859137475,7.83716662106514
1761340636449546800,1.957546630859375,-38.135239179766174,5.040833774548768,7.998218768286705
1761340636459614700,1.96761474609375,-46.311921833324426,7.0259262260258195,7.726397384881973
1761340636469681700,1.977681640625,-49.05123456950187,7.545815776804089,6.833871037775277
1761340636479748600,1.98774853515625,-46.04675464711189,6.18143062711656,3.643916182307899
1761340636489816600,1.997816650390625,-38.1880822966814,-0.29218941397704185,-3.691426121501624
1761340636499883800,2.0078837890625,-27.425947096836566,-14.316860648310184,-16.631409510558843
1761340636509950700,2.01795068359375,-15.252119052684305,-26.095748294389246,-29.69165447902679
1761340636520017700,2.028017578125,-5.546724026069045,-17.12060055621266,-27.564834174001216
1761340636530086000,2.0380859375,-0.6177315008491278,-8.057325037249923,-14.972218407720327
1761340636540152800,2.04815283203125,3.192168732124567,-1.7475548843376338,0.7791814152166247
1761340636550219800,2.0582197265625,4.957808285337686,1.3385599496878682,8.171725323411822
1761340636560287700,2.068287841796875,1.6226006170660257,3.3750893045440313,8.967056201657652
1761340636570355200,2.078355224609375,-4.517680253538489,6.118239719188213,8.507455992147326
1761340636580422100,2.088422119140625,-8.35550601979196,8.590761467343569,8.356564588934182
1761340636590489000,2.098489013671875,-6.816162947127222,9.80047511075735,7.793044570744037
1761340636600557000,2.10855712890625,-1.2071265495300292,9.60457727560401,6.975572003316879
1761340636610624000,2.1186240234375,5.061889422059059,8.684725114676356,6.120511171251535
1761340636620691200,2.128691162109375,10.067232196509838,7.474306537863612,4.773681551998854
1761340636630759200,2.13875927734375,13.578439990288018,5.5174944244533775,2.7740535024300215
1761340636640826000,2.148826171875,15.464277117764949,3.573423719194531,0.4868400986135006
1761340636650893300,2.158893310546875,15.909218687325716,2.8420912658676505,-1.4637911342047154
1761340636660960300,2.168960205078125,15.755633222723006,2.717925372494757,-2.626885795915127
1761340636671028200,2.1790283203125,16.39143054161668,2.656339269414544,-2.4984806575372813
1761340636681095200,2.18909521484375,17.066119608962534,2.627496621289849,-2.738142231093347
1761340636691162000,2.199162109375,17.50882479777336,2.3597300662338734,-3.054495122402906
1761340636701230300,2.209230224609375,17.832391565984487,2.1865157720535993,-2.8417274009913203
1761340636711297300,2.21929736328125,17.845546815633774,2.0263246255755423,-2.42702607139349
1761340636721364200,2.2293642578125,17.295439236724377,1.611599184449762,-2.07280039941594
1761340636731431200,2.23943115234375,16.093040300238133,1.3367837337955832,-1.6831598613165317
1761340636741499100,2.2494990234375,14.659049114882945,1.266025605483353,-1.3004970532752573
1761340636751566000,2.259566162109375,13.003984736585616,1.2402512588880956,-0.9032701517000794
1761340636761633300,2.26963330078125,10.21741574371457,1.1618977070108056,0.22638795822411775
1761340636771701000,2.279700927734375,7.104436283639073,0.36573812285587187,1.6331841165311634
1761340636781768200,2.289768310546875,7.367585115766524,0.7850980919145047,-0.10478607012033461
1761340636791835100,2.299835205078125,5.346100915959477,0.46990554962120945,-0.5470018679790198
1761340636801902300,2.30990234375,4.859918404471874,-0.5845914477914571,-1.4810136332929134
1761340636811970300,2.31997021484375,4.219608576589822,-1.6215096069589257,-1.9983377174973487
1761340636822037200,2.330037353515625,3.717057698625326,-2.3408029551848766,-3.01746741425693
1761340636832104200,2.340104248046875,3.665329264953732,-2.9846643380686637,-3.7828731098383663
1761340636842172200,2.350172119140625,3.9035640205770727,-3.3143492968991395,-4.048950981155038
1761340636852239000,2.360239013671875,4.397172882673144,-3.1205636315941807,-4.011108157233894
1761340636862306000,2.37030615234375,5.020885211497545,-2.80049288880527,-3.671514675590396
1761340636872373000,2.380373046875,5.865356260487437,-2.6940657734796405,-3.232638689678907
1761340636882441200,2.390441162109375,6.551205604273081,-2.816681514801085,-2.9655636240184307
1761340636892508200,2.400508056640625,6.703532593247294,-2.861575426277518,-2.7948154276907444
1761340636902575400,2.410575439453125,5.908654719465971,-2.8745371991813182,-2.7697540516704318
1761340636912643000,2.42064306640625,4.563181190997362,-2.4137786134161052,-2.7112738056510683
1761340636922710300,2.430710205078125,3.353860346293449,-1.3300938807681202,-1.8536214957877992
1761340636932777200,2.440777099609375,2.3352403526216743,-0.15418116547353564,-0.5557295104444027
1761340636942844200,2.45084423828125,1.236700434538722,0.8991941344328224,0.6487360031828284
1761340636952912100,2.460912109375,-0.5222516037344932,1.607638171864301,1.62967493936643
1761340636962979000,2.47097900390625,-2.61026257789433,1.4457242932468652,2.5829858639121053
1761340636973046300,2.48104638671875,-5.086256970596313,0.7565068612676114,3.017706191448867
1761340636983114200,2.4911142578125,-8.29663005245328,-0.023599705969914793,3.3306437213569877
1761340636993181200,2.50118115234375,-12.022044076013565,-0.22929785432144997,3.773627142587304
1761340637003248000,2.511248046875,-16.333264768373965,1.1694303675379603,3.8686557888031006
1761340637013315300,2.5213154296875,-21.368333988046643,3.766788236477971,3.67898544986248
1761340637023383000,2.531383056640625,-26.198369295430183,5.949319907331466,3.8438857969447966
1761340637033450200,2.5414501953125,-28.97742016775608,6.375186774066091,3.711720136989653
1761340637043517200,2.55151708984375,-29.407307960569856,5.978048573687672,2.1371641505159436
1761340637053585400,2.56158544921875,-27.60760480971336,4.999115278238058,-0.2697185659065843
1761340637063652400,2.57165234375,-24.202301860952375,3.201918557244539,-2.283840274121612
1761340637073719300,2.58171923828125,-20.224434002280233,1.1798988623213023,-3.554331772972643
1761340637083786200,2.5917861328125,-16.101334665852786,-0.01774849572367966,-4.307243020901084
1761340637093854200,2.601854248046875,-11.348161648875474,-1.3564251305937767,-4.488638283449411
1761340637103921200,2.611921142578125,-6.279767667227983,-3.851242881709337,-5.004564191293716
1761340637113988000,2.621988037109375,-3.343957376438379,-4.9860775174885985,-5.93118453118205
1761340637124056000,2.63205615234375,-3.4851457162827253,-3.6698686619490384,-6.379731431758404
1761340637134123000,2.642123046875,-4.752703645899891,-1.1546297618344425,-5.429958764341473
1761340637144190000,2.65218994140625,-5.595207194209099,1.5414210479825734,-2.8322084620177743
1761340637154257400,2.66225732421875,-5.285377274927496,3.152579649057984,0.3622317221701145
1761340637164325000,2.6723251953125,-3.628600832015276,3.986774803227186,2.9635610520243643
1761340637174392300,2.682392333984375,-1.157489535179734,4.3258524443030355,4.493136763912439
1761340637184459300,2.692459228515625,1.9900281543135643,4.1389316963315,5.2579474162101745
1761340637194527200,2.70252734375,5.191937359207868,3.6588463326752185,5.5230567347556345
1761340637204594200,2.71259423828125,7.680535797417163,2.999740618908405,5.541608290490508
1761340637214661000,2.7226611328125,9.471626602751016,2.3199825777351855,5.089994403558969
1761340637224728000,2.73272802734375,10.671295822012423,1.5755385677702725,3.9383974335491656
1761340637234796300,2.74279638671875,11.571312232613563,0.9126414988964796,2.630801215793192
1761340637244863200,2.75286328125,12.214065361994503,0.1958735774949193,1.6451242913022637
1761340637254930200,2.76293017578125,12.648798841273784,-0.8353210894592106,0.8222285297825932
1761340637264998100,2.772998046875,13.032519926196336,-1.6853829441934822,0.2415832623336464
1761340637275065000,2.783065185546875,13.303438807803392,-2.0430755616292355,0.16506649742946028
1761340637285132300,2.79313232421875,13.53149703732729,-2.339229276127368,0.68077847026214
1761340637295199200,2.80319921875,13.938164113551377,-1.8905355144262312,0.4579162750113755
1761340637305267200,2.81326708984375,13.153519464492797,-1.253346302782744,0.7586413890782743
1761340637315334100,2.823334228515625,11.416107642376423,-1.6156776859350501,2.065062498640269
1761340637325401300,2.8334013671875,10.27177978658676,-1.542936859373003,2.5103823999941346
1761340637335468300,2.84346826171875,8.69866654626727,-0.9919446065835654,2.7463880813911556
1761340637345536300,2.853536376953125,7.311531220111251,-1.1076013225473462,2.3228327064692973
1761340637355603200,2.863603271484375,6.047750470945239,-1.6370432761773466,1.7749397348694502
1761340637365670100,2.873670166015625,5.606947900885343,-2.055102537900954,1.1715811888962984
1761340637375738000,2.883738037109375,5.712396234306692,-2.691049056006968,0.615298647679016
1761340637385805000,2.89380517578125,5.853167225521802,-3.367969535666704,0.12801065916754303
1761340637395872000,2.9038720703125,6.127644091871381,-3.518519870357215,-0.30169834301322696
1761340637405939200,2.913939208984375,6.621768502274155,-3.4586458318918942,-0.26814382740315046
1761340637416007200,2.924007080078125,6.943344973450898,-3.451381686107814,0.26148046052381396
1761340637426074400,2.934074462890625,7.2056269596159455,-3.336545638877153,0.7184085282154381
1761340637436141300,2.944141357421875,7.270011461243033,-3.257281255765259,0.8277772499509155
1761340637446209300,2.954209228515625,7.248813774913549,-3.0891499639377,0.6345715764909983
1761340637456276200,2.964276123046875,7.123795064103603,-2.899500375524163,0.4306789431914687
1761340637466343200,2.97434326171875,6.3776511183530085,-2.882936778736114,0.04322433429639786
1761340637476410000,2.98441015625,5.396560937130451,-2.806270595423877,-0.5197979269720614
1761340637486478000,2.99447802734375,4.532246539029479,-2.664191151958704,-0.6463617483321576
1761340637496545000,3.004544921875,2.9787101058393715,-2.824257210752368,-0.48699185510911047
1761340637506612200,3.0146123046875,0.8559025435864925,-2.928542930135131,-0.03363307900531217
1761340637516680200,3.02468017578125,-1.4748995343267917,-2.676736453016102,1.0403896346703172
1761340637526747100,3.0347470703125,-4.788242576792836,-1.9544822091579437,2.441559623658657
1761340637536814300,3.044814453125,-8.71567554873526,-1.1706989261690526,3.953517553530633
1761340637546881300,3.05488134765625,-13.462602949321269,-0.9282589739408343,5.270196656930446
1761340637556949200,3.06494921875,-19.881347710084913,-0.7285610158521681,5.9739154194056985
1761340637567016000,3.075015869140625,-26.733136681866643,1.2930986135870217,5.576285051596164
1761340637577083000,3.085082763671875,-31.823646633732317,4.579594857920706,4.885113928265869
1761340637587151000,3.095151123046875,-34.20387354454994,6.537320286783576,3.6395191163927314
1761340637597218000,3.105218017578125,-32.84735722854137,8.273523902153968,1.9447063728138803
1761340637607285000,3.115284912109375,-29.525369691848752,8.611502642077207,-0.5183171868950128
1761340637617352000,3.12535205078125,-25.298902335405348,7.253629066240787,-4.000511067634821
1761340637627420000,3.135419921875,-20.371972003412246,5.1196764251172535,-7.29952221788764
1761340637637486800,3.14548681640625,-15.348848073077201,2.8402839241847393,-9.040084612989425
1761340637647554000,3.155553955078125,-10.650400333499908,1.2569662468455731,-8.889798189932108
1761340637657621000,3.16562109375,-6.855178029698133,0.47214010374024507,-7.934619864079356
1761340637667689000,3.17568896484375,-4.06114352325201,0.7966733058307319,-6.671023239308595
1761340637677756200,3.185756103515625,-1.6614134550631046,1.5049531656764448,-5.404252660676836
1761340637687823000,3.195822998046875,0.48240883816778657,1.9388507786534726,-4.114133355161547
1761340637697891000,3.20589111328125,2.108465148645639,2.2550139926098285,-2.7536759003117677
1761340637707958000,3.2159580078125,2.952093317070603,3.005930705720186,-1.211536986383423
1761340637718025000,3.22602490234375,3.4483073932290074,3.667041914090514,0.28426479499023405
1761340637728092000,3.236091796875,3.746716339308023,4.153642943251133,1.6524154712237418
1761340637738159900,3.246159912109375,4.297845662480593,4.1945483696132895,2.629858674246073
1761340637748226800,3.256226806640625,5.194006566697359,3.761534261472523,3.1669805148541927
1761340637758293800,3.266293701171875,6.204480663314461,2.921298365834355,3.3348192534759638
1761340637768362000,3.276362060546875,7.4045041028410195,2.0704666957713664,3.060637278419733
1761340637778429000,3.286428955078125,8.936869737708568,1.5542830137737094,2.471149290758371
1761340637788496100,3.29649609375,10.818611704826354,1.0460569397170096,1.663050116354227
1761340637798563000,3.30656298828125,12.741652481538056,0.33763040140960365,0.8075568842209875
1761340637808631000,3.316631103515625,14.39307295037508,-0.3506508091654628,0.007613836004585027
1761340637818698000,3.326697998046875,15.49870078089237,-0.9304555341370403,-0.6190557351902127
1761340637828765000,3.336764892578125,15.914689812213181,-1.4484109019823372,-1.1991971447702496
1761340637838833200,3.346833251953125,15.803582722377776,-1.5440871984519065,-1.5768243697971105
1761340637848900000,3.356900146484375,14.97051511093378,-1.3349559338465333,-1.3702351908899844
1761340637858967000,3.366967041015625,13.263300858682394,-1.2271581146895885,-0.5164942092515528
1761340637869034000,3.377033935546875,11.087950039243697,-1.0182095131747424,0.6908819311253727
1761340637879102000,3.38710205078125,8.821706650480628,-0.5866148433778434,1.5062904056295752
1761340637889169000,3.3971689453125,6.6292556431591505,-0.31143311669453977,1.996306211669743
1761340637899235800,3.40723583984375,4.929368957316875,-0.29820385196097193,2.4052669517889615
1761340637909303000,3.417302978515625,4.052634638103842,-0.38533451146855946,2.6694039181709286
1761340637919371000,3.42737109375,3.705796884420514,-0.5933091533847152,2.820062973932922
1761340637929438000,3.43743798828125,3.663382807061076,-0.8309712967518716,2.771956237889826
1761340637939505000,3.4475048828125,3.9570232235640286,-1.0785230390358715,2.4961332176283
1761340637949573000,3.457572998046875,4.398590932777524,-1.3122295766450465,1.9744396861679852
1761340637959640000,3.46764013671875,4.8582753134399645,-1.578189374540001,1.3780357816383242
1761340637969707000,3.47770703125,5.266507739284634,-1.936742408197373,0.6424823496155441
1761340637979774000,3.48777392578125,5.661159383544326,-2.2718694119513034,-0.10036761435726657
1761340637989842000,3.497842041015625,6.135614047837257,-2.512676063889265,-0.6489476001068949
1761340637999908900,3.507908935546875,6.632687371173501,-2.7255051600992677,-1.0383356978151947
1761340638009975800,3.517975830078125,7.035215447896719,-2.899744705674052,-1.2276783391714094
1761340638020044000,3.5280439453125,7.161941547146439,-2.856105178172886,-1.2551593435540795
1761340638030111000,3.538111083984375,6.632116293287277,-2.564467333664,-1.3990350227862596
1761340638040178200,3.54817822265625,5.985514671784639,-2.2528668975785373,-1.4271908576905727
1761340638050245000,3.5582451171875,5.413302228572964,-1.8644716833651065,-1.3894291361816227
1761340638060313000,3.56831298828125,4.469163183128834,-1.2336207348324357,-1.2010309360686688
1761340638070380000,3.578380126953125,3.4074253477424383,-0.48285687419623136,-0.5433611003238707
1761340638080447000,3.588447021484375,2.0965210283517837,-0.16240509620048105,0.29242227288484574
1761340638090514000,3.598513916015625,-0.02889408605098724,-0.4802641908219084,1.8334413159377871
1761340638100582000,3.608581787109375,-3.5389340050935743,-1.8345934085823594,4.140237810494005
1761340638110648800,3.61864892578125,-9.012422114560007,-3.2820702445849776,6.762952165943384
1761340638120716000,3.628716064453125,-17.386475013911724,-2.991006985093653,8.873651357251406
1761340638130784000,3.638783935546875,-29.003552972400186,0.7504764950621873,7.045881218817829
1761340638140851000,3.648850830078125,-40.16914856138229,6.356105056977271,1.5710934249296784
1761340638150918000,3.65891796875,-44.96376651842594,8.58033301230967,-1.6265236357286572
1761340638160985000,3.668985107421875,-42.39974020652771,7.739350389957427,-3.218467540985346
1761340638171053000,3.679052978515625,-34.64395306103229,6.099794546437263,-6.0443561523318285
1761340638181120000,3.6891201171875,-25.254113930130003,2.8397575622230766,-8.21464033603072
1761340638191187000,3.69918701171875,-17.48187833865881,-0.9684445615958421,-8.935319585657119
1761340638201255200,3.709255126953125,-11.868904017090797,-2.8892423086211085,-8.81119986951351
1761340638211322000,3.719322021484375,-7.910178081262111,-2.783696652305126,-7.360852008119225
1761340638221389000,3.72938916015625,-4.856890581083298,-1.6697583818212152,-5.113176541703939
1761340638231456000,3.7394560546875,-2.3390222092479465,-1.0591146472759545,-3.3046085318684577
1761340638241524000,3.74952392578125,0.12374912926554679,-1.0752686403498053,-2.683344472979009
1761340638251591000,3.7595908203125,2.3775141447275874,-0.6655895228281616,-2.710517726586759
1761340638261657900,3.769657958984375,4.169538431519269,0.32240313125923276,-2.255442154894024
1761340638271725000,3.77972509765625,5.342537085998058,1.2861067088730633,-0.80415788943246
1761340638281792800,3.789792724609375,6.020099078431725,1.8300412982359529,0.6945689490750432
1761340638291860000,3.79985986328125,6.678800887572765,2.255044387748092,1.621079983370006
1761340638301927200,3.80992724609375,7.555529361566901,2.6864427312552928,2.17806650813818
1761340638311995100,3.8199951171875,8.662695069175959,2.983528027515113,2.70310277415514
1761340638322062000,3.83006201171875,10.041983188962936,3.097099461637437,3.2532746504724024
1761340638332129000,3.84012890625,11.322895105671883,2.9687048446536064,3.4336750567644834
1761340638342196000,3.850196044921875,12.427480149137972,2.7085487646013497,3.3571640640139577
1761340638352264000,3.860263916015625,13.414468740749358,2.301632097530365,3.4150843380630014
1761340638362331000,3.870330810546875,14.229075981873272,1.8610466773524879,3.596684767794609
1761340638372397800,3.880397705078125,14.643520706361532,1.4007630156226456,3.5463895817965265
1761340638382464800,3.89046484375,14.338226092422008,0.9831438258167355,3.2391566932708025
1761340638392533000,3.900532958984375,13.41976334002614,0.8587572023652493,2.7496879997193813
1761340638402600000,3.910599853515625,12.121302907145022,0.6352290174864232,2.3461261960342523
1761340638412667100,3.920667236328125,10.83331476843953,0.3450467420807108,2.1285778162173927
1761340638422734800,3.93073486328125,9.679463297501206,0.1674713666141033,1.8822354497231542
1761340638432802000,3.940802001953125,8.428339785334467,0.014216047281213104,1.6440106309719382
1761340638442869000,3.950868896484375,7.249250997287034,-0.000909196399943903,1.4996099049523473
1761340638452936000,3.96093603515625,6.300805779081583,0.12122709997463971,1.4046370805770159
1761340638463004000,3.97100390625,5.681649798387289,0.16446396495904772,1.4828379261106253
1761340638473070800,3.98107080078125,5.386782470437884,-0.00785182774523273,1.5760497321628033
1761340638483138000,3.991137939453125,5.371830400499701,-0.22590443075718356,1.6005411993406713
1761340638493205000,4.001205078125,5.533555916938186,-0.4361918248614296,1.5850114756450056
1761340638503273000,4.01127294921875,5.898595682266354,-0.7999404909331351,1.5690547587089239
1761340638513339100,4.021339111328125,5.90322801824212,-0.8289446862950921,1.5159838243871926
1761340638523406000,4.031406005859375,6.3586120713621375,-1.214561083444953,1.3996495014227925
1761340638533474000,4.04147412109375,6.672296912506222,-1.4628955005392432,1.150808596111089
1761340638543541000,4.051541015625,6.827922943025827,-1.6863940209321677,0.8437354281917214
1761340638553608000,4.06160791015625,6.904931948426365,-1.7652355024568736,0.6530776125837117
1761340638563676000,4.071676025390625,6.956469243440032,-1.691676199118793,0.5465934333086013
1761340638573742600,4.08174267578125,6.910900501441955,-1.7152791930243372,0.48839193116538226
1761340638583809500,4.0918095703125,6.886420724701881,-1.8093404555127024,0.48381139844208954
1761340638593876500,4.10187646484375,6.822352449417114,-1.953324417424947,0.37986009864546355
1761340638603944700,4.11194482421875,6.529322858288884,-2.085990574248135,-0.07676043746694922
1761340638614011600,4.12201171875,6.157360600221157,-2.034656400591135,-0.6883808350246399
1761340638624078800,4.132078857421875,5.9154345888644455,-1.9442875628799199,-0.9603057518690824
1761340638634145800,4.142145751953125,5.625926742121577,-1.6077067070558666,-0.7789483371131122
1761340638644213800,4.1522138671875,4.390524530699849,-1.1076222192049026,-0.061944341933354734
1761340638654280700,4.16228076171875,1.8239672390192747,-1.263148004220426,1.0104762155089526
1761340638664347600,4.17234765625,-1.9022738830149173,-1.8529810059271752,1.8125985805258154
1761340638674415600,4.18241552734375,-7.297142044752836,-2.822952850155532,2.4456521536692977
1761340638684482600,4.192482666015625,-14.898043748962879,-4.012250605267286,3.7249718327507373
1761340638694549800,4.2025498046875,-25.47956168489456,-2.3689080828152598,3.53282516682446
1761340638704616700,4.21261669921875,-36.89374975738525,2.473982468357682,0.4862522157229483
1761340638714684700,4.2226845703125,-45.830458167052264,7.148505142468213,-3.0992844044610854
1761340638724751600,4.232751708984375,-47.60225624289512,8.917903171432018,-4.429993494518101
1761340638734818800,4.24281884765625,-42.78423402938842,7.187755202838778,-5.497005178654193
1761340638744885800,4.2528857421875,-34.24958081823587,2.9724475383132694,-7.402658767235279
1761340638754953700,4.26295361328125,-25.747740327882767,-1.480282542539388,-8.718873467993737
1761340638765020700,4.273020751953125,-19.320389066815377,-6.027926995578408,-10.447862329679728
1761340638775087600,4.283087646484375,-13.842920947802066,-14.5968442953825,-16.247829879933594
1761340638785155800,4.29315576171875,-8.58924580208361,-15.107769033938645,-20.06089880607128
1761340638795222800,4.303222900390625,-3.948547656163573,-10.19305988561511,-15.766850197786091
1761340638805289700,4.313289794921875,0.16700900979936123,-4.083702853323519,-7.156273438382148
1761340638815356700,4.323356689453125,2.91809986205399,-0.05599873140193522,-0.373055314001441
1761340638825424600,4.333424560546875,3.6166654795497655,1.8971214686878024,4.014609735614061
1761340638835491600,4.34349169921875,2.742823374646902,3.048977235764265,6.153710845541954
1761340638845558500,4.35355859375,1.5579145021438598,3.2616052564442155,5.568365949034691
1761340638855626500,4.36362646484375,1.4068641089767218,4.367077604138851,4.263073332045972
1761340638865693700,4.373693603515625,2.301020103111863,5.131102074494958,3.8315836569935082
1761340638875761000,4.383760986328125,4.402895351973176,5.4730619930088515,4.281145872092247
1761340638885827800,4.393827880859375,7.298015320456027,5.960133562290668,4.851476154819131
1761340638895895800,4.403895751953125,10.076770424705742,6.244015970367193,5.249773462104797
1761340638905962800,4.413962646484375,12.44011283621788,6.142756905329227,5.5270203776896
1761340638916029700,4.42402978515625,14.331922608363628,5.5766117993324995,5.343806083020567
1761340638926096600,4.4340966796875,15.593772097206115,4.676999877879023,4.730089955292642
1761340638936164600,4.44416455078125,16.514353156930206,2.7404771037817,2.979535450747609
1761340638946231600,4.4542314453125,16.219868690818547,2.034433990012109,2.0511519005790353
1761340638956299800,4.4642998046875,15.381781205385922,1.4131481576822698,1.3432625744208693
1761340638966366700,4.47436669921875,14.124274714183807,1.101319977255538,0.7659864911440759
1761340638976433700,4.48443359375,12.734155403780937,1.0328646459929645,0.397107732174918
1761340638986500900,4.4945009765625,11.223237630611658,1.0294465081125497,0.1800162110137753
1761340638996568600,4.504568603515625,9.90346085345745,1.0487443521700799,-0.09623651503506116
1761340639006635800,4.5146357421875,9.11004779153168,1.0172009206540882,-0.10743182625561021
1761340639016702700,4.52470263671875,8.76964971550703,0.8858570254106074,-0.07910102751003578
1761340639026770700,4.534770751953125,8.835418949490785,0.7522937005519866,-0.13452299107047727
1761340639036837600,4.544837646484375,9.337800316107273,0.5901554751267656,-0.2580836394260637
1761340639046904800,4.55490478515625,9.799078103441,0.23286873507816344,-0.3316684973305091
1761340639056971800,4.5649716796875,9.993961208593845,-0.26487644137134775,-0.5276468869067729
1761340639067039700,4.575039794921875,9.947076707822085,-0.8461834058657288,-0.957671677038446
1761340639077106700,4.585106689453125,9.718159815642236,-1.4684082726113497,-1.6358175337746739
1761340639087173600,4.595173583984375,9.076233784735201,-1.888488518768549,-2.266634726168215
1761340639097240600,4.605240478515625,8.287762855386733,-2.158300900438428,-2.7541131226852533
1761340639107308500,4.61530859375,7.970335905104875,-2.2829943248167632,-2.794621658684313
1761340639117375500,4.62537548828125,7.989184397959709,-2.304498300616443,-2.4600594492062924
1761340639127442700,4.635442626953125,8.048049259382486,-2.1896191448964175,-2.0382281215980647
1761340639137510700,4.6455107421875,8.055431186327338,-1.8743863436579704,-1.535122970751673
1761340639147577900,4.655577880859375,7.901282242622971,-1.5295739583224057,-1.0875136432863772
1761340639157644800,4.665644775390625,7.251900050491094,-1.100613290290907,-0.7956214586902409
1761340639167711700,4.675711669921875,6.218048000895977,-0.6246389421500266,-0.4992996941488236
1761340639177779700,4.68577978515625,4.7342818540245295,-0.0874652252241969,-0.4074392661729827
1761340639187846700,4.6958466796875,2.975434445169568,0.6802884947881103,-0.3330732860945165
1761340639197913600,4.70591357421875,0.49743572690784926,1.3945529089361428,-0.5391577303498983
1761340639207980500,4.71598046875,-2.0208564232975244,1.8900760802209375,-1.0162446428425609
1761340639218048500,4.726048583984375,-3.3454806404829025,1.582012001568079,-0.7724420239590108
1761340639228115700,4.73611572265625,-3.9762142462462187,-0.6316380803223699,1.1756184815883637
1761340639238182700,4.7461826171875,-6.662597356268763,-3.6056805596768853,5.748093570631742
1761340639248250600,4.756250732421875,-15.167372731029987,-2.6143685519084334,9.862012406259774
1761340639258317800,4.76631787109375,-30.467415564405915,3.688823537787795,9.385731111061572
1761340639268384800,4.776384765625,-49.42425773479938,11.97384089385867,5.741116132834553
1761340639278451700,4.78645166015625,-61.845455442667,16.981037771743534,3.1629818006068464
1761340639288519700,4.796519775390625,-60.85506960983276,15.728972010290622,0.38596542978323994
1761340639298586600,4.806586669921875,-48.1595627933979,10.58422544132471,-3.3442832473918793
1761340639308653600,4.816653564453125,-33.44601051943302,4.340690532472729,-5.538330291733145
1761340639318720500,4.826720458984375,-22.197541416931152,-0.5535623955383896,-6.444970504388213
1761340639328788700,4.836788818359375,-14.68425369876623,-3.14343012791872,-6.855411838454008
1761340639338855700,4.846855712890625,-9.724410108208655,-6.097498544454575,-7.949946028026938
1761340639348922600,4.856922607421875,-5.833625489705801,-6.830090350192785,-9.011347763326764
1761340639358990600,4.866990478515625,-1.9024241051405668,-2.9090765976428985,-6.541383882960677
1761340639369057500,4.8770576171875,1.7594114724785088,0.7389044960163533,-1.3955387051030992
1761340639379124700,4.887124755859375,4.481588364937902,1.90329445823431,3.4046392241552472
1761340639389191700,4.897191650390625,6.425320047500729,2.1109889680348335,5.154143342864513
1761340639399260000,4.907260009765625,7.463526785174012,2.7423355911299585,4.260815616247058
1761340639409326800,4.917326904296875,8.196689084276557,3.6175846402212977,3.253093156425655
1761340639419393800,4.927393798828125,9.102773416614532,3.850810043250024,3.0965745609804984
1761340639429460700,4.937460693359375,10.256107585680484,3.5661709715873,2.9423215723797678
1761340639439528700,4.94752880859375,11.454856767487525,3.047104427629709,2.325328907199204
1761340639449595600,4.957595703125,12.650255469822882,2.270392471266538,1.2263017901211977
1761340639459662600,4.96766259765625,14.04392633522749,1.514814926738292,0.2854977343186736
1761340639469729500,4.9777294921875,15.620105977380275,0.6642896922759711,-0.5281632389310748
1761340639479797500,4.987797607421875,17.002869664323327,-0.2989630362978205,-0.8300628766700625
1761340639489864700,4.99786474609375,17.72372777764797,-0.8048585850477218,-0.9449444435428828
1761340639499931600,5.007931640625,18.748310479116437,1.004455713110417,-1.4296730298951268
1761340639509999900,5.017999755859375,19.50697897539735,2.056614842160046,-0.23259806491062043
1761340639520066800,5.02806689453125,18.702964439958333,0.8577292475569993,0.9754805246472358
1761340639530133800,5.0381337890625,16.78731201993227,-0.10998663443811237,0.9237846780709922
1761340639540200700,5.04820068359375,14.34708276809454,0.5350210689365863,0.783249249177426
1761340639550268700,5.0582685546875,11.668225961923598,0.7498246800899505,0.09515205339975655
1761340639560335600,5.068335693359375,9.659248192468285,0.3049846712075174,-0.38113274892978366
1761340639570402800,5.07840283203125,8.307558858224748,0.1349549984127283,-0.4099322154998779
1761340639580469800,5.0884697265625,7.340283267343044,0.2735911695562303,-0.08977437894940375
1761340639590537700,5.098537841796875,6.396313148725032,0.3995939229674637,0.734602707169205
1761340639600604700,5.108604736328125,5.461063512179255,0.369461381162703,1.4174337260469794
1761340639610671900,5.118671875,4.6213908033818,0.27340339189916846,1.5790578279376029
1761340639620738800,5.12873876953125,4.184892067995667,0.08864128326624632,1.3958677909269928
1761340639630807000,5.13880712890625,4.278499741497636,-0.2894279133744538,1.2783644241832195
1761340639640874000,5.1488740234375,4.736856672948599,-0.7428259072437882,1.4067901669576763
1761340639650941000,5.15894091796875,5.299527380833029,-1.1392737872704863,1.3191058921553194
1761340639661009000,5.1690087890625,5.866969540902972,-1.4142463281825184,0.9928330067906528
1761340639671075800,5.179075927734375,6.442307422658801,-1.5735326347753404,0.681803283265233
1761340639681142800,5.189142822265625,6.850134190312027,-1.7086919235885143,0.4035150419339537
1761340639691209700,5.199209716796875,6.976758582752943,-1.8356133992798624,0.034492819373495874
1761340639701278000,5.20927783203125,6.975255192452669,-1.8743667621746658,-0.21263317177910357
1761340639711345000,5.219344970703125,6.445732720932364,-1.9574251307420432,-0.35754915384445335
1761340639721411800,5.229411865234375,5.626843272444606,-1.8231845642089843,-0.4126750844672322
1761340639731479000,5.23947900390625,4.789038111084699,-1.3061790444344281,-0.11974599457141011
1761340639741546800,5.249546630859375,3.0985476146191355,-0.7638464834406972,0.4461817058149725
1761340639751614000,5.259614013671875,0.34918402454853054,0.30361670732256024,0.8944448210138827
1761340639761681000,5.269680908203125,-2.4516747749596832,1.3096741930738092,1.3973188665181397
1761340639771748900,5.279748779296875,-5.35405801244378,1.194011193499714,1.7431804686456918
1761340639781815800,5.28981591796875,-7.609388377526402,-0.07952248605880886,3.3282886826634406
1761340639791882800,5.2998828125,-9.977159711396693,-2.0420964874640104,6.917042072936892
1761340639801949700,5.30994970703125,-14.954936433529854,-2.7123127933099864,9.780447637251019
1761340639812018000,5.320017822265625,-23.02789918489456,-0.46618009935729204,9.293981048125028
1761340639822084900,5.3300849609375,-31.53809366209507,3.0269913216665385,6.269782864308357
1761340639832151800,5.34015185546875,-37.842564393424986,5.396327712896466,3.098382779446244
1761340639842218800,5.35021875,-40.488863330340386,5.513558838570118,0.4560743734717369
1761340639852286700,5.36028662109375,-38.80158478165865,4.3790164637357,-1.951366707485914
1761340639862354000,5.37035400390625,-32.55486715111732,2.421231413640082,-4.763744679874182
1761340639872420900,5.3804208984375,-24.22450667849779,-0.048015952487103636,-7.344063954925537
1761340639882487800,5.39048779296875,-16.665519869953393,-2.2032379204042254,-8.90521846190393
1761340639892556000,5.40055615234375,-10.80205804491043,-3.60075800858289,-9.20536928321421
1761340639902623000,5.410623046875,-6.3692158829629415,-3.758837569734454,-8.228014781388639
1761340639912690000,5.42068994140625,-3.158091105955839,-3.3007948187991976,-6.633709115436673
1761340639922756900,5.4307568359375,-0.8250403723329305,-2.163823901643604,-4.776821895851195
1761340639932824800,5.440824951171875,0.6724141081511974,-0.44888358518481253,-2.5568995287582275
1761340639942891800,5.450891845703125,1.0312444974452257,1.6217378627568482,0.07051284831427038
1761340639952958700,5.460958740234375,1.082792313852906,3.690451431250572,2.5964421423345803
1761340639963026700,5.471026611328125,1.2172621590971946,4.61686806526035,4.288294574803114
1761340639973093600,5.48109375,1.9165519992142914,4.486554462912679,4.554155588498712
1761340639983161000,5.4911611328125,3.3624832132101057,3.596358312319219,3.757211137576401
1761340639993228000,5.50122802734375,5.040075649657846,2.2581933532983065,2.3763950775697826
1761340640003296000,5.5112958984375,6.545808713665604,1.2323936772555113,0.8808527873825281
1761340640013363000,5.521363037109375,8.016757464540005,0.36878991164192554,-0.518002567987889
1761340640023430000,5.531429931640625,9.512214049205184,-0.09534229700854048,-1.3089115381382406
1761340640033496800,5.541496826171875,11.070385156458615,-0.27439704257901754,-1.4491284026019273
1761340640043564800,5.551564697265625,12.699156571114063,-0.322475319712609,-1.2626293871738017
1761340640053631700,5.5616318359375,14.246811545050143,-0.2938308610411361,-0.914381109105423
1761340640063698700,5.57169873046875,15.425056868010758,-0.346612274364382,-0.613391498883441
1761340640073765600,5.581765625,16.015174970269204,-0.5480336221795529,-0.36164749254137274
1761340640083833900,5.591833740234375,15.899554202401637,-0.9104873165372759,-0.09080459877997636
1761340640093900800,5.60190087890625,15.121642076468467,-0.9396868883408606,-0.01925466250292957
1761340640103968000,5.611968017578125,13.931422238075733,-0.49327228708546605,-0.17979257659204304
1761340640114036000,5.622035888671875,12.510198179835081,-0.19462863720143211,-0.3138143858078867
1761340640124103000,5.63210302734375,11.181814902377129,-0.07792140753772109,-0.08820596058890223
1761340640134169900,5.642169921875,10.168151069808006,-0.04833079058993608,0.3562679914601147
1761340640144236800,5.65223681640625,9.237938842907548,-0.0648638461092487,0.5979970920052379
1761340640154304800,5.6623046875,8.421855099490285,0.04491714622154832,0.7972543936543166
1761340640164372000,5.6723720703125,8.059669554549455,0.24245025442652404,1.083087570472434
1761340640174439000,5.68243896484375,8.095092165586351,0.2797253614623099,1.3818880731523036
1761340640184505900,5.692505859375,8.346373449787498,0.18675211340636014,1.4602593068167566
1761340640194573800,5.70257373046875,8.616970259833336,0.19111454639956355,1.2539458761110902
1761340640204640800,5.712640869140625,8.511545307287573,0.14252492221035062,0.7834699061907827
1761340640214708000,5.7227080078125,7.9884128290653225,0.017838658225163815,-0.09013707478195428
1761340640224775000,5.73277490234375,7.307423784792423,-0.03219546568393707,-1.313788642655313
1761340640234843000,5.7428427734375,6.617514936482906,-0.08779146150387823,-2.393879734725505
1761340640244909800,5.752909912109375,6.213779237535595,-0.03685556644946337,-2.739969738781452
1761340640254976800,5.762976806640625,5.951255843830109,0.3405384343434125,-2.3866563593432306
1761340640265043700,5.773043701171875,6.047234338116645,0.8874358190346509,-1.8617184391342103
1761340640275112000,5.78311181640625,6.407475178730487,1.0681065667007117,-1.5609702364526687
1761340640285179000,5.793178955078125,7.103420969116687,0.6309362156633287,-2.0081917336441575
1761340640295245800,5.803245849609375,7.85915399646759,-0.4098910797718912,-2.8526369175404307
1761340640305313800,5.813313720703125,8.07221456334591,-1.5979998442947863,-3.4089687777921553
1761340640315380700,5.823380615234375,7.664612836620211,-2.0343745149098336,-2.759576648788154
1761340640325447700,5.83344775390625,5.440018386062979,-1.6009810520626604,-0.13282149351537226
1761340640335515000,5.843514892578125,0.5514893886566162,-0.49858018423523753,2.877522936993837
1761340640345582800,5.853582763671875,-5.59434619346559,1.2952104911744593,4.559444927078485
1761340640355650000,5.863650146484375,-10.62064816931486,1.9873551357120274,5.333996052145958
1761340640365717000,5.873717041015625,-14.608324305295943,0.4243400955587625,6.04536036093831
1761340640375784000,5.883783935546875,-18.89183632199764,-2.220921168871969,6.474049883878231
1761340640385852000,5.893851806640625,-24.167438637363908,-3.5600644714057443,6.36069647642076
1761340640395918800,5.9039189453125,-30.37503304878473,-3.527987371404469,4.758924712371826
1761340640405985800,5.91398583984375,-36.26537469744682,-1.9201754504084585,1.510704276549071
1761340640416052700,5.924052734375,-41.109864062118525,-1.4964469108767806,-2.5714596767693756
1761340640426120700,5.93412060546875,-43.32147511246204,-2.93270297242403,-8.277499820047616
1761340640436187600,5.944187744140625,-40.59497509610652,-2.857856990276277,-12.549709521490335
1761340640446254800,5.9542548828125,-32.082038042199606,-1.4360921031571925,-10.33968486355543
1761340640456322000,5.964322021484375,-20.804246983623504,-1.534974648322165,-5.0748096939086915
1761340640466390000,5.97439013671875,-11.8142909678936,-0.6634389937307685,-0.2184054350376129
1761340640476457000,5.98445703125,-6.523420356246828,0.4481428132874891,3.6690310420811176
1761340640486524000,5.99452392578125,-4.91311632617414,1.1223796433538198,5.287493244168162
1761340640496592000,6.004591796875,-5.660958892536163,3.2240850886061785,5.329886278739571
1761340640506658800,6.014658935546875,-6.119273738411069,5.106953137144446,5.602125595295429
1761340640516725800,6.024725830078125,-5.286860791483521,5.87335135089457,6.276996448948979
1761340640526792700,6.034792724609375,-3.3453193124413487,6.343515039995312,6.64751435342729
1761340640536861000,6.04486083984375,-0.8648813843339681,6.291669701945781,6.160036541432142
1761340640546927900,6.054927978515625,1.6419371856987475,5.4685337019294495,4.834756198425591
1761340640556994800,6.064994873046875,4.123486874440312,3.450544358500838,2.678424259972572
1761340640567062000,6.07506201171875,6.412537722817063,0.4257217591755092,-0.6651142334666102
1761340640577130000,6.0851298828125,8.471795480701326,-0.705408249932155,-4.103181460775435
1761340640587197200,6.095197265625,10.734365733909605,0.42424434356670826,-5.910248710659146
1761340640597264400,6.105264404296875,13.022567856502532,1.5255127002328632,-5.599183112102747
1761340640607331300,6.115331298828125,15.244084214788675,2.2755752807319163,-3.876800516813993
1761340640617399300,6.1253994140625,16.947354113328455,2.8479394073739646,-1.6229355481088161
1761340640627466200,6.13546630859375,18.076314888638258,3.1827211048215625,0.12269516323320567
1761340640637533200,6.145533203125,18.841831643378733,3.6299566305384037,0.29550624690745025
1761340640647600000,6.15560009765625,19.27761375492811,4.147304972401261,-0.23192988332547246
1761340640657668000,6.165668212890625,18.655304863160847,3.6526246816813943,-0.23582732915543017
1761340640667735000,6.175735107421875,17.50703499174714,2.6747499553740024,-0.2626543996740132
1761340640677802000,6.185802001953125,16.046661995422838,2.2270658091068265,0.18018033380061388
1761340640687869200,6.195869140625,14.066436273199319,2.1607453709810973,0.41877946575693786
1761340640697937200,6.205937255859375,11.951862870806455,1.7656969824887812,0.31184542382247743
1761340640708004400,6.21600439453125,9.971817181324958,1.277849898789823,0.21605105393119156
1761340640718071300,6.2260712890625,8.252460071337223,0.6174243345960975,-0.10150281066596507
1761340640728139300,6.23613916015625,6.91044340532422,-0.25900698308236897,-0.421050260233134
1761340640738206200,6.246206298828125,5.66085192503035,-1.1571981510177254,-0.6208353120833635
1761340640748273200,6.256273193359375,3.6324855644941327,-2.000271023647487,-1.054566044060886
1761340640758340000,6.266340087890625,1.8430203145354984,-2.7187100931316612,-1.8006136898301541
1761340640768408300,6.276408203125,0.9573036474436522,-3.33725992462635,-2.6784265980601307
1761340640778475300,6.286475341796875,0.9526409163296222,-4.285032942658662,-3.502878356850147
1761340640788542200,6.296542236328125,1.7431693627297877,-5.130237566620111,-3.801816295239329
1761340640798609200,6.306609130859375,3.1615701802432534,-5.378329699391126,-3.521754614494741
1761340640808677000,6.316677001953125,4.6149441114604475,-5.219734882193803,-2.621730312848091
1761340640818744000,6.326744140625,5.894715625962615,-4.718891977190971,-1.6644732810251415
1761340640828811300,6.336811279296875,6.810629862919449,-4.243887862321734,-1.419124163351953
1761340640838878200,6.346878173828125,7.515424145671725,-3.89672452994585,-1.1502976509142666
1761340640848946200,6.3569462890625,7.604100792512297,-3.6305841147869824,0.03259283097106963
1761340640859013000,6.36701318359375,5.832897175431251,-4.249010027641058,0.8246816220231353
1761340640869080300,6.377080322265625,1.6368547678679226,-4.509506591694056,1.250283992602676
1761340640879147300,6.387147216796875,-3.996960097154975,-3.7969057268440722,0.9623648763559758
1761340640889215200,6.39721533203125,-8.654044729730487,-2.099736337136477,0.7453162627547979
1761340640899282200,6.4072822265625,-10.911882693719864,-0.13131510754041373,0.8724233241461217
1761340640909349000,6.41734912109375,-10.997339793992042,1.9601566015325484,1.4848082032702863
1761340640919416000,6.427416015625,-8.389068097653984,2.2324466253623365,2.3612742269359526
1761340640929484000,6.437484130859375,-6.280497150546312,-0.2654955779166892,2.434545360982418
1761340640939551200,6.44755126953125,-6.197988963207602,-1.5293122386462985,1.8149879598803818
1761340640949618200,6.4576181640625,-6.8428294202566144,-0.783738932390511,0.36750451147388663
1761340640959686400,6.467686279296875,-8.467581662398576,0.8838605178311467,-0.6561500057663768
1761340640969753300,6.47775341796875,-9.483149282762408,3.148501439833641,-1.0854024232860653
1761340640979820300,6.4878203125,-8.544623401024937,4.754151506620645,-1.6044284160375595
1761340640989887200,6.49788720703125,-7.5769538423895835,5.764017115950584,-2.369810730743408
1761340640999955200,6.507955078125,-7.1399793061852455,6.086739834553003,-2.935057134334743
1761340641010022100,6.518022216796875,-6.49687897080183,5.222736986619234,-3.2267958088696003
1761340641020089000,6.528089111328125,-5.916946746993064,4.295365536102652,-2.971385169778764
1761340641030156000,6.538156005859375,-6.285681859707832,4.096231787768006,-2.141276992662251
1761340641040224000,6.54822412109375,-6.875377937161922,4.474896758344769,-0.505647967197001
1761340641050291200,6.558291259765625,-7.355445180639625,4.679499878001213,1.197102291382849
1761340641060358400,6.5683583984375,-8.270622335493565,4.174892067506909,1.9136811199530959
1761340641070425300,6.57842529296875,-8.27051887511909,3.2357828329235314,2.117329715363681
1761340641080493300,6.588493408203125,-7.142664015224575,2.008169375681877,1.8097965287171303
1761340641090560300,6.598560302734375,-7.8652610811710355,0.5085694076016545,-0.07752776857763528
1761340641100627200,6.608627197265625,-8.599141757676005,-0.8611923205576837,-2.880037550163269
1761340641110694100,6.618694091796875,-2.253652787259221,-1.5860861191391944,-2.688554901103675
1761340641120762000,6.62876220703125,-1.1707470761597156,-2.3259223430477083,-2.5537206064611673
1761340641130829000,6.6388291015625,0.7651502595156431,-2.428297406503558,-2.2452681130126115
1761340641140896000,6.64889599609375,3.0324931339532135,-2.235491399885714,-0.5356956071972847
1761340641150963200,6.658963134765625,2.7880028250664473,-1.4515776954501867,1.2545739448815583
1761340641161031200,6.66903125,1.8743781603515146,-1.166972014600411,1.4012950766727328
1761340641171098000,6.67909814453125,-0.2437584874808788,-1.1447389208085834,0.9361188205957413
1761340641181165300,6.689165283203125,-2.284723632827401,-0.40733993398435414,0.7222878538668155
1761340641191232300,6.699232177734375,-2.4367934321701523,-0.32092290263883766,0.41661052422001954
1761340641201300200,6.70930029296875,-2.6596184372156855,-0.7511859585057944,0.43233606274873015
1761340641211367200,6.7193671875,-2.194775066354871,-0.6858952287539839,0.5485087654106319
1761340641221434000,6.72943408203125,-0.04040098397135734,-1.0861646398302167,0.7424130886591971
1761340641231502300,6.73950244140625,1.613114411318302,-1.9282244629599152,0.35683819256350396
1761340641241569300,6.7495693359375,3.064641253364086,-2.096520736090839,-0.5362403815984725
1761340641251636200,6.75963623046875,4.615363213655352,-1.9424825592845678,-1.4751552626535296
1761340641261703200,6.769703125,5.729059199815988,-3.0393814321622252,-1.2237402690701187
1761340641271770000,6.77977001953125,5.618100578540563,-3.060499038992822,0.04840367316305637
1761340641281838000,6.789838134765625,4.94972610116899,-1.9406250948496162,0.9321325274385511
1761340641291905300,6.7999052734375,4.499630217584968,-0.8381193418756127,0.9328511971019208
1761340641301972200,6.80997216796875,4.183903056958317,-0.86752152357921,0.925618323238939
1761340641312040200,6.820040283203125,3.9595255617737766,-1.0856572017647326,0.997101112563908
1761340641322107100,6.830107177734375,3.744529058396816,-0.8799715475685894,1.054295410425961
1761340641332174300,6.84017431640625,3.1688942395210264,-0.6418763465464115,1.23319797937572
1761340641342241300,6.8502412109375,2.4281845937788487,-0.56093548158966,1.2412021298721432
1761340641352309200,6.860309326171875,2.057584856235981,-0.7981861946117133,0.7892248895209282
1761340641362376200,6.870376220703125,1.9919459706336258,-0.8403287615533918,0.49182190561406314
1761340641372443100,6.880443115234375,2.0908885754227637,-0.6722618401989341,0.20488025609739124
1761340641382510000,6.890510009765625,2.572826288947463,-0.4357376878857612,-0.08488580319024622
1761340641392578000,6.900578125,3.0999674182891845,-0.24369769720435142,-0.015865823782235382
1761340641402645000,6.91064501953125,3.396634489136934,-0.14862306555551477,0.2692687763124704
1761340641412712200,6.920712158203125,3.1238726100116967,-0.0017369889935944227,0.2555636376954615
1761340641422779100,6.930779052734375,2.199854561576247,0.16721582095045595,-0.055707420305162667
1761340641432847400,6.940847412109375,0.9971166023939847,0.36926870813481505,-0.2794211908839643
1761340641442914300,6.950914306640625,-0.21718612237572668,0.48754989085067063,-0.35639249462261796
1761340641452981200,6.960981201171875,-1.5349106431752442,0.7507127149708569,-0.5892579782977699
1761340641463048200,6.971048095703125,-2.8078660479217765,1.1881071570876984,-1.0546472926035524
1761340641473116200,6.9811162109375,-3.6730467074632642,1.5758533328078685,-1.1437119158484041
1761340641483183000,6.99118310546875,-3.730912620976567,1.5991948992982505,-0.7659682979002594
1761340641493250000,7.00125,-3.22619959654212,1.401703072951734,-0.469545995593816
1761340641503317000,7.01131689453125,-2.679216871654987,1.196771598123759,-0.432085448988527
1761340641513385200,7.02138525390625,-2.194656408411264,0.872982784659788,-0.4887948859430849
1761340641523452200,7.0314521484375,-1.7746160558730364,0.5748108987396583,-0.47699996486157176
1761340641533519400,7.041519287109375,-1.3619547076702117,0.25384185540415344,-0.6179673554316163
1761340641543586300,7.05158642578125,-0.8093097192376851,-0.04053326858151704,-0.6886001037985086
1761340641553654300,7.061654296875,-0.21734745041728018,-0.2523871996164322,-0.47872547347992656
1761340641563721200,7.07172119140625,0.1531546719700098,-0.3946726139824837,-0.027654607383906838
1761340641573788200,7.0817880859375,0.11053192029595374,-0.42594318337384607,0.028167525342106817
1761340641583855000,7.091855224609375,-0.0034592005431652068,-0.49614057253077626,-0.33542774026617406
1761340641593923000,7.101923095703125,-0.055603813800215715,-0.5528268843380734,-0.491611843059957
1761340641603990000,7.111989990234375,0.221303494566679,-0.4799867255873978,-0.41066038364395496
1761340641614057000,7.122056884765625,0.765903708231449,-0.4291858550895005,-0.17242065958455205
1761340641624124200,7.132124267578125,1.2605471740722656,-0.5802784799631685,0.13423691327124834
1761340641634192000,7.14219189453125,1.542451560074091,-0.7245609864305704,0.273461113435775
1761340641644259300,7.15225927734375,1.6921078685343265,-0.8121295258987694,0.204069889562577
1761340641654326300,7.162326171875,1.7374392946451902,-1.0091774809353053,0.28555969363898037
1761340641664394200,7.172394287109375,1.774243715429306,-1.1067344035197049,0.39010932465493675
1761340641674461200,7.182461181640625,1.958534114897251,-1.0848995152652263,0.44224984625875946
1761340641684528000,7.192528076171875,2.132364495149255,-1.1224237016912548,0.5917267064988613
1761340641694595000,7.202594970703125,2.3092104238301516,-1.1106501156587154,0.6878326265573501
1761340641704663000,7.2126630859375,2.3668413595438,-1.223228227894753,0.390410937950015
1761340641714730000,7.22272998046875,2.1320587902009485,-1.242630701370537,-0.16113573385179042
1761340641724797000,7.232796875,1.9709844311475753,-1.3780186843730509,-0.5733974152125418
1761340641734864000,7.24286376953125,1.6633090595513582,-1.4220027875281869,-0.5002843943372368
1761340641744932000,7.25293212890625,1.1665993088304996,-1.1763022260688245,-0.22092326307743787
1761340641754999000,7.2629990234375,0.6635246992528439,-0.9466530740916729,-0.0005303074844181537
1761340641765066200,7.273066162109375,-0.04189209931194782,-0.8269570196092129,-0.09595219080150127
1761340641775133200,7.28313330078125,-0.9967764106541871,-0.7276516459222883,-0.33039296096935866
1761340641785201200,7.293201171875,-2.1874223655045033,-0.5222029788197949,-0.6793588127225637
1761340641795268000,7.30326806640625,-2.896893407896161,-0.2875917474558577,-0.9299690657943487
1761340641805335000,7.3133349609375,-2.847590155544877,-0.23471940444614736,-0.7463033740960061
1761340641815402000,7.323402099609375,-2.251875256192684,-0.13204722120724618,-0.42410541002005336
1761340641825470200,7.33347021484375,-1.4971090280473232,-0.09608831133656204,-0.1780142418079078
1761340641835537200,7.343537109375,-0.7060048275858164,-0.07094228924009949,-0.06316906142272055
1761340641845604000,7.35360400390625,0.2185924820423126,0.026502478206716477,0.23034444076493382
1761340641855671000,7.363671142578125,1.0853910981744528,0.1233086737553589,0.48424299479238686
1761340641865739000,7.373739013671875,1.9103402850925921,0.1533251879650168,0.42090602945685385
1761340641875806200,7.38380615234375,2.6582968332231043,0.04618035282408818,0.3864339971430599
1761340641885873200,7.393873046875,3.0994068617969748,0.08741522120316512,0.4699111756443977
1761340641895940000,7.403940185546875,2.8673247835844755,0.17516780286822467,0.537088230599463
1761340641906008000,7.414008056640625,1.7237006921499967,0.1806450287029147,0.0861481512762606
1761340641916075000,7.424074951171875,0.39659401049911974,0.2694550013332628,-0.2964943446293473
1761340641926142200,7.43414208984375,-0.5643208131790161,0.22690604554777963,-0.40010209168530997
1761340641936209200,7.444209228515625,-1.3710972145467997,0.3690955435249954,-0.24080131817571818
1761340641946277000,7.454277099609375,-2.074789089015126,0.599647489560768,0.015287731633335352
1761340641956344000,7.464343994140625,-2.7827240078806876,0.5560135515501723,0.08896766567640006
1761340641966411000,7.474410888671875,-3.7194571609824894,0.45608982676919546,-0.30813984730280936
1761340641976478200,7.484478271484375,-4.615910910665988,0.5139224590674042,-0.9114145874500275
1761340641986546000,7.4945458984375,-4.782179915753007,0.583478554646112,-1.153874778748676
1761340641996613000,7.504613037109375,-4.098707237970829,0.46115569532401857,-0.9293274068899452
1761340642006680000,7.51468017578125,-2.7576877663016317,0.41549551218282427,-0.5049095699198544
1761340642016747000,7.5247470703125,-1.4367664952874182,0.27426954374182966,-0.1479006238993257
1761340642026815200,7.534815185546875,-0.5363385812759399,0.18237309460453688,0.17994513680525123
1761340642036882200,7.544882080078125,-0.08470306703448295,0.2570664800064638,0.39856151117980476
1761340642046949000,7.55494921875,0.048119011002779,0.3133343472059816,0.37753443217687305
1761340642057016000,7.56501611328125,0.03748129713237285,0.3176613070270046,0.4669589747752994
1761340642067084000,7.575083984375,0.05634849468767643,0.39984818998947735,0.5428604573253542
1761340642077151000,7.58515087890625,0.35836803247928617,0.5303860660796985,0.6669657796174288
1761340642087218000,7.595218017578125,0.8383727321147918,0.6084834877714514,0.8111739787396043
1761340642097285000,7.60528515625,1.3311264386862516,0.5300147850818931,0.9127625679928809
1761340642107353000,7.61535302734375,1.763109157952666,0.48640784467607734,1.2573556845545768
1761340642117420300,7.625420166015625,1.990360162746906,0.4981311618261039,1.5064227998375892
1761340642127487200,7.6354873046875,2.0848107168138026,0.6050631579339504,1.3430682208925484
1761340642137554200,7.64555419921875,1.8840899915486573,0.5020998462613672,1.1462108930572867
1761340642147622100,7.6556220703125,1.4187930317014454,0.40497108596116305,1.0406201554905623
1761340642157689000,7.665689208984375,0.8195721700549126,0.5875785738434642,0.7623928505662828
1761340642167756000,7.675756103515625,0.3371867127627134,0.7550450450867414,0.5606568838439882
1761340642177823000,7.685822998046875,0.14815876337885855,0.4523399361837655,0.13999796101599932
1761340642187891000,7.695890869140625,0.04535889863967895,0.6336762350864708,0.17279928363859653
1761340642197958000,7.7059580078125,0.08334814529418945,0.8403890403732657,0.1722097202476114
1761340642208025300,7.716025390625,0.20077391675710676,0.8493554600305855,0.23209727578163145
1761340642218092300,7.72609228515625,0.31749475482106204,0.8144789385691285,0.43181225807033474
1761340642228160300,7.73616015625,0.32462475283145903,0.8463029405921697,0.3809694481268525
1761340642238227200,7.746227294921875,0.1812485475540161,0.9212976835608482,0.25390651813820003
1761340642248294100,7.756294189453125,-0.054105684196949,0.9879946999140083,0.2758778191886842
1761340642258362000,7.766362060546875,-0.30165830326378346,0.9868046864118426,0.3394480087582022
1761340642268429000,7.776428955078125,-0.7050006189793347,1.027169941482693,0.30428872483260927
1761340642278496000,7.78649609375,-1.1350567540973424,1.1477066845729946,0.034525443001464005
1761340642288563000,7.79656298828125,-1.3570330333590506,1.2924590005092322,-0.19880232442319393
1761340642298631200,7.806631103515625,-1.3181769407421349,1.2846601633265613,-0.08706658129543066
1761340642308698000,7.816697998046875,-1.0084300235688686,1.2651361092977225,0.02183466905876994
1761340642318765000,7.82676513671875,-0.48431379500627514,1.2096397013947366,0.007054960012808442
1761340642328832300,7.836832275390625,-0.08991349515914916,1.006312300762534,-0.1086042401690036
1761340642338899200,7.846899169921875,0.19260989952385424,0.8758750720351934,-0.136357120295614
1761340642348967200,7.85696728515625,0.30050387253165245,0.8242927688360214,-0.14897643643729389
1761340642359034000,7.8670341796875,0.24153087455928324,0.7803666794784366,-0.23766813471652565
1761340642369101000,7.87710107421875,0.179484460490942,0.8492553606569766,-0.1633289330471307
1761340642379168000,7.88716796875,0.2102571998953819,0.8326382801160216,0.09028079410158098
1761340642389236200,7.897236328125,0.2917775452405214,0.6904501155793666,0.17775237600132823
1761340642399303200,7.90730322265625,0.46985681510865684,0.4713104479830712,0.1831001667700708
1761340642409370000,7.9173701171875,0.5295791701436042,0.2273603469202295,0.19609964133575558
1761340642419437000,7.92743701171875,0.6086164665013551,0.05696761296670884,0.13974705499485135
1761340642429505000,7.937505126953125,0.6171522396564483,-0.09608239305242895,0.19337562319934368
1761340642439572000,7.947572021484375,0.5158820687025785,-0.04622176254671067,0.26409853406772016
1761340642449639200,7.95763916015625,0.3824620247721672,0.06662227061651646,0.3081680504839867
1761340642459706000,7.9677060546875,0.18557751666903494,0.06757051125206052,0.4742268468864262
1761340642469774000,7.977774169921875,0.09656593878567218,0.1533113238364458,0.5693206672929227
1761340642479841000,7.987841064453125,-0.01729132654070854,0.18237134103886782,0.47642494145259257
1761340642489908200,7.997908203125,-0.292615749630332,0.29078144687525925,0.3796626033119857
1761340642499976200,8.00797607421875,-0.6586281593829393,0.4713525335591286,0.4671450719319284
1761340642510043100,8.018043212890625,-0.6183429107457399,0.14378237492553889,-0.1348846365902573
1761340642520110000,8.028110107421876,-0.6185977622896432,0.14341244563460348,-0.13149302139058708
1761340642530177000,8.038177001953125,-0.3873270004600286,-0.02666311212852597,-0.37222945763655
1761340642540244200,8.048244140625,-0.2916904514789581,0.41319304392673073,0.21564013504274188
1761340642550311200,8.058311279296875,-0.12030045011639594,0.5058689895365387,0.3502714544590562
1761340642560379100,8.068379150390625,-0.028018472260236738,0.45403278464153407,0.2507707043305039
1761340642570446000,8.078446044921876,0.0796510443419218,0.48089594938680524,-0.0315124518558383
1761340642580513000,8.088512939453125,0.14142273312211037,0.40680049334540963,-0.50729799942635
1761340642590580000,8.098580078125,0.13095394607782362,0.5796045992895961,-0.44470980663150544
1761340642600648000,8.10864794921875,0.13334990130364893,0.6929540612243116,-0.1625187126427889
1761340642610715000,8.11871484375,0.020609072786569593,0.6603595862854271,-0.11332359684109687
1761340642620781800,8.12878173828125,-0.10527531494200229,0.6353749287631363,-0.2623299900252372
1761340642630848800,8.138848876953125,-0.16586510046124459,0.5704900033332407,-0.2328084197256714
1761340642640917000,8.1489169921875,-0.10841361296772956,0.5479523005716502,-0.1246788113310933
1761340642650984000,8.15898388671875,-0.09469429969489573,0.3623242958243936,-0.09096336953826248
1761340642661051100,8.169051025390624,-0.2558534144222736,0.29711437622383235,-0.2512550537813455
1761340642671118000,8.1791181640625,-0.27339257824420926,0.6329006476040929,-0.3688415687639266
1761340642681186000,8.18918603515625,-0.028693010520935057,0.3455801548376679,-0.43623884234093124
1761340642691253000,8.1992529296875,0.06900164003372192,0.21116540078148244,-0.44725956417955454
1761340642701320000,8.20931982421875,0.06033025780022144,0.10931947576627135,-0.09863236979618668
1761340642711387000,8.219386962890624,-0.18107786716222762,0.07848528849817812,-0.07139591475911439
