time,seconds_elapsed,z,y,x
1761340634566963000,0.074962890625,0.43923917412757874,-0.014057384803891182,0.0698404312133789
1761340634577030000,0.08502978515625,0.41743558645248413,0.02152244746685028,0.15227246284484863
1761340634587098000,0.09509814453125,0.3648989200592041,0.05381251126527786,0.22471176087856293
1761340634597165000,0.1051650390625,0.3171902596950531,0.07113344222307205,0.28330928087234497
1761340634607232000,0.11523193359375,0.2620536983013153,0.02630518563091755,0.31602877378463745
1761340634617300000,0.125300048828125,0.17670896649360657,-0.06032957136631012,0.34027260541915894
1761340634627367000,0.135366943359375,0.06979521363973618,-0.08750268816947937,0.40077322721481323
1761340634637434000,0.14543408203125,-0.04504508897662163,-0.09579949826002121,0.4824334681034088
1761340634647501000,0.1555009765625,-0.17949742078781128,-0.17489802837371826,0.5359803438186646
1761340634657569300,0.1655693359375,-0.3152640461921692,-0.2960872948169708,0.5093894600868225
1761340634667636200,0.17563623046875,-0.42329734563827515,-0.4589364528656006,0.4020398259162903
1761340634677703200,0.185703125,-0.5057437419891357,-0.5345937013626099,0.32271862030029297
1761340634687771100,0.195771240234375,-0.5835914611816406,-0.4077337980270386,0.3504706919193268
1761340634697838000,0.205838134765625,-0.628618061542511,-0.1925240159034729,0.45462584495544434
1761340634707905000,0.215905029296875,-0.6074798703193665,-0.016714204102754593,0.5647027492523193
1761340634717973000,0.225972900390625,-0.5609488487243652,0.04056958854198456,0.627945065498352
1761340634728040000,0.2360400390625,-0.4610077738761902,0.001659066416323185,0.573106586933136
1761340634738107000,0.24610693359375,-0.3859391212463379,-0.13108912110328674,0.38253477215766907
1761340634748174000,0.256174072265625,-0.40244701504707336,-0.10696277767419815,0.12275408953428268
1761340634758242000,0.266241943359375,-0.4593055248260498,0.07475721836090088,-0.13012182712554932
1761340634768309000,0.27630908203125,-0.4404096305370331,0.21342553198337555,-0.2865188717842102
1761340634778376200,0.286376220703125,-0.3393557369709015,0.2660943269729614,-0.31860142946243286
1761340634788444200,0.296444091796875,-0.18396210670471191,0.3497466444969177,-0.1749633252620697
1761340634798511000,0.306510986328125,-0.00513963308185339,0.5707011222839355,0.1341652274131775
1761340634808578000,0.316578125,0.18657757341861725,0.622519314289093,0.4540204703807831
1761340634818646000,0.32664599609375,0.339633971452713,0.529123067855835,0.6950078010559082
1761340634828713200,0.336713134765625,0.39945054054260254,0.4504443407058716,0.8597944378852844
1761340634838780200,0.3467802734375,0.36571016907691956,0.41785281896591187,0.9984601736068726
1761340634848847000,0.35684716796875,0.24877066910266876,0.38288676738739014,1.1442337036132812
1761340634858915000,0.3669150390625,0.06908026337623596,0.26002052426338196,1.256486177444458
1761340634868982000,0.37698193359375,-0.1703392118215561,0.03876591846346855,1.2984331846237183
1761340634879049000,0.387049072265625,-0.4356718063354492,-0.2778988480567932,1.2213010787963867
1761340634889117000,0.397116943359375,-0.708285391330719,-0.5595501661300659,1.0660603046417236
1761340634899183900,0.407183837890625,-0.9337089657783508,-0.5634207725524902,0.9448049664497375
1761340634909251000,0.4172509765625,-1.031232476234436,-0.2297210395336151,0.9004442095756531
1761340634919319000,0.427319091796875,-0.962038516998291,0.2921658754348755,0.8663392066955566
1761340634929386200,0.43738623046875,-0.7564177513122559,0.8624714016914368,0.7531026005744934
1761340634939453200,0.447453125,-0.4548957049846649,1.341773509979248,0.4820849597454071
1761340634949520100,0.45752001953125,-0.08703571557998657,1.7193466424942017,0.044859983026981354
1761340634959588000,0.467588134765625,0.31276920437812805,1.8887676000595093,-0.4617118835449219
1761340634969655000,0.477655029296875,0.6055499315261841,1.6687339544296265,-0.9034178256988525
1761340634979722000,0.487721923828125,0.5715863704681396,1.0799564123153687,-1.221299171447754
1761340634989790000,0.4977900390625,0.29149433970451355,0.45657262206077576,-1.3633337020874023
1761340634999857000,0.50785693359375,-0.00392959313467145,-0.17464235424995422,-1.3447463512420654
1761340635009924000,0.517924072265625,-0.09945657104253769,-0.9916177988052368,-1.3866816759109497
1761340635019992000,0.527991943359375,0.03906616196036339,-1.6701196432113647,-1.5143568515777588
1761340635030059000,0.53805908203125,0.34376659989356995,-2.0401742458343506,-1.6589865684509277
1761340635040126200,0.548126220703125,0.7415463924407959,-2.060168981552124,-1.8186774253845215
1761340635050193200,0.558193115234375,1.243033766746521,-1.8755109310150146,-1.8210344314575195
1761340635060261000,0.56826123046875,1.7809443473815918,-1.455142617225647,-1.577955961227417
1761340635070328000,0.578328125,2.247800350189209,-0.9788603186607361,-1.1803622245788574
1761340635080395000,0.58839501953125,2.5905239582061768,-0.4383406341075897,-0.6955320835113525
1761340635090463200,0.598463134765625,2.649352550506592,0.03654705360531807,-0.20628835260868073
1761340635100530200,0.6085302734375,2.0986878871917725,0.40484383702278137,0.2607280910015106
1761340635110597000,0.61859716796875,0.6677888631820679,0.3938874304294586,0.5870029926300049
1761340635120665000,0.6286650390625,-0.6674481630325317,-0.2662105858325958,0.6283344626426697
1761340635130732000,0.63873193359375,-0.8236347436904907,-0.714767575263977,0.7529832124710083
1761340635140799000,0.648799072265625,-0.3071804940700531,-0.9594305753707886,0.860517144203186
1761340635150867000,0.658866943359375,0.34143543243408203,-1.1154192686080933,0.8556832075119019
1761340635160934000,0.668933837890625,0.8767872452735901,-0.6451329588890076,0.6740793585777283
1761340635171000800,0.679000732421875,1.2173683643341064,0.2771947681903839,0.448417991399765
1761340635181068000,0.689068115234375,1.3621628284454346,0.646933376789093,0.45688337087631226
1761340635191136000,0.699135986328125,1.3890432119369507,0.7575231194496155,0.45871439576148987
1761340635201203200,0.709203125,1.1478660106658936,0.3912510871887207,0.6444107890129089
1761340635211270100,0.719270263671875,0.9888901114463806,-0.10611820220947266,0.7788326740264893
1761340635221338000,0.729338134765625,0.9320430755615234,-0.4141705632209778,0.7984974980354309
1761340635231405000,0.739405029296875,0.850632905960083,-0.6641429662704468,0.6642319560050964
1761340635241472000,0.749471923828125,0.8230037093162537,-0.7926167845726013,0.4137049615383148
1761340635251539000,0.7595390625,0.8636584281921387,-0.8026203513145447,0.216766357421875
1761340635261607200,0.769607177734375,0.9161961674690247,-0.7337283492088318,0.19158297777175903
1761340635271674000,0.779674072265625,0.9763884544372559,-0.7587915658950806,0.3687298595905304
1761340635281741000,0.789740966796875,0.9132358431816101,-0.9357945919036865,0.6201235055923462
1761340635291809000,0.79980908203125,0.7022280097007751,-1.128961205482483,0.8359265327453613
1761340635301876000,0.8098759765625,0.3045130968093872,-1.3478519916534424,0.9452434182167053
1761340635311943200,0.819943115234375,-0.28405219316482544,-1.6780941486358643,0.9973655343055725
1761340635322011000,0.830010986328125,-0.9359620809555054,-1.9109623432159424,0.7923183441162109
1761340635332078000,0.840078125,-1.5054643154144287,-1.641903281211853,0.15830588340759277
1761340635342145000,0.85014501953125,-1.9011605978012085,-0.8131076097488403,-0.9081881642341614
1761340635352212000,0.8602119140625,-2.2087948322296143,0.1737966239452362,-2.173375129699707
1761340635362280200,0.8702802734375,-2.4585351943969727,0.9377073645591736,-3.259091854095459
1761340635372347100,0.88034716796875,-2.4458136558532715,1.2066577672958374,-3.7644078731536865
1761340635382414000,0.8904140625,-2.3059608936309814,0.7713193893432617,-3.466846227645874
1761340635392482000,0.90048193359375,-2.267892360687256,-0.01157210674136877,-2.4266884326934814
1761340635402549000,0.910549072265625,-2.2620022296905518,-0.911218523979187,-1.181320071220398
1761340635412616000,0.920615966796875,-2.2667274475097656,-1.5035748481750488,-0.3203365206718445
1761340635422684000,0.930683837890625,-2.1991961002349854,-1.2975423336029053,0.13061681389808655
1761340635432751000,0.940751220703125,-1.916192889213562,-0.5361335873603821,0.2577230930328369
1761340635442818000,0.950818115234375,-1.5481493473052979,0.20998267829418182,0.2259095013141632
1761340635452885200,0.96088525390625,-1.2727718353271484,0.7843530178070068,0.18143810331821442
1761340635462953200,0.970953125,-1.0636146068572998,1.0610010623931885,0.2332746684551239
1761340635473020200,0.981020263671875,-0.9133840203285217,0.6999686360359192,0.369019478559494
1761340635483087000,0.991087158203125,-0.7993173599243164,0.5826990008354187,0.3654196858406067
1761340635493155000,1.001155029296875,-0.5425424575805664,0.9638454914093018,0.3003174364566803
1761340635503222000,1.011221923828125,-0.24564926326274872,1.4020142555236816,0.3424651622772217
1761340635513289000,1.0212890625,-0.012986654415726662,1.5192279815673828,0.547305703163147
1761340635523357200,1.031357177734375,0.21939413249492645,1.3560973405838013,0.8608953356742859
1761340635533424000,1.041424072265625,0.4286983013153076,1.0715954303741455,1.2137624025344849
1761340635543491000,1.051490966796875,0.567922830581665,0.6836910843849182,1.4885090589523315
1761340635553558000,1.06155810546875,0.6237596869468689,0.3810846209526062,1.657065510749817
1761340635563626000,1.0716259765625,0.6144002676010132,0.23149514198303223,1.7291737794876099
1761340635573692700,1.081692626953125,0.5717865228652954,0.19747935235500336,1.6567951440811157
1761340635583760000,1.091759765625,0.5087364315986633,0.24094852805137634,1.43471360206604
1761340635593827800,1.101827880859375,0.4633333086967468,0.38057515025138855,1.0668385028839111
1761340635603894800,1.111894775390625,0.43470776081085205,0.5315423011779785,0.5688337683677673
1761340635613961700,1.121961669921875,0.41591233015060425,0.7255672216415405,0.00013521220535039902
1761340635624029700,1.13202978515625,0.38689345121383667,0.8303537964820862,-0.5694862008094788
1761340635634096600,1.1420966796875,0.3559494912624359,0.8369418382644653,-1.035103440284729
1761340635644163800,1.152163818359375,0.32991495728492737,0.8888324499130249,-1.369087815284729
1761340635654230800,1.162230712890625,0.3527670204639435,0.9193264245986938,-1.5726035833358765
1761340635664298800,1.172298828125,0.41505008935928345,0.9382846355438232,-1.6451280117034912
1761340635674365700,1.18236572265625,0.5118448138237,0.9647580981254578,-1.6081703901290894
1761340635684432600,1.1924326171875,0.6017355918884277,0.9586051106452942,-1.4613125324249268
1761340635694500600,1.20250048828125,0.7225960493087769,0.9315912127494812,-1.132952332496643
1761340635704567600,1.212567626953125,0.8358906507492065,0.8851414322853088,-0.6102902889251709
1761340635714634800,1.222634765625,0.9048709869384766,0.8326589465141296,0.04006495326757431
1761340635724701700,1.23270166015625,0.8660938143730164,0.6855635046958923,0.5815228819847107
1761340635734770000,1.24277001953125,0.7458826899528503,0.6245747804641724,1.0824120044708252
1761340635744836900,1.2528369140625,0.5216938257217407,0.7437624335289001,1.4805653095245361
1761340635754903800,1.26290380859375,0.33279988169670105,0.9450847506523132,1.726044774055481
1761340635764971800,1.2729716796875,0.19250085949897766,1.4046859741210938,1.728137731552124
1761340635775038700,1.283038818359375,0.12937189638614655,2.23271107673645,1.4521856307983398
1761340635785105700,1.293105712890625,0.1667190045118332,3.2793312072753906,0.9235684871673584
1761340635795173600,1.303173583984375,0.14636321365833282,4.377645492553711,0.21765580773353577
1761340635805240600,1.313240478515625,0.009704175405204296,5.2639946937561035,-0.7564941644668579
1761340635815307500,1.3233076171875,-0.40209531784057617,5.467101097106934,-1.9800925254821777
1761340635825374700,1.333374755859375,-1.0217857360839844,4.214407444000244,-3.475046157836914
1761340635835442700,1.343442626953125,-1.5043461322784424,1.701511025428772,-5.044058322906494
1761340635845510000,1.353510009765625,-1.2729970216751099,-1.4250781536102295,-5.8216938972473145
1761340635855576800,1.363576904296875,-0.452511727809906,-3.769773244857788,-5.312019348144531
1761340635865644800,1.373644775390625,0.5245082974433899,-5.171348571777344,-3.3481128215789795
1761340635875711700,1.383711669921875,1.3817018270492554,-5.093576908111572,-0.36515185236930847
1761340635885778700,1.39377880859375,2.182081937789917,-3.7854952812194824,2.0993125438690186
1761340635895845600,1.403845703125,2.611757755279541,-2.2970287799835205,2.892530918121338
1761340635905913900,1.413913818359375,2.3750336170196533,-1.103110671043396,2.381969451904297
1761340635915980800,1.423980712890625,1.2169137001037598,-0.8649832606315613,1.4666401147842407
1761340635926047700,1.4340478515625,-0.5790795087814331,-1.4689292907714844,0.7834281921386719
1761340635936115700,1.44411572265625,-1.9908912181854248,-1.629268765449524,0.7429956197738647
1761340635946182700,1.4541826171875,-2.7878262996673584,-1.2002742290496826,0.9473119974136353
1761340635956249600,1.46424951171875,-2.7587954998016357,-1.1146353483200073,0.7147883772850037
1761340635966317600,1.474317626953125,-2.423478603363037,-0.7917404770851135,0.07518256455659866
1761340635976384500,1.484384521484375,-2.2664883136749268,-0.4732140004634857,-0.4009679853916168
1761340635986451700,1.49445166015625,-1.8121505975723267,-0.8026087284088135,-0.48483729362487793
1761340635996518700,1.5045185546875,-1.3526275157928467,-1.0324984788894653,-0.19006091356277466
1761340636006587000,1.5145869140625,-1.2093443870544434,-0.8832365274429321,0.2500850558280945
1761340636016653800,1.52465380859375,-1.1853936910629272,-0.5773717761039734,0.6866886019706726
1761340636026720800,1.534720703125,-1.2047221660614014,-0.20189562439918518,1.0437543392181396
1761340636036788700,1.544788818359375,-1.1792638301849365,0.19549764692783356,1.2298612594604492
1761340636046855700,1.554855712890625,-1.1259769201278687,0.6163524389266968,1.2352690696716309
1761340636056922600,1.564922607421875,-0.9874980449676514,1.0546832084655762,1.1926976442337036
1761340636066989600,1.574989501953125,-0.6004517674446106,1.260309100151062,1.1830207109451294
1761340636077057800,1.585057861328125,-0.0291614830493927,1.1294276714324951,1.2207722663879395
1761340636087124700,1.595124755859375,0.6159378886222839,0.7563233971595764,1.2684944868087769
1761340636097192000,1.60519189453125,1.239634394645691,0.3689870238304138,1.239104986190796
1761340636107259600,1.615259765625,1.708102822303772,0.05645973980426788,1.1499195098876953
1761340636117326800,1.625326904296875,1.979117512702942,-0.23037558794021606,1.0317031145095825
1761340636127393800,1.635393798828125,2.052171230316162,-0.5526316165924072,0.8609307408332825
1761340636137460700,1.645460693359375,1.974574089050293,-0.7913614511489868,0.6016015410423279
1761340636147528700,1.65552880859375,1.7809947729110718,-0.9570428133010864,0.2298319786787033
1761340636157595600,1.665595703125,1.5191420316696167,-1.0094085931777954,-0.24547672271728516
1761340636167662600,1.67566259765625,1.265751838684082,-0.9304360151290894,-0.7580462694168091
1761340636177730800,1.685730712890625,1.0687474012374878,-0.7835989594459534,-1.2562075853347778
1761340636187797800,1.6957978515625,0.917649507522583,-0.6080532073974609,-1.6559778451919556
1761340636197864700,1.70586474609375,0.8035600185394287,-0.3948251008987427,-1.9349689483642578
1761340636207931600,1.715931640625,0.694456160068512,-0.10231970250606537,-2.0860493183135986
1761340636217999600,1.72599951171875,0.5775769352912903,0.17344608902931213,-2.074262857437134
1761340636228066600,1.736066650390625,0.48019498586654663,0.4039123058319092,-1.835150122642517
1761340636238133800,1.7461337890625,0.49461209774017334,0.6883907318115234,-1.196865200996399
1761340636248201700,1.75620166015625,0.48468250036239624,0.7400877475738525,-0.6345080137252808
1761340636258269000,1.76626904296875,0.49169978499412537,0.6691836714744568,-0.16762664914131165
1761340636268335900,1.7763359375,0.4988977909088135,0.6312815546989441,0.17909696698188782
1761340636278403800,1.78640380859375,0.5239766836166382,0.5648137927055359,0.41900479793548584
1761340636288470800,1.796470703125,0.513081431388855,0.43613943457603455,0.547882616519928
1761340636298537700,1.806537841796875,0.4566897749900818,0.279675155878067,0.5844976902008057
1761340636308604700,1.816604736328125,0.3604851961135864,0.11005152016878128,0.526358962059021
1761340636318672600,1.826672607421875,0.2611255645751953,0.004065400920808315,0.39201852679252625
1761340636328739600,1.836739501953125,0.14839980006217957,0.05517945438623428,0.21238644421100616
1761340636338806500,1.846806640625,0.03685731813311577,0.20566190779209137,0.06225760653614998
1761340636348873700,1.856873779296875,-0.03174198418855667,0.4248930513858795,0.0038837799802422523
1761340636358941700,1.866941650390625,-0.10836990177631378,0.6822109222412109,0.05807238444685936
1761340636369009000,1.8770087890625,-0.17501096427440643,0.86810702085495,0.118044912815094
1761340636379075800,1.887075927734375,-0.2195328027009964,0.9686590433120728,0.08685065060853958
1761340636389143800,1.897143798828125,-0.33833828568458557,1.108677625656128,-0.16449236869812012
1761340636399210800,1.907210693359375,-0.5105952024459839,1.213318943977356,-0.6932957172393799
1761340636409277700,1.917277587890625,-0.6127644777297974,1.1873624324798584,-1.4950592517852783
1761340636419345700,1.927345703125,-0.5160674452781677,0.7548858523368835,-2.391815423965454
1761340636429412900,1.937412841796875,-0.17892271280288696,-0.05446453019976616,-2.900278329849243
1761340636439479800,1.947479736328125,0.27284666895866394,-1.0465656518936157,-2.6238372325897217
1761340636449546800,1.957546630859375,0.8629941344261169,-1.9065192937850952,-1.535758376121521
1761340636459614700,1.96761474609375,1.7543994188308716,-2.4190685749053955,-0.06038409471511841
1761340636469681700,1.977681640625,2.7534117698669434,-2.3097996711730957,1.3728796243667603
1761340636479748600,1.98774853515625,3.369483709335327,-1.9049289226531982,2.560326099395752
1761340636489816600,1.997816650390625,2.821183443069458,-1.5852781534194946,3.306493043899536
1761340636499883800,2.0078837890625,0.3003275692462921,-1.83927321434021,3.644056797027588
1761340636509950700,2.01795068359375,-2.6671090126037598,-1.2888857126235962,2.7446835041046143
1761340636520017700,2.028017578125,-5.014709949493408,0.59539395570755,1.2136740684509277
1761340636530086000,2.0380859375,-5.53818941116333,2.2418787479400635,-0.3822316825389862
1761340636540152800,2.04815283203125,-4.569154262542725,3.276538133621216,-1.8989533185958862
1761340636550219800,2.0582197265625,-3.778465986251831,3.3677473068237305,-2.8840978145599365
1761340636560287700,2.068287841796875,-3.1425225734710693,2.4310595989227295,-2.782557487487793
1761340636570355200,2.078355224609375,-2.421325445175171,1.2383073568344116,-1.5489517450332642
1761340636580422100,2.088422119140625,-1.719286561012268,0.4200901389122009,0.16955547034740448
1761340636590489000,2.098489013671875,-1.0237454175949097,0.040459178388118744,1.6150269508361816
1761340636600557000,2.10855712890625,-0.3471950888633728,-0.050708942115306854,2.3454325199127197
1761340636610624000,2.1186240234375,0.2935883700847626,0.07391688227653503,2.470003366470337
1761340636620691200,2.128691162109375,0.8227121233940125,0.29437336325645447,2.184666872024536
1761340636630759200,2.13875927734375,1.1232104301452637,0.47698071599006653,1.7437806129455566
1761340636640826000,2.148826171875,1.1971728801727295,0.574432373046875,1.3144601583480835
1761340636650893300,2.158893310546875,1.0562700033187866,0.6426705121994019,1.032828450202942
1761340636660960300,2.168960205078125,0.8838915824890137,0.6685439944267273,0.8346322178840637
1761340636671028200,2.1790283203125,0.7720734477043152,0.5989295244216919,0.6288348436355591
1761340636681095200,2.18909521484375,0.6159783601760864,0.4005069136619568,0.34242498874664307
1761340636691162000,2.199162109375,0.4131528437137604,0.2482614666223526,-0.025629471987485886
1761340636701230300,2.209230224609375,0.235121950507164,0.09015850722789764,-0.45408669114112854
1761340636711297300,2.21929736328125,0.1077999472618103,-0.12121818214654922,-0.9174442291259766
1761340636721364200,2.2293642578125,0.0022519303020089865,-0.2688753008842468,-1.4331583976745605
1761340636731431200,2.23943115234375,-0.049113523215055466,-0.30726128816604614,-1.9379299879074097
1761340636741499100,2.2494990234375,-0.07246547937393188,-0.2915146052837372,-2.3910508155822754
1761340636751566000,2.259566162109375,-0.0489945113658905,-0.13421976566314697,-2.776517868041992
1761340636761633300,2.26963330078125,0.20535993576049805,0.38869768381118774,-2.7760205268859863
1761340636771701000,2.279700927734375,0.5291526913642883,0.42441731691360474,-2.7587344646453857
1761340636781768200,2.289768310546875,0.7231894731521606,0.42238983511924744,-2.5049221515655518
1761340636791835100,2.299835205078125,0.8416061401367188,0.22501124441623688,-2.157003402709961
1761340636801902300,2.30990234375,0.959316611289978,0.032454390078783035,-1.7336760759353638
1761340636811970300,2.31997021484375,1.038674235343933,-0.2075699120759964,-1.257472276687622
1761340636822037200,2.330037353515625,1.0336428880691528,-0.44245943427085876,-0.766560971736908
1761340636832104200,2.340104248046875,0.9472090005874634,-0.6415685415267944,-0.3209664523601532
1761340636842172200,2.350172119140625,0.8266740441322327,-0.7785384058952332,0.04945601522922516
1761340636852239000,2.360239013671875,0.7137975692749023,-0.7928566336631775,0.3072910010814667
1761340636862306000,2.37030615234375,0.6211116313934326,-0.6562478542327881,0.4290381669998169
1761340636872373000,2.380373046875,0.5254048109054565,-0.4197778105735779,0.3577190041542053
1761340636882441200,2.390441162109375,0.3891792297363281,-0.19932067394256592,0.21357865631580353
1761340636892508200,2.400508056640625,0.2421644628047943,-0.14926256239414215,0.14536577463150024
1761340636902575400,2.410575439453125,0.06123055890202522,-0.17823486030101776,0.23448006808757782
1761340636912643000,2.42064306640625,-0.10431179404258728,-0.1866089105606079,0.40872910618782043
1761340636922710300,2.430710205078125,-0.1536984145641327,-0.0977705866098404,0.5522977113723755
1761340636932777200,2.440777099609375,-0.031745344400405884,0.2628592550754547,0.5475610494613647
1761340636942844200,2.45084423828125,0.14785677194595337,0.7040845155715942,0.4063273072242737
1761340636952912100,2.460912109375,0.33684879541397095,0.9670698046684265,0.18229767680168152
1761340636962979000,2.47097900390625,0.497129887342453,0.8912491202354431,-0.11234980821609497
1761340636973046300,2.48104638671875,0.5515127182006836,0.47908100485801697,-0.4000604450702667
1761340636983114200,2.4911142578125,0.5310354828834534,-0.2233215570449829,-0.6599592566490173
1761340636993181200,2.50118115234375,0.4899492859840393,-1.0296374559402466,-0.8622958660125732
1761340637003248000,2.511248046875,0.46628910303115845,-1.6342347860336304,-0.9141444563865662
1761340637013315300,2.5213154296875,0.5539358854293823,-2.0007052421569824,-0.6886029839515686
1761340637023383000,2.531383056640625,0.811968982219696,-2.4661617279052734,-0.19715599715709686
1761340637033450200,2.5414501953125,1.1302294731140137,-2.971276044845581,0.36536672711372375
1761340637043517200,2.55151708984375,1.3666102886199951,-3.1849613189697266,0.7591255903244019
1761340637053585400,2.56158544921875,1.4223685264587402,-3.2084875106811523,0.8462058901786804
1761340637063652400,2.57165234375,1.2718958854675293,-3.2218477725982666,0.7184605002403259
1761340637073719300,2.58171923828125,0.9856321811676025,-3.195773124694824,0.5124940276145935
1761340637083786200,2.5917861328125,0.566753089427948,-2.9583804607391357,0.24684110283851624
1761340637093854200,2.601854248046875,0.01859333924949169,-2.5306832790374756,-0.272873193025589
1761340637103921200,2.611921142578125,-0.6342577338218689,-1.9694440364837646,-1.1360363960266113
1761340637113988000,2.621988037109375,-1.3418904542922974,-1.0623455047607422,-2.1487252712249756
1761340637124056000,2.63205615234375,-1.972498893737793,-0.08151189237833023,-2.726206064224243
1761340637134123000,2.642123046875,-2.440462350845337,0.6339218616485596,-2.6594274044036865
1761340637144190000,2.65218994140625,-2.6517326831817627,0.8158248066902161,-1.928642988204956
1761340637154257400,2.66225732421875,-2.5707366466522217,0.6140413284301758,-0.9015291333198547
1761340637164325000,2.6723251953125,-2.257985830307007,0.28960490226745605,0.10544971376657486
1761340637174392300,2.682392333984375,-1.7623589038848877,0.03616173937916756,0.8950053453445435
1761340637184459300,2.692459228515625,-1.2713299989700317,-0.04155375063419342,1.3079999685287476
1761340637194527200,2.70252734375,-0.8243448138237,0.060410160571336746,1.406516194343567
1761340637204594200,2.71259423828125,-0.38855987787246704,0.3665620684623718,1.2532904148101807
1761340637214661000,2.7226611328125,-0.03389579430222511,0.8392512798309326,0.9403505325317383
1761340637224728000,2.73272802734375,0.1763521134853363,1.3906383514404297,0.5864554643630981
1761340637234796300,2.74279638671875,0.2758174538612366,1.7922579050064087,0.29645824432373047
1761340637244863200,2.75286328125,0.2500973343849182,1.9434423446655273,0.11724328994750977
1761340637254930200,2.76293017578125,0.09021978825330734,1.7442392110824585,0.06024392694234848
1761340637264998100,2.772998046875,-0.11688303202390671,1.295212745666504,0.06741286814212799
1761340637275065000,2.783065185546875,-0.2855343520641327,0.8253046870231628,0.0268489271402359
1761340637285132300,2.79313232421875,-0.4180036783218384,0.4046032428741455,-0.17506884038448334
1761340637295199200,2.80319921875,-0.5725290775299072,0.12407946586608887,-0.5296332836151123
1761340637305267200,2.81326708984375,-0.6217840313911438,0.10045428574085236,-0.8633848428726196
1761340637315334100,2.823334228515625,-0.45791515707969666,0.15428902208805084,-1.190679907798767
1761340637325401300,2.8334013671875,-0.19234640896320343,0.3295590281486511,-1.3580338954925537
1761340637335468300,2.84346826171875,0.08628015220165253,0.4194926619529724,-1.3840827941894531
1761340637345536300,2.853536376953125,0.33698129653930664,0.43674638867378235,-1.1961911916732788
1761340637355603200,2.863603271484375,0.5549578070640564,0.3203819692134857,-0.8245059847831726
1761340637365670100,2.873670166015625,0.6934905052185059,0.08173013478517532,-0.38742494583129883
1761340637375738000,2.883738037109375,0.7552242279052734,-0.2348019927740097,0.016198178753256798
1761340637385805000,2.89380517578125,0.7625651359558105,-0.44575268030166626,0.3637806177139282
1761340637395872000,2.9038720703125,0.7008583545684814,-0.49184268712997437,0.5848732590675354
1761340637405939200,2.913939208984375,0.655225932598114,-0.43916451930999756,0.6928964853286743
1761340637416007200,2.924007080078125,0.6583498120307922,-0.29996055364608765,0.7094683051109314
1761340637426074400,2.934074462890625,0.6917357444763184,-0.08120769262313843,0.6494496464729309
1761340637436141300,2.944141357421875,0.7013950347900391,0.16332989931106567,0.5880992412567139
1761340637446209300,2.954209228515625,0.681573748588562,0.3389025330543518,0.5425286293029785
1761340637456276200,2.964276123046875,0.6324653625488281,0.4571399688720703,0.5420652031898499
1761340637466343200,2.97434326171875,0.5237255096435547,0.5473875403404236,0.6452960968017578
1761340637476410000,2.98441015625,0.37213438749313354,0.6799988746643066,0.8045470118522644
1761340637486478000,2.99447802734375,0.19125208258628845,0.8299741148948669,0.9521121978759766
1761340637496545000,3.004544921875,0.007817544043064117,1.0273462533950806,1.1068203449249268
1761340637506612200,3.0146123046875,-0.13666695356369019,1.2602969408035278,1.1765697002410889
1761340637516680200,3.02468017578125,-0.17926129698753357,1.596431851387024,1.1181881427764893
1761340637526747100,3.0347470703125,0.009252222254872322,1.9629663228988647,0.8606690168380737
1761340637536814300,3.044814453125,0.3615865707397461,2.200136423110962,0.45831388235092163
1761340637546881300,3.05488134765625,0.809120237827301,1.9051464796066284,0.022685032337903976
1761340637556949200,3.06494921875,1.1743570566177368,1.1497666835784912,-0.029988300055265427
1761340637567016000,3.075015869140625,1.454558253288269,0.3225817084312439,0.4104090631008148
1761340637577083000,3.085082763671875,1.8216784000396729,-0.4045829474925995,1.172620415687561
1761340637587151000,3.095151123046875,2.2138330936431885,-1.0303484201431274,1.8901214599609375
1761340637597218000,3.105218017578125,2.537466049194336,-1.4429572820663452,2.308783531188965
1761340637607285000,3.115284912109375,2.6850569248199463,-1.7131285667419434,2.4978525638580322
1761340637617352000,3.12535205078125,2.4275436401367188,-1.7055503129959106,2.4163520336151123
1761340637627420000,3.135419921875,1.7424734830856323,-1.3672577142715454,2.0371451377868652
1761340637637486800,3.14548681640625,0.8681773543357849,-0.8185325264930725,1.386052131652832
1761340637647554000,3.155553955078125,0.02778615802526474,-0.3121446669101715,0.6451557278633118
1761340637657621000,3.16562109375,-0.6847199201583862,0.12374768406152725,-0.02299993485212326
1761340637667689000,3.17568896484375,-1.275443434715271,0.46356043219566345,-0.49396538734436035
1761340637677756200,3.185756103515625,-1.7565155029296875,0.5503656268119812,-0.7648969888687134
1761340637687823000,3.195822998046875,-2.1472339630126953,0.3926332890987396,-0.9050016403198242
1761340637697891000,3.20589111328125,-2.390406608581543,0.20534220337867737,-0.9972428679466248
1761340637707958000,3.2159580078125,-2.4465348720550537,0.18565170466899872,-1.0699392557144165
1761340637718025000,3.22602490234375,-2.30250883102417,0.2916835844516754,-1.091599464416504
1761340637728092000,3.236091796875,-1.994956135749817,0.4900089502334595,-1.0396201610565186
1761340637738159900,3.246159912109375,-1.6105691194534302,0.6290283799171448,-0.8992952108383179
1761340637748226800,3.256226806640625,-1.195429801940918,0.6179481744766235,-0.6733126640319824
1761340637758293800,3.266293701171875,-0.7963286638259888,0.4235430359840393,-0.35543426871299744
1761340637768362000,3.276362060546875,-0.44310230016708374,0.17540854215621948,-0.012696708552539349
1761340637778429000,3.286428955078125,-0.14893591403961182,-0.05080408975481987,0.2832965850830078
1761340637788496100,3.29649609375,0.0637882724404335,-0.2814384400844574,0.4561150372028351
1761340637798563000,3.30656298828125,0.15594802796840668,-0.47963353991508484,0.4912341237068176
1761340637808631000,3.316631103515625,0.13638728857040405,-0.6563032865524292,0.35922467708587646
1761340637818698000,3.326697998046875,0.020730994641780853,-0.7533280849456787,0.07892883569002151
1761340637828765000,3.336764892578125,-0.1831560730934143,-0.6915796995162964,-0.3336048424243927
1761340637838833200,3.346833251953125,-0.4414792060852051,-0.4686734080314636,-0.8521420359611511
1761340637848900000,3.356900146484375,-0.6946935653686523,-0.19402623176574707,-1.3634876012802124
1761340637858967000,3.366967041015625,-0.8264896273612976,0.048147521913051605,-1.7528815269470215
1761340637869034000,3.377033935546875,-0.8283431529998779,0.2040838599205017,-1.9446252584457397
1761340637879102000,3.38710205078125,-0.755554735660553,0.2264842540025711,-1.9030247926712036
1761340637889169000,3.3971689453125,-0.619401216506958,0.1382368952035904,-1.6382813453674316
1761340637899235800,3.40723583984375,-0.42772364616394043,-0.031249597668647766,-1.2340548038482666
1761340637909303000,3.417302978515625,-0.19183729588985443,-0.2428126335144043,-0.7834234833717346
1761340637919371000,3.42737109375,0.06560782343149185,-0.40989163517951965,-0.37189772725105286
1761340637929438000,3.43743798828125,0.3271832764148712,-0.5480484962463379,-0.020871836692094803
1761340637939505000,3.4475048828125,0.5678136944770813,-0.6252473592758179,0.2384854257106781
1761340637949573000,3.457572998046875,0.7572864890098572,-0.6063567399978638,0.4243535101413727
1761340637959640000,3.46764013671875,0.881194531917572,-0.5130460262298584,0.5476030111312866
1761340637969707000,3.47770703125,0.9234986305236816,-0.35045406222343445,0.6017234921455383
1761340637979774000,3.48777392578125,0.8881257176399231,-0.1260417252779007,0.6194870471954346
1761340637989842000,3.497842041015625,0.8040043711662292,0.10330136120319366,0.6126614809036255
1761340637999908900,3.507908935546875,0.6789921522140503,0.2504982650279999,0.6210925579071045
1761340638009975800,3.517975830078125,0.5415250658988953,0.30547305941581726,0.6269378662109375
1761340638020044000,3.5280439453125,0.3943398594856262,0.3318524658679962,0.6546038389205933
1761340638030111000,3.538111083984375,0.24748511612415314,0.4223119914531708,0.7179621458053589
1761340638040178200,3.54817822265625,0.1053847000002861,0.6233601570129395,0.7524558901786804
1761340638050245000,3.5582451171875,-0.034391000866889954,0.9235291481018066,0.7404989004135132
1761340638060313000,3.56831298828125,-0.10917975753545761,1.2975114583969116,0.7260422110557556
1761340638070380000,3.578380126953125,-0.07066141068935394,1.5881175994873047,0.6946287751197815
1761340638080447000,3.588447021484375,0.056340742856264114,1.673185110092163,0.5440086722373962
1761340638090514000,3.598513916015625,0.23533731698989868,1.427007794380188,0.255872517824173
1761340638100582000,3.608581787109375,0.4047253131866455,0.4810894727706909,-0.12670734524726868
1761340638110648800,3.61864892578125,0.6999099254608154,-1.2918113470077515,-0.5502867102622986
1761340638120716000,3.628716064453125,1.2369341850280762,-3.1886146068573,-0.611164391040802
1761340638130784000,3.638783935546875,1.5984234809875488,-4.356157302856445,0.211509108543396
1761340638140851000,3.648850830078125,1.70493745803833,-4.73162317276001,1.6957244873046875
1761340638150918000,3.65891796875,2.0054755210876465,-4.409918308258057,2.8839056491851807
1761340638160985000,3.668985107421875,2.263951301574707,-3.425786018371582,3.4136478900909424
1761340638171053000,3.679052978515625,2.219789505004883,-2.328077554702759,3.2743730545043945
1761340638181120000,3.6891201171875,1.9263968467712402,-1.6353861093521118,2.6713368892669678
1761340638191187000,3.69918701171875,1.3938159942626953,-1.311901569366455,1.9389803409576416
1761340638201255200,3.709255126953125,0.7835941910743713,-1.2474457025527954,1.3064181804656982
1761340638211322000,3.719322021484375,0.35184749960899353,-1.364321231842041,0.8509383201599121
1761340638221389000,3.72938916015625,0.14638620615005493,-1.5222645998001099,0.5829721689224243
1761340638231456000,3.7394560546875,0.03052367828786373,-1.6470779180526733,0.402972549200058
1761340638241524000,3.74952392578125,-0.165798157453537,-1.5129894018173218,0.16152319312095642
1761340638251591000,3.7595908203125,-0.4900113046169281,-0.9998642802238464,-0.16392210125923157
1761340638261657900,3.769657958984375,-0.7850562930107117,-0.3616502285003662,-0.5140513777732849
1761340638271725000,3.77972509765625,-0.9689418077468872,0.21416346728801727,-0.7964227199554443
1761340638281792800,3.789792724609375,-1.061034083366394,0.6754664182662964,-0.9481049180030823
1761340638291860000,3.79985986328125,-1.0896295309066772,0.9764618873596191,-0.9545162916183472
1761340638301927200,3.80992724609375,-1.047877550125122,1.1569483280181885,-0.8675888776779175
1761340638311995100,3.8199951171875,-0.9133024215698242,1.3077090978622437,-0.7740424871444702
1761340638322062000,3.83006201171875,-0.7248411774635315,1.4529296159744263,-0.7009286284446716
1761340638332129000,3.84012890625,-0.5445783734321594,1.5166003704071045,-0.6433947086334229
1761340638342196000,3.850196044921875,-0.3850625157356262,1.438098430633545,-0.6007023453712463
1761340638352264000,3.860263916015625,-0.19999873638153076,1.2244718074798584,-0.5908206105232239
1761340638362331000,3.870330810546875,0.0199770275503397,0.8659191131591797,-0.6395021080970764
1761340638372397800,3.880397705078125,0.24491581320762634,0.4470081329345703,-0.7375234365463257
1761340638382464800,3.89046484375,0.4040711224079132,0.08976131677627563,-0.8536356687545776
1761340638392533000,3.900532958984375,0.4931594133377075,-0.1490291953086853,-0.9736637473106384
1761340638402600000,3.910599853515625,0.5343441367149353,-0.2579314410686493,-1.0687018632888794
1761340638412667100,3.920667236328125,0.5309264063835144,-0.2701413035392761,-1.1315438747406006
1761340638422734800,3.93073486328125,0.4746575653553009,-0.2523926794528961,-1.162840485572815
1761340638432802000,3.940802001953125,0.40727654099464417,-0.16717638075351715,-1.1463212966918945
1761340638442869000,3.950868896484375,0.34697937965393066,-0.027065083384513855,-1.0789982080459595
1761340638452936000,3.96093603515625,0.303825318813324,0.15904562175273895,-0.9759172797203064
1761340638463004000,3.97100390625,0.298816442489624,0.35056260228157043,-0.8567749261856079
1761340638473070800,3.98107080078125,0.3087514340877533,0.528796374797821,-0.7364991307258606
1761340638483138000,3.991137939453125,0.32956990599632263,0.6410691142082214,-0.6103281378746033
1761340638493205000,4.001205078125,0.3669736385345459,0.6661553978919983,-0.46483367681503296
1761340638503273000,4.01127294921875,0.40012091398239136,0.5884483456611633,-0.32363981008529663
1761340638513339100,4.021339111328125,0.42306774854660034,0.4602413773536682,-0.17767828702926636
1761340638523406000,4.031406005859375,0.41655871272087097,0.33556443452835083,-0.02537636086344719
1761340638533474000,4.04147412109375,0.3853127956390381,0.21491467952728271,0.1293332427740097
1761340638543541000,4.051541015625,0.3363228738307953,0.1300450712442398,0.25676602125167847
1761340638553608000,4.06160791015625,0.281956285238266,0.09062384814023972,0.38014844059944153
1761340638563676000,4.071676025390625,0.24762921035289764,0.011745275929570198,0.518750011920929
1761340638573742600,4.08174267578125,0.22443966567516327,-0.056936971843242645,0.6449640989303589
1761340638583809500,4.0918095703125,0.16461361944675446,-0.05761554464697838,0.7227196097373962
1761340638593876500,4.10187646484375,0.03640298917889595,0.0878666341304779,0.7465644478797913
1761340638603944700,4.11194482421875,-0.13495197892189026,0.4503233730792999,0.6843857169151306
1761340638614011600,4.12201171875,-0.30569547414779663,0.943476140499115,0.5095462799072266
1761340638624078800,4.132078857421875,-0.4029810130596161,1.5299122333526611,0.17002923786640167
1761340638634145800,4.142145751953125,-0.35275954008102417,2.076066732406616,-0.28497299551963806
1761340638644213800,4.1522138671875,-0.24188335239887238,2.2904574871063232,-0.8144237995147705
1761340638654280700,4.16228076171875,-0.2433273047208786,1.8242374658584595,-1.2593296766281128
1761340638664347600,4.17234765625,-0.33940696716308594,0.3437499403953552,-1.539074182510376
1761340638674415600,4.18241552734375,-0.2985304892063141,-1.8407076597213745,-1.5732200145721436
1761340638684482600,4.192482666015625,-0.04981575533747673,-3.7002370357513428,-1.0887322425842285
1761340638694549800,4.2025498046875,0.2134139984846115,-4.413139343261719,-0.10505878925323486
1761340638704616700,4.21261669921875,0.5167073011398315,-3.892108678817749,1.0421042442321777
1761340638714684700,4.2226845703125,1.0856177806854248,-2.66857647895813,1.9344918727874756
1761340638724751600,4.232751708984375,1.438929796218872,-1.559625506401062,2.3624606132507324
1761340638734818800,4.24281884765625,1.313714623451233,-0.9253203868865967,2.2724475860595703
1761340638744885800,4.2528857421875,0.9207234978675842,-0.5999864935874939,1.8779679536819458
1761340638754953700,4.26295361328125,-0.03016792982816696,-0.4907680153846741,1.4392331838607788
1761340638765020700,4.273020751953125,-1.9044362306594849,-0.9894540309906006,1.1387596130371094
1761340638775087600,4.283087646484375,-3.603649616241455,-1.3087385892868042,0.6865453124046326
1761340638785155800,4.29315576171875,-4.1086883544921875,-0.5700766444206238,-0.05488430708646774
1761340638795222800,4.303222900390625,-3.6712825298309326,0.7967294454574585,-0.9640362858772278
1761340638805289700,4.313289794921875,-2.9157848358154297,1.9927877187728882,-1.8318108320236206
1761340638815356700,4.323356689453125,-2.2195000648498535,2.626411199569702,-2.3373332023620605
1761340638825424600,4.333424560546875,-1.7105768918991089,2.567457437515259,-2.2277021408081055
1761340638835491600,4.34349169921875,-1.4912344217300415,1.992396593093872,-1.5374910831451416
1761340638845558500,4.35355859375,-1.5149061679840088,1.3213169574737549,-0.5297161340713501
1761340638855626500,4.36362646484375,-1.5141878128051758,0.7910870313644409,0.504772424697876
1761340638865693700,4.373693603515625,-1.381901502609253,0.5169859528541565,1.2640206813812256
1761340638875761000,4.383760986328125,-1.1559230089187622,0.44043880701065063,1.6664351224899292
1761340638885827800,4.393827880859375,-0.8031130433082581,0.5422903299331665,1.7530256509780884
1761340638895895800,4.403895751953125,-0.36448612809181213,0.7469979524612427,1.5708017349243164
1761340638905962800,4.413962646484375,0.07256603986024857,0.8955317735671997,1.2255703210830688
1761340638916029700,4.42402978515625,0.44258183240890503,0.9687994718551636,0.7907685041427612
1761340638926096600,4.4340966796875,0.6934414505958557,0.9920084476470947,0.30675897002220154
1761340638936164600,4.44416455078125,0.8335211873054504,0.9327042102813721,-0.18092265725135803
1761340638946231600,4.4542314453125,0.871650755405426,0.8003096580505371,-0.5927043557167053
1761340638956299800,4.4642998046875,0.8142077326774597,0.647804856300354,-0.8964666724205017
1761340638966366700,4.47436669921875,0.7346929311752319,0.49457883834838867,-1.080277442932129
1761340638976433700,4.48443359375,0.6671528220176697,0.3998850882053375,-1.14176607131958
1761340638986500900,4.4945009765625,0.6127191781997681,0.3559567928314209,-1.0709755420684814
1761340638996568600,4.504568603515625,0.5814713835716248,0.33403632044792175,-0.9217802286148071
1761340639006635800,4.5146357421875,0.5855681300163269,0.3127534091472626,-0.7555965781211853
1761340639016702700,4.52470263671875,0.6132705807685852,0.29006606340408325,-0.6060603857040405
1761340639026770700,4.534770751953125,0.6539865732192993,0.26918742060661316,-0.5089188814163208
1761340639036837600,4.544837646484375,0.6868435144424438,0.2257796823978424,-0.495760977268219
1761340639046904800,4.55490478515625,0.7010427117347717,0.15956524014472961,-0.5349070429801941
1761340639056971800,4.5649716796875,0.6815996766090393,0.07023697346448898,-0.6036608815193176
1761340639067039700,4.575039794921875,0.5860726237297058,-0.015619607642292976,-0.6735257506370544
1761340639077106700,4.585106689453125,0.40213900804519653,-0.08463472127914429,-0.709925651550293
1761340639087173600,4.595173583984375,0.15652230381965637,-0.07151252776384354,-0.6562197804450989
1761340639097240600,4.605240478515625,-0.10831374675035477,-0.03051304817199707,-0.5525795817375183
1761340639107308500,4.61530859375,-0.3460536003112793,0.050627876073122025,-0.45755213499069214
1761340639117375500,4.62537548828125,-0.5317981243133545,0.16366511583328247,-0.40697765350341797
1761340639127442700,4.635442626953125,-0.6409624218940735,0.36573487520217896,-0.4183674454689026
1761340639137510700,4.6455107421875,-0.6850988268852234,0.6167784333229065,-0.47692248225212097
1761340639147577900,4.655577880859375,-0.6831919550895691,0.86697918176651,-0.529024600982666
1761340639157644800,4.665644775390625,-0.651473343372345,1.0859129428863525,-0.5381319522857666
1761340639167711700,4.675711669921875,-0.5747210383415222,1.3482495546340942,-0.47122615575790405
1761340639177779700,4.68577978515625,-0.46224889159202576,1.7366642951965332,-0.3691883981227875
1761340639187846700,4.6958466796875,-0.3665729761123657,2.0943305492401123,-0.25411638617515564
1761340639197913600,4.70591357421875,-0.27431678771972656,2.3359999656677246,-0.08940629661083221
1761340639207980500,4.71598046875,-0.2793530821800232,2.5028016567230225,-0.013109929859638214
1761340639218048500,4.726048583984375,-0.4807707369327545,2.3547775745391846,-0.31585898995399475
1761340639228115700,4.73611572265625,-0.862869918346405,1.3289401531219482,-1.2020015716552734
1761340639238182700,4.7461826171875,-0.996472954750061,-0.6002388000488281,-2.5437145233154297
1761340639248250600,4.756250732421875,-0.5606753826141357,-2.5644707679748535,-3.5592093467712402
1761340639258317800,4.76631787109375,0.07788655906915665,-3.8097872734069824,-3.465688705444336
1761340639268384800,4.776384765625,0.7252442836761475,-4.170835018157959,-1.8777738809585571
1761340639278451700,4.78645166015625,1.5304334163665771,-3.4418232440948486,0.5390039086341858
1761340639288519700,4.796519775390625,1.9690512418746948,-2.1583340167999268,2.4576566219329834
1761340639298586600,4.806586669921875,1.7816232442855835,-1.0722638368606567,3.0597214698791504
1761340639308653600,4.816653564453125,1.2270450592041016,-0.2418348789215088,2.6283257007598877
1761340639318720500,4.826720458984375,0.49598410725593567,0.46230947971343994,1.8155081272125244
1761340639328788700,4.836788818359375,-0.30134209990501404,1.0466101169586182,1.0948243141174316
1761340639338855700,4.846855712890625,-1.284523367881775,1.1633507013320923,0.7731507420539856
1761340639348922600,4.856922607421875,-2.205049753189087,0.9787437319755554,0.6667470932006836
1761340639358990600,4.866990478515625,-2.6383044719696045,1.1748383045196533,0.4078723192214966
1761340639369057500,4.8770576171875,-2.471958875656128,1.4693173170089722,0.16570843756198883
1761340639379124700,4.887124755859375,-1.9621952772140503,1.253692626953125,0.05800566449761391
1761340639389191700,4.897191650390625,-1.5153605937957764,0.6650484800338745,0.1658162921667099
1761340639399260000,4.907260009765625,-1.2236669063568115,0.14354512095451355,0.4125521779060364
1761340639409326800,4.917326904296875,-0.9253262877464294,-0.029259946197271347,0.6895739436149597
1761340639419393800,4.927393798828125,-0.5799245834350586,-0.018692756071686745,0.925991415977478
1761340639429460700,4.937460693359375,-0.2537113428115845,0.06648046523332596,1.0721678733825684
1761340639439528700,4.94752880859375,-0.009329419583082199,0.20449493825435638,1.1698333024978638
1761340639449595600,4.957595703125,0.1654708832502365,0.26891520619392395,1.271712303161621
1761340639459662600,4.96766259765625,0.2704435884952545,0.10662529617547989,1.3985304832458496
1761340639469729500,4.9777294921875,0.3050806522369385,-0.26879626512527466,1.4775786399841309
1761340639479797500,4.987797607421875,0.3468805253505707,-0.6450543403625488,1.4552738666534424
1761340639489864700,4.99786474609375,0.3199264109134674,-0.9185503721237183,1.1930476427078247
1761340639499931600,5.007931640625,0.2941760718822479,-0.8945171236991882,0.5957276821136475
1761340639509999900,5.017999755859375,0.35976147651672363,-0.4864979684352875,-0.20147733390331268
1761340639520066800,5.02806689453125,0.5337942242622375,-0.10957895219326019,-1.014793872833252
1761340639530133800,5.0381337890625,0.6720095872879028,0.09336750209331512,-1.6250574588775635
1761340639540200700,5.04820068359375,0.6812753081321716,0.14647847414016724,-1.9006850719451904
1761340639550268700,5.0582685546875,0.6066016554832458,0.042495086789131165,-1.9221198558807373
1761340639560335600,5.068335693359375,0.5090603828430176,-0.0792803019285202,-1.7791786193847656
1761340639570402800,5.07840283203125,0.3939189314842224,-0.1978980302810669,-1.5824732780456543
1761340639580469800,5.0884697265625,0.35149022936820984,-0.2591571509838104,-1.3815958499908447
1761340639590537700,5.098537841796875,0.43684667348861694,-0.21682941913604736,-1.1957240104675293
1761340639600604700,5.108604736328125,0.5880760550498962,-0.0803651213645935,-1.0042308568954468
1761340639610671900,5.118671875,0.7387795448303223,0.07052133232355118,-0.7593838572502136
1761340639620738800,5.12873876953125,0.8439944982528687,0.11766640841960907,-0.4551713764667511
1761340639630807000,5.13880712890625,0.9311142563819885,0.061548538506031036,-0.15388637781143188
1761340639640874000,5.1488740234375,1.0124517679214478,-0.038169100880622864,0.09165618568658829
1761340639650941000,5.15894091796875,1.071907639503479,-0.11654540151357651,0.2679140567779541
1761340639661009000,5.1690087890625,1.082693338394165,-0.17233940958976746,0.37772563099861145
1761340639671075800,5.179075927734375,1.0680347681045532,-0.21200771629810333,0.4273081123828888
1761340639681142800,5.189142822265625,1.0222722291946411,-0.20888209342956543,0.43928834795951843
1761340639691209700,5.199209716796875,0.9424538612365723,-0.18821144104003906,0.4581904113292694
1761340639701278000,5.20927783203125,0.837288498878479,-0.12016763538122177,0.4664791226387024
1761340639711345000,5.219344970703125,0.7039828896522522,0.03160378336906433,0.45117396116256714
1761340639721411800,5.229411865234375,0.5672609210014343,0.36457768082618713,0.37971553206443787
1761340639731479000,5.23947900390625,0.4628836512565613,0.8851984739303589,0.2382715940475464
1761340639741546800,5.249546630859375,0.4378829300403595,1.5909268856048584,0.12291089445352554
1761340639751614000,5.259614013671875,0.4775792062282562,2.390930652618408,0.09904391318559647
1761340639761681000,5.269680908203125,0.4875146746635437,2.950165271759033,0.20992065966129303
1761340639771748900,5.279748779296875,0.4194171130657196,2.8978326320648193,0.3341187834739685
1761340639781815800,5.28981591796875,0.4162874221801758,2.1338248252868652,0.18891863524913788
1761340639791882800,5.2998828125,0.6408358216285706,0.8231241106987,-0.2763065695762634
1761340639801949700,5.30994970703125,1.1096296310424805,-0.6243279576301575,-0.6843083500862122
1761340639812018000,5.320017822265625,1.6454390287399292,-1.659645676612854,-0.6969780921936035
1761340639822084900,5.3300849609375,1.9993228912353516,-2.2186079025268555,-0.2452656775712967
1761340639832151800,5.34015185546875,2.188009023666382,-2.629142999649048,0.5953603386878967
1761340639842218800,5.35021875,2.246756076812744,-2.9505107402801514,1.5978893041610718
1761340639852286700,5.36028662109375,2.1463611125946045,-2.8745739459991455,2.3064827919006348
1761340639862354000,5.37035400390625,1.7593492269515991,-2.2763125896453857,2.34291934967041
1761340639872420900,5.3804208984375,1.0828019380569458,-1.330629825592041,1.775224208831787
1761340639882487800,5.39048779296875,0.2408721148967743,-0.38346633315086365,0.9077522158622742
1761340639892556000,5.40055615234375,-0.6173749566078186,0.43809062242507935,-0.005943219643086195
1761340639902623000,5.410623046875,-1.4143120050430298,0.9837304949760437,-0.8200323581695557
1761340639912690000,5.42068994140625,-2.091298818588257,1.2568707466125488,-1.397552728652954
1761340639922756900,5.4307568359375,-2.5831310749053955,1.3009538650512695,-1.7391891479492188
1761340639932824800,5.440824951171875,-2.7924888134002686,1.1409939527511597,-1.8295975923538208
1761340639942891800,5.450891845703125,-2.6381821632385254,0.9315914511680603,-1.6910938024520874
1761340639952958700,5.460958740234375,-2.1641483306884766,0.7417021989822388,-1.369549036026001
1761340639963026700,5.471026611328125,-1.5609604120254517,0.5041271448135376,-0.8855540752410889
1761340639973093600,5.48109375,-0.9805482029914856,0.1763753443956375,-0.3274468779563904
1761340639983161000,5.4911611328125,-0.5095164775848389,-0.17798033356666565,0.16089589893817902
1761340639993228000,5.50122802734375,-0.16882969439029694,-0.36101406812667847,0.5685161352157593
1761340640003296000,5.5112958984375,0.012624358758330345,-0.47290027141571045,0.8995818495750427
1761340640013363000,5.521363037109375,0.033265452831983566,-0.5233051180839539,1.1515083312988281
1761340640023430000,5.531429931640625,-0.02745957486331463,-0.5195778012275696,1.3104408979415894
1761340640033496800,5.541496826171875,-0.08974532037973404,-0.4515865445137024,1.323683261871338
1761340640043564800,5.551564697265625,-0.12999595701694489,-0.28720659017562866,1.1817699670791626
1761340640053631700,5.5616318359375,-0.12508481740951538,-0.04520568996667862,0.8511142134666443
1761340640063698700,5.57169873046875,-0.10587708652019501,0.17782598733901978,0.40156224370002747
1761340640073765600,5.581765625,-0.0967877209186554,0.314725786447525,-0.10143216699361801
1761340640083833900,5.591833740234375,-0.09899970144033432,0.4236869513988495,-0.6117308139801025
1761340640093900800,5.60190087890625,-0.11951162666082382,0.5815408229827881,-1.0543516874313354
1761340640103968000,5.611968017578125,-0.18211813271045685,0.7744001746177673,-1.3566936254501343
1761340640114036000,5.622035888671875,-0.25717851519584656,0.9024497270584106,-1.477828025817871
1761340640124103000,5.63210302734375,-0.2809179425239563,0.8744053244590759,-1.424042820930481
1761340640134169900,5.642169921875,-0.25130200386047363,0.7121490240097046,-1.2391400337219238
1761340640144236800,5.65223681640625,-0.19675830006599426,0.4375353455543518,-0.961776614189148
1761340640154304800,5.6623046875,-0.06200767681002617,0.11122433096170425,-0.6313310861587524
1761340640164372000,5.6723720703125,0.1472247987985611,-0.19126027822494507,-0.34691256284713745
1761340640174439000,5.68243896484375,0.39975690841674805,-0.41169410943984985,-0.1761389523744583
1761340640184505900,5.692505859375,0.6681725978851318,-0.5098535418510437,-0.16055603325366974
1761340640194573800,5.70257373046875,0.9245774745941162,-0.45939701795578003,-0.2602576017379761
1761340640204640800,5.712640869140625,1.1486928462982178,-0.28835275769233704,-0.3725481629371643
1761340640214708000,5.7227080078125,1.272026777267456,-0.03726646676659584,-0.3870432376861572
1761340640224775000,5.73277490234375,1.2574708461761475,0.23368830978870392,-0.23756526410579681
1761340640234843000,5.7428427734375,1.1516882181167603,0.46404266357421875,0.040424540638923645
1761340640244909800,5.752909912109375,1.0328234434127808,0.677564263343811,0.35748934745788574
1761340640254976800,5.762976806640625,0.9682844281196594,0.9331965446472168,0.6636753678321838
1761340640265043700,5.773043701171875,0.9545907378196716,1.131205677986145,0.9184243083000183
1761340640275112000,5.78311181640625,0.9232509732246399,1.1694233417510986,1.096139907836914
1761340640285179000,5.793178955078125,0.7947431206703186,1.1165632009506226,1.154966115951538
1761340640295245800,5.803245849609375,0.5347568392753601,1.0160874128341675,1.060586929321289
1761340640305313800,5.813313720703125,0.2066672295331955,0.8849110007286072,0.7384995818138123
1761340640315380700,5.823380615234375,0.029626669362187386,0.8511202931404114,0.20895878970623016
1761340640325447700,5.83344775390625,0.19730068743228912,0.8915167450904846,-0.3611508309841156
1761340640335515000,5.843514892578125,0.6386570334434509,0.8986151814460754,-0.7212168574333191
1761340640345582800,5.853582763671875,1.136905312538147,0.7045087814331055,-0.8127482533454895
1761340640355650000,5.863650146484375,1.4882210493087769,0.1633363962173462,-0.7857528328895569
1761340640365717000,5.873717041015625,1.6391005516052246,-0.5726704597473145,-0.8686229586601257
1761340640375784000,5.883783935546875,1.56982421875,-1.394511103630066,-1.0433663129806519
1761340640385852000,5.893851806640625,1.3908195495605469,-1.9723742008209229,-1.251912236213684
1761340640395918800,5.9039189453125,1.2353897094726562,-1.953326940536499,-1.4069998264312744
1761340640405985800,5.91398583984375,1.1245578527450562,-1.473952054977417,-1.3129394054412842
1761340640416052700,5.924052734375,0.8969209790229797,-0.8034465909004211,-0.7500912547111511
1761340640426120700,5.93412060546875,0.1335587352514267,-0.42900341749191284,0.470946341753006
1761340640436187600,5.944187744140625,-0.9166122078895569,-0.2334783971309662,1.8808568716049194
1761340640446254800,5.9542548828125,-1.6282039880752563,-0.2660331726074219,2.553731918334961
1761340640456322000,5.964322021484375,-2.000030994415283,-0.37487363815307617,2.300002336502075
1761340640466390000,5.97439013671875,-1.9858200550079346,-0.22878935933113098,1.3744661808013916
1761340640476457000,5.98445703125,-1.8763539791107178,-0.06380201131105423,0.3192830979824066
1761340640486524000,5.99452392578125,-1.7896920442581177,-0.1511932909488678,-0.34575650095939636
1761340640496592000,6.004591796875,-1.6749368906021118,-0.3323734998703003,-0.4659401774406433
1761340640506658800,6.014658935546875,-1.5142111778259277,-0.49021115899086,-0.25049731135368347
1761340640516725800,6.024725830078125,-1.206350326538086,-0.5766538977622986,0.057759322226047516
1761340640526792700,6.034792724609375,-0.7774744033813477,-0.5033149719238281,0.30863985419273376
1761340640536861000,6.04486083984375,-0.31075647473335266,-0.328750342130661,0.5052048563957214
1761340640546927900,6.054927978515625,0.11078835278749466,-0.15397007763385773,0.7019831538200378
1761340640556994800,6.064994873046875,0.3829735517501831,-0.22939957678318024,0.9764026999473572
1761340640567062000,6.07506201171875,0.4219638705253601,-0.6780209541320801,1.4266449213027954
1761340640577130000,6.0851298828125,0.2429427057504654,-1.1137713193893433,1.894923210144043
1761340640587197200,6.095197265625,-0.03535548225045204,-1.1487890481948853,2.1845273971557617
1761340640597264400,6.105264404296875,-0.2977239787578583,-0.9255077242851257,2.248281478881836
1761340640607331300,6.115331298828125,-0.43297553062438965,-0.6161924600601196,2.078935384750366
1761340640617399300,6.1253994140625,-0.3859789967536926,-0.2536899149417877,1.6753615140914917
1761340640627466200,6.13546630859375,-0.13579879701137543,0.2696608603000641,1.0661057233810425
1761340640637533200,6.145533203125,-0.05775327607989311,0.5790687799453735,0.3541562259197235
1761340640647600000,6.15560009765625,-0.13326536118984222,0.7682989239692688,-0.3450729250907898
1761340640657668000,6.165668212890625,-0.20370331406593323,0.8348638415336609,-0.9808826446533203
1761340640667735000,6.175735107421875,-0.27853691577911377,0.8793607950210571,-1.5517228841781616
1761340640677802000,6.185802001953125,-0.3190169632434845,0.9475675225257874,-2.021559238433838
1761340640687869200,6.195869140625,-0.3535141944885254,0.938242495059967,-2.3722026348114014
1761340640697937200,6.205937255859375,-0.3706308603286743,0.8627378940582275,-2.570604085922241
1761340640708004400,6.21600439453125,-0.3609132170677185,0.6702313423156738,-2.6059443950653076
1761340640718071300,6.2260712890625,-0.29159486293792725,0.43458980321884155,-2.558401107788086
1761340640728139300,6.23613916015625,-0.16404910385608673,0.3353399932384491,-2.541642904281616
1761340640738206200,6.246206298828125,-0.03131929412484169,0.2792181372642517,-2.3946938514709473
1761340640748273200,6.256273193359375,0.08142974227666855,0.09105473011732101,-2.0318186283111572
1761340640758340000,6.266340087890625,0.1160511001944542,-0.168727844953537,-1.4710376262664795
1761340640768408300,6.276408203125,0.006996935699135065,-0.42563724517822266,-0.814128577709198
1761340640778475300,6.286475341796875,-0.2546980381011963,-0.64662766456604,-0.17971991002559662
1761340640788542200,6.296542236328125,-0.6202467679977417,-0.8592935800552368,0.3395000994205475
1761340640798609200,6.306609130859375,-0.9961679577827454,-1.0721737146377563,0.6816861629486084
1761340640808677000,6.316677001953125,-1.3349581956863403,-1.3037641048431396,0.8692212700843811
1761340640818744000,6.326744140625,-1.6407331228256226,-1.5811312198638916,0.9361499547958374
1761340640828811300,6.336811279296875,-1.890341877937317,-1.74594247341156,0.7939999103546143
1761340640838878200,6.346878173828125,-2.097921133041382,-1.5192127227783203,0.2737570106983185
1761340640848946200,6.3569462890625,-2.1846530437469482,-1.3809261322021484,-0.402087926864624
1761340640859013000,6.36701318359375,-2.207092046737671,-1.3992958068847656,-0.8801676630973816
1761340640869080300,6.377080322265625,-2.167163372039795,-1.5721640586853027,-0.9477200508117676
1761340640879147300,6.387147216796875,-2.0921614170074463,-1.5938720703125,-0.5914316773414612
1761340640889215200,6.39721533203125,-1.9345682859420776,-1.1842305660247803,0.1309930682182312
1761340640899282200,6.4072822265625,-1.612073540687561,-0.26319995522499084,0.9844182133674622
1761340640909349000,6.41734912109375,-1.0979257822036743,0.741631805896759,1.6254827976226807
1761340640919416000,6.427416015625,-0.5772726535797119,0.8357574939727783,1.8915424346923828
1761340640929484000,6.437484130859375,-0.252627968788147,0.16099056601524353,2.0179402828216553
1761340640939551200,6.44755126953125,-0.19923478364944458,-0.7428261041641235,2.106778860092163
1761340640949618200,6.4576181640625,-0.3129720687866211,-1.5824557542800903,2.154649496078491
1761340640959686400,6.467686279296875,-0.42155206203460693,-1.9597562551498413,2.2529027462005615
1761340640969753300,6.47775341796875,-0.43001604080200195,-2.038341999053955,2.2340989112854004
1761340640979820300,6.4878203125,-0.3846277892589569,-1.9124175310134888,1.8548575639724731
1761340640989887200,6.49788720703125,-0.34054166078567505,-1.3289227485656738,1.1756927967071533
1761340640999955200,6.507955078125,-0.3589411675930023,-0.5917288064956665,0.3841741681098938
1761340641010022100,6.518022216796875,-0.467305988073349,-0.10720128566026688,-0.3709108531475067
1761340641020089000,6.528089111328125,-0.6655839681625366,0.1338595300912857,-1.0012812614440918
1761340641030156000,6.538156005859375,-0.7698583006858826,0.33295780420303345,-1.3909245729446411
1761340641040224000,6.54822412109375,-0.6338051557540894,0.36090660095214844,-1.54127037525177
1761340641050291200,6.558291259765625,-0.2898188531398773,0.19107671082019806,-1.4320439100265503
1761340641060358400,6.5683583984375,0.0977693498134613,-0.11329038441181183,-1.007903814315796
1761340641070425300,6.57842529296875,0.41479942202568054,-0.6462870240211487,-0.465701162815094
1761340641080493300,6.588493408203125,0.6058822870254517,-1.1698964834213257,0.04254155606031418
1761340641090560300,6.598560302734375,0.473148912191391,-1.0596604347229004,0.7562259435653687
1761340641100627200,6.608627197265625,0.14036215841770172,-1.3668800592422485,0.7839276194572449
1761340641110694100,6.618694091796875,-0.20932425558567047,-0.8540685772895813,0.5865027904510498
1761340641120762000,6.62876220703125,-0.5219239592552185,-0.356968492269516,0.0904054045677185
1761340641130829000,6.6388291015625,-0.7939803600311279,-0.15785548090934753,-0.6275331974029541
1761340641140896000,6.64889599609375,-0.8273860216140747,0.3301813304424286,-1.3569695949554443
1761340641150963200,6.658963134765625,-0.6587200164794922,0.5839210748672485,-1.9573744535446167
1761340641161031200,6.66903125,-0.652085542678833,0.5106993317604065,-2.2146947383880615
1761340641171098000,6.67909814453125,-0.5307119488716125,0.46519380807876587,-2.0453224182128906
1761340641181165300,6.689165283203125,-0.4663044214248657,0.2618252635002136,-1.6244308948516846
1761340641191232300,6.699232177734375,-0.4369492828845978,0.17210368812084198,-1.0974268913269043
1761340641201300200,6.70930029296875,-0.3373792767524719,0.21808582544326782,-0.5235180854797363
1761340641211367200,6.7193671875,-0.24511000514030457,0.22021345794200897,-0.11362070590257645
1761340641221434000,6.72943408203125,-0.1897021383047104,0.18153157830238342,0.1495446115732193
1761340641231502300,6.73950244140625,-0.13754697144031525,0.13702768087387085,0.28391972184181213
1761340641241569300,6.7495693359375,-0.052612919360399246,0.0618000328540802,0.35593876242637634
1761340641251636200,6.75963623046875,-0.13276217877864838,-0.09818315505981445,0.43349117040634155
1761340641261703200,6.769703125,-0.23881830275058746,-0.20974670350551605,0.4448106586933136
1761340641271770000,6.77977001953125,-0.15976408123970032,0.019006527960300446,0.29383912682533264
1761340641281838000,6.789838134765625,-0.0520663857460022,0.4648396670818329,0.1074945479631424
1761340641291905300,6.7999052734375,0.004398223012685776,0.8005806803703308,-0.004822402726858854
1761340641301972200,6.80997216796875,0.008127447217702866,0.9380490779876709,-0.012682190164923668
1761340641312040200,6.820040283203125,-0.04940151423215866,0.8632071018218994,0.029414791613817215
1761340641322107100,6.830107177734375,-0.13214485347270966,0.6737567782402039,0.05452760308980942
1761340641332174300,6.84017431640625,-0.20692667365074158,0.5177114605903625,0.095881387591362
1761340641342241300,6.8502412109375,-0.2983678877353668,0.3289615213871002,0.1700991690158844
1761340641352309200,6.860309326171875,-0.38748979568481445,0.10716014355421066,0.2947008013725281
1761340641362376200,6.870376220703125,-0.4071279466152191,-0.0818830132484436,0.4236129820346832
1761340641372443100,6.880443115234375,-0.3867962062358856,-0.21954669058322906,0.5081064701080322
1761340641382510000,6.890510009765625,-0.32380765676498413,-0.3322106599807739,0.5188509821891785
1761340641392578000,6.900578125,-0.21509625017642975,-0.40377846360206604,0.3999689519405365
1761340641402645000,6.91064501953125,-0.08398297429084778,-0.3585180342197418,0.17364448308944702
1761340641412712200,6.920712158203125,0.03204844519495964,-0.26584115624427795,-0.0689413920044899
1761340641422779100,6.930779052734375,0.0979214683175087,-0.18918871879577637,-0.23184268176555634
1761340641432847400,6.940847412109375,0.11424341797828674,-0.17127341032028198,-0.31429174542427063
1761340641442914300,6.950914306640625,0.09245716780424118,-0.1724151074886322,-0.34995439648628235
1761340641452981200,6.960981201171875,0.021957695484161377,-0.17358797788619995,-0.340079665184021
1761340641463048200,6.971048095703125,-0.12353452295064926,-0.1327313482761383,-0.2793308198451996
1761340641473116200,6.9811162109375,-0.28331127762794495,-0.09083805233240128,-0.20373444259166718
1761340641483183000,6.99118310546875,-0.4052393138408661,-0.07810228317975998,-0.18145309388637543
1761340641493250000,7.00125,-0.482303261756897,-0.07500910758972168,-0.18010973930358887
1761340641503317000,7.01131689453125,-0.5135762691497803,-0.09126637876033783,-0.17669424414634705
1761340641513385200,7.02138525390625,-0.5111263394355774,-0.086858369410038,-0.16404493153095245
1761340641523452200,7.0314521484375,-0.4636772871017456,-0.04240940883755684,-0.13923253118991852
1761340641533519400,7.041519287109375,-0.40658149123191833,0.01861831173300743,-0.10162467509508133
1761340641543586300,7.05158642578125,-0.339691162109375,0.06729289889335632,-0.07608576118946075
1761340641553654300,7.061654296875,-0.26881781220436096,0.04197019338607788,-0.05953951179981232
1761340641563721200,7.07172119140625,-0.1950937807559967,-0.019445493817329407,-0.03212839365005493
1761340641573788200,7.0817880859375,-0.159037783741951,-0.09839916229248047,0.03493106737732887
1761340641583855000,7.091855224609375,-0.16996100544929504,-0.11672303825616837,0.133097842335701
1761340641593923000,7.101923095703125,-0.18703283369541168,-0.052276551723480225,0.2082308679819107
1761340641603990000,7.111989990234375,-0.20472846925258636,0.06423594802618027,0.23560869693756104
1761340641614057000,7.122056884765625,-0.20542730391025543,0.1489672213792801,0.21404539048671722
1761340641624124200,7.132124267578125,-0.18819878995418549,0.1847129613161087,0.14583465456962585
1761340641634192000,7.14219189453125,-0.17314110696315765,0.24004501104354858,0.06128069758415222
1761340641644259300,7.15225927734375,-0.1846153438091278,0.2659650146961212,-0.024130335077643394
1761340641654326300,7.162326171875,-0.18410876393318176,0.28307464718818665,-0.07797664403915405
1761340641664394200,7.172394287109375,-0.1972661167383194,0.26333528757095337,-0.09756099432706833
1761340641674461200,7.182461181640625,-0.18881067633628845,0.2066952884197235,-0.07605019956827164
1761340641684528000,7.192528076171875,-0.16356337070465088,0.11208567768335342,-0.0403345450758934
1761340641694595000,7.202594970703125,-0.13283278048038483,0.0145785603672266,-0.0442279614508152
1761340641704663000,7.2126630859375,-0.11661120504140854,-0.05011148378252983,-0.06418222188949585
1761340641714730000,7.22272998046875,-0.1456286758184433,-0.06848422437906265,-0.11838079243898392
1761340641724797000,7.232796875,-0.18408818542957306,-0.08533963561058044,-0.19034072756767273
1761340641734864000,7.24286376953125,-0.20898902416229248,-0.13677239418029785,-0.2578379809856415
1761340641744932000,7.25293212890625,-0.2029433697462082,-0.17531178891658783,-0.3176664412021637
1761340641754999000,7.2629990234375,-0.17640386521816254,-0.16757652163505554,-0.37482142448425293
1761340641765066200,7.273066162109375,-0.14335323870182037,-0.10676057636737823,-0.40274837613105774
1761340641775133200,7.28313330078125,-0.10979648679494858,0.045485906302928925,-0.35126399993896484
1761340641785201200,7.293201171875,-0.1110130175948143,0.23300254344940186,-0.2010105699300766
1761340641795268000,7.30326806640625,-0.10983008146286011,0.3610578775405884,0.0004959302023053169
1761340641805335000,7.3133349609375,-0.07909800112247467,0.4263671040534973,0.18506790697574615
1761340641815402000,7.323402099609375,-0.025531766936182976,0.4206271767616272,0.32968825101852417
1761340641825470200,7.33347021484375,0.050592828541994095,0.3572162389755249,0.43665811419487
1761340641835537200,7.343537109375,0.14144694805145264,0.25780993700027466,0.5096728205680847
1761340641845604000,7.35360400390625,0.2543093264102936,0.1268543154001236,0.5530932545661926
1761340641855671000,7.363671142578125,0.3612717092037201,0.0060821035876870155,0.562004804611206
1761340641865739000,7.373739013671875,0.43157997727394104,-0.1058630719780922,0.5307658910751343
1761340641875806200,7.38380615234375,0.4972690939903259,-0.18755364418029785,0.42428937554359436
1761340641885873200,7.393873046875,0.5613951086997986,-0.17449750006198883,0.2236015349626541
1761340641895940000,7.403940185546875,0.6010201573371887,-0.098521888256073,0.00659846980124712
1761340641906008000,7.414008056640625,0.5883249044418335,-0.00317433662712574,-0.11744358390569687
1761340641916075000,7.424074951171875,0.544898509979248,0.07073282450437546,-0.17601968348026276
1761340641926142200,7.43414208984375,0.4785333275794983,0.13773183524608612,-0.222172811627388
1761340641936209200,7.444209228515625,0.44017294049263,0.22154006361961365,-0.29646387696266174
1761340641946277000,7.454277099609375,0.40130358934402466,0.24762652814388275,-0.3909142315387726
1761340641956344000,7.464343994140625,0.35346052050590515,0.2363283336162567,-0.44142308831214905
1761340641966411000,7.474410888671875,0.26425501704216003,0.20975585281848907,-0.37261712551116943
1761340641976478200,7.484478271484375,0.137467622756958,0.18085891008377075,-0.17163722217082977
1761340641986546000,7.4945458984375,0.02515067718923092,0.1381111741065979,0.062212005257606506
1761340641996613000,7.504613037109375,-0.029952900484204292,0.14804258942604065,0.22152642905712128
1761340642006680000,7.51468017578125,-0.048250146210193634,0.18932583928108215,0.2598666250705719
1761340642016747000,7.5247470703125,-0.028411461040377617,0.22258633375167847,0.22368651628494263
1761340642026815200,7.534815185546875,0.015205523930490017,0.24296189844608307,0.14848124980926514
1761340642036882200,7.544882080078125,0.04105731099843979,0.24514414370059967,0.0887899398803711
1761340642046949000,7.55494921875,0.04491649568080902,0.22620081901550293,0.08289369940757751
1761340642057016000,7.56501611328125,0.03219358250498772,0.20152278244495392,0.10659447312355042
1761340642067084000,7.575083984375,0.006664251908659935,0.1913878619670868,0.14873738586902618
1761340642077151000,7.58515087890625,-0.008490771055221558,0.20351766049861908,0.17410987615585327
1761340642087218000,7.595218017578125,-0.016236841678619385,0.2163093537092209,0.16211073100566864
1761340642097285000,7.60528515625,-0.00829223357141018,0.19822458922863007,0.11826729029417038
1761340642107353000,7.61535302734375,0.037951696664094925,0.15733680129051208,0.046270594000816345
1761340642117420300,7.625420166015625,0.10500017553567886,0.1329813152551651,-0.0521525964140892
1761340642127487200,7.6354873046875,0.1591438353061676,0.12693007290363312,-0.1565389335155487
1761340642137554200,7.64555419921875,0.19888350367546082,0.08956189453601837,-0.23041366040706635
1761340642147622100,7.6556220703125,0.24483901262283325,0.06326823681592941,-0.25346890091896057
1761340642157689000,7.665689208984375,0.2739543914794922,0.05306452885270119,-0.2042076736688614
1761340642167756000,7.675756103515625,0.2577117681503296,0.012419096194207668,-0.1321883499622345
1761340642177823000,7.685822998046875,0.23331671953201294,0.02619931846857071,-0.05820368230342865
1761340642187891000,7.695890869140625,0.22226300835609436,0.08066628873348236,-0.01003775093704462
1761340642197958000,7.7059580078125,0.20089372992515564,0.11128116399049759,0.013492407277226448
1761340642208025300,7.716025390625,0.1915375143289566,0.10565576702356339,0.008461963385343552
1761340642218092300,7.72609228515625,0.1965901255607605,0.07405685633420944,-0.036098912358284
1761340642228160300,7.73616015625,0.20095238089561462,0.054217107594013214,-0.08034786581993103
1761340642238227200,7.746227294921875,0.21052461862564087,0.04007715359330177,-0.11516872048377991
1761340642248294100,7.756294189453125,0.23043441772460938,0.006351415999233723,-0.13239909708499908
1761340642258362000,7.766362060546875,0.25673383474349976,-0.04506349191069603,-0.13790512084960938
1761340642268429000,7.776428955078125,0.2670341432094574,-0.08722745627164841,-0.1161113977432251
1761340642278496000,7.78649609375,0.2368203103542328,-0.08137308806180954,-0.08825601637363434
1761340642288563000,7.79656298828125,0.18924640119075775,-0.06290672719478607,-0.060690440237522125
1761340642298631200,7.806631103515625,0.1469891518354416,-0.06100032851099968,-0.03898055478930473
1761340642308698000,7.816697998046875,0.12614938616752625,-0.06555220484733582,-0.034294456243515015
1761340642318765000,7.82676513671875,0.1254207193851471,-0.06996936351060867,-0.0505189411342144
1761340642328832300,7.836832275390625,0.14101457595825195,-0.07611487805843353,-0.06692374497652054
1761340642338899200,7.846899169921875,0.17457489669322968,-0.07174420356750488,-0.08556026220321655
1761340642348967200,7.85696728515625,0.20032739639282227,-0.05336412787437439,-0.1011115238070488
1761340642359034000,7.8670341796875,0.2045920044183731,-0.018314730376005173,-0.10427118837833405
1761340642369101000,7.87710107421875,0.19618546962738037,-0.004336862824857235,-0.0960627943277359
1761340642379168000,7.88716796875,0.20251189172267914,-0.0075408946722745895,-0.09132082015275955
1761340642389236200,7.897236328125,0.20681528747081757,-0.0019304128363728523,-0.08761662989854813
1761340642399303200,7.90730322265625,0.2232624888420105,0.010832348838448524,-0.0892161950469017
1761340642409370000,7.9173701171875,0.24034321308135986,0.04883752018213272,-0.10990842431783676
1761340642419437000,7.92743701171875,0.2529909014701843,0.10042653977870941,-0.1472279131412506
1761340642429505000,7.937505126953125,0.2507179081439972,0.1363307535648346,-0.1720573604106903
1761340642439572000,7.947572021484375,0.23879072070121765,0.1532735377550125,-0.1833532154560089
1761340642449639200,7.95763916015625,0.21238814294338226,0.11844098567962646,-0.17338049411773682
1761340642459706000,7.9677060546875,0.1921330690383911,0.06737424433231354,-0.16883669793605804
1761340642469774000,7.977774169921875,0.18462108075618744,0.034029871225357056,-0.1678803563117981
1761340642479841000,7.987841064453125,0.17631620168685913,0.031073760241270065,-0.1679718941450119
1761340642489908200,7.997908203125,0.1864178478717804,0.04384761303663254,-0.13022664189338684
1761340642499976200,8.00797607421875,0.17237234115600586,0.029982581734657288,-0.08506372570991516
1761340642510043100,8.018043212890625,0.10373576730489731,-0.04017174243927002,-0.016867095604538918
1761340642520110000,8.028110107421876,0.09496213495731354,-0.04363103210926056,0.013933280482888222
1761340642530177000,8.038177001953125,0.13293427228927612,-0.06847619265317917,0.02312091924250126
1761340642540244200,8.048244140625,0.1744474619626999,-0.12179115414619446,0.03981512784957886
1761340642550311200,8.058311279296875,0.21252082288265228,-0.18265797197818756,0.055337898433208466
1761340642560379100,8.068379150390625,0.20418143272399902,-0.2140302211046219,0.040946945548057556
1761340642570446000,8.078446044921876,0.17156942188739777,-0.17868474125862122,0.0015031332150101662
1761340642580513000,8.088512939453125,0.1517617404460907,-0.14487262070178986,-0.06174067035317421
1761340642590580000,8.098580078125,0.1443227380514145,-0.11750863492488861,-0.12906937301158905
1761340642600648000,8.10864794921875,0.12920404970645905,-0.10896487534046173,-0.17702928185462952
1761340642610715000,8.11871484375,0.10928734391927719,-0.10552753508090973,-0.1954844444990158
1761340642620781800,8.12878173828125,0.10103532671928406,-0.11959327012300491,-0.18967054784297943
1761340642630848800,8.138848876953125,0.11405418813228607,-0.12106200307607651,-0.1895427107810974
1761340642640917000,8.1489169921875,0.11805076897144318,-0.1534862369298935,-0.07556019723415375
1761340642650984000,8.15898388671875,0.13329869508743286,-0.17765043675899506,-0.0664503201842308
1761340642661051100,8.169051025390624,0.1631685495376587,-0.025204645469784737,-0.06563098728656769
1761340642671118000,8.1791181640625,0.1720009297132492,0.045516662299633026,-0.12436461448669434
1761340642681186000,8.18918603515625,0.19586224853992462,0.12539631128311157,-0.18376153707504272
1761340642691253000,8.1992529296875,0.22766384482383728,0.15831218659877777,-0.25151047110557556
1761340642701320000,8.20931982421875,0.2417861521244049,0.12164504826068878,-0.2462465763092041
1761340642711387000,8.219386962890624,0.2718537449836731,0.03280892223119736,-0.20915833115577698
