time,seconds_elapsed,z,y,x
1761338243672817700,0.018817626953125,-0.4760562542706728,-0.5468233696069568,-0.3515578775404021
1761338243682882600,0.028882568359375,-0.4507195684403181,-0.5903349964121356,-0.3582672755185514
1761338243692948500,0.038948486328125,-0.41534138106703755,-0.5883129890652373,-0.33064744718708095
1761338243703014700,0.0490146484375,-0.44339784725010395,-0.5585543586067855,-0.2301886839476414
1761338243713079800,0.059079833984375,-0.5775128877073527,-0.537372417835705,-0.010073120523896069
1761338243723145500,0.0691455078125,-0.7184826163649558,-0.4664238449852913,0.19225487554110585
1761338243733210600,0.079210693359375,-0.7545581383526325,-0.4447978137085214,0.2684429564801976
1761338243743276500,0.089276611328125,-0.6360773048788309,-0.40998708749227225,0.2806007195247337
1761338243753342700,0.0993427734375,-0.3843862708330154,-0.36915363038778304,0.3389261037759483
1761338243763407600,0.10940771484375,-0.04097849159836769,-0.3800499586617574,0.40946963948942716
1761338243773473500,0.1194736328125,0.27901918595433234,-0.42089243932291864,0.46635709989201274
1761338243783539500,0.12953955078125,0.47986558342576024,-0.42904158778060225,0.5405554683186113
1761338243793604600,0.1396044921875,0.47282092561125755,-0.3074206661827862,0.6262134249251335
1761338243803670500,0.14967041015625,0.22926234461665151,-0.09491371459923684,0.6368406174015253
1761338243813735400,0.1597353515625,-0.029576223096251485,0.01772639348972589,0.5773388828473165
1761338243823801600,0.169801513671875,-0.09877309344112872,-0.035969248601607974,0.484121048913151
1761338243833867500,0.179867431640625,0.08590309047400951,-0.13073263147734104,0.30980865729786455
1761338243843932400,0.189932373046875,0.42298575834035873,-0.30037334148716177,0.043598099512234326
1761338243853998300,0.199998291015625,0.6774421654462814,-0.4677341603988781,-0.1325549515336752
1761338243864063500,0.2100634765625,0.7950292649507522,-0.5183364761173724,-0.14094703276860526
1761338243874129400,0.22012939453125,0.756041654908657,-0.5246460976555943,-0.04688499396210536
1761338243884195600,0.230195556640625,0.5242454079002141,-0.6132618080891669,0.05241154796439223
1761338243894260500,0.240260498046875,0.3105424514651298,-0.5461021061277017,0.022217631361214442
1761338243904326400,0.250326416015625,0.2565039872854948,-0.423426012921147,-0.09753693924229591
1761338243914391600,0.2603916015625,0.23915011690258978,-0.3210800659619272,-0.12849090783200226
1761338243924457500,0.27045751953125,0.15042086309194563,-0.1844495172861032,-0.10292781110093928
1761338243934523600,0.280523681640625,0.11960837619900702,-0.20940527750747276,-0.02912593117863871
1761338243944588500,0.290588623046875,0.1979407391577959,-0.3325013314254582,-0.1238145957171917
1761338243954654500,0.300654541015625,0.2393149520754814,-0.48922871078308666,-0.3514866024024784
1761338243964720400,0.310720458984375,0.3608943360865116,-0.5196441977150738,-0.5370184167662635
1761338243974785500,0.32078564453125,0.5963268937706947,-0.5619779398472979,-0.6411061658915131
1761338243984851500,0.3308515625,0.9212029910147189,-0.6228493553195148,-0.6381400095622987
1761338243994916400,0.340916259765625,1.236139293524623,-0.6772361214801669,-0.5395358064146712
1761338244004982500,0.350982421875,1.4427391399562357,-0.6570012888334691,-0.3466815402083099
1761338244015048400,0.36104833984375,1.5291384895145892,-0.6593108809500933,-0.05903617200222797
1761338244025113600,0.371113525390625,1.3514292220026254,-0.6490009377293289,0.33272790672294794
1761338244035179300,0.38117919921875,0.875049727126956,-0.7246236033380031,0.6927339887328445
1761338244045244400,0.391244384765625,0.17139233945012092,-0.8210750488985329,0.8339460017137229
1761338244055310600,0.401310546875,-0.43975159970223904,-0.8771728567607701,0.7401225665692239
1761338244065376500,0.41137646484375,-0.8316869707405566,-1.003929278083518,0.5467019351843744
1761338244075441400,0.42144140625,-1.0245037910133599,-1.3044663952976465,0.3464210261086002
1761338244085507300,0.43150732421875,-1.0640221469312905,-1.6858151981309055,-0.07271714429236016
1761338244095573500,0.441573486328125,-1.1054817000448702,-1.8721528855174778,-0.5681763195633888
1761338244105638400,0.451638427734375,-0.9831652339309453,-1.9979706377506254,-0.7087805759094655
1761338244115704600,0.46170458984375,-0.63740300052464,-2.1953832613810897,-0.47968076491076495
1761338244125769500,0.47176953125,-0.28501111984550953,-2.2960040285155174,-0.20973578810347243
1761338244135835400,0.48183544921875,-0.12161328628063202,-2.3868264552131295,-0.01194015650479123
1761338244145901600,0.491901611328125,-0.09840776726007461,-2.4199098096475002,0.009906787513662129
1761338244155966500,0.501966552734375,-0.06529401768743992,-2.320938271024823,-0.020290983280725775
1761338244166032600,0.51203271484375,0.07157295182645321,-2.1981512647897006,0.05838161708363331
1761338244176097300,0.52209716796875,0.12977145829498768,-2.098897986616194,0.19327968854419886
1761338244186163500,0.53216357421875,0.23010990135669707,-1.9347578102514147,0.24218626972809432
1761338244196229400,0.5422294921875,0.43757016400992865,-1.7969411387972534,0.37202717653010037
1761338244206294500,0.55229443359375,0.577622193300724,-1.8855738003656266,0.38330622051134705
1761338244216360400,0.5623603515625,0.6772323220878839,-2.0758057187117633,0.12884930194877087
1761338244226426400,0.57242626953125,0.5862526590019465,-2.182851696588099,-0.25924915780778973
1761338244236491500,0.582491455078125,0.2644511468976736,-2.263057013811916,-0.6223018044393509
1761338244246557400,0.592557373046875,0.005648819541931152,-2.2627644606061277,-0.9193625507798046
1761338244256622600,0.60262255859375,-0.15698153678178786,-2.027721632891893,-1.052367803364247
1761338244266688500,0.6126884765625,-0.38939562342762946,-1.8423052981339394,-0.6353904185932129
1761338244276754400,0.62275439453125,-0.7549129431396723,-1.9058064410552382,0.04178454728424549
1761338244286819600,0.632819580078125,-1.2419646386772394,-1.9209423431277275,0.12300543475877493
1761338244296885500,0.642885498046875,-1.6950135268479585,-2.2313813342183826,0.09194529324769973
1761338244306950700,0.65295068359375,-2.035582867786288,-2.6967823389619587,-0.13581917749401182
1761338244317016300,0.663016357421875,-2.1720383338898417,-2.9787644663751123,-0.6663401950649916
1761338244327082500,0.67308251953125,-2.281415238931775,-3.0976001046359536,-1.1448787676706909
1761338244337147400,0.6831474609375,-2.3534365190476176,-2.20492236635983,-0.6840458014950156
1761338244347213600,0.693213623046875,-2.106184928753972,-1.3069789626404642,0.9023048868644982
1761338244357279500,0.703279541015625,-1.330489894348383,-0.7246136664658784,2.0334099076613783
1761338244367344400,0.713344482421875,-0.5243325016617775,0.024203297886252403,3.0455647969722746
1761338244377410300,0.723410400390625,-0.16518530150353908,0.37559871487393975,4.047560695840418
1761338244387475500,0.733475341796875,-0.39577743341922755,0.2717807591333985,4.7309074091553684
1761338244397541600,0.743541748046875,-1.2225444834142922,-0.09259228591434657,4.807487960010767
1761338244407607600,0.753607666015625,-2.5037533372431993,-0.6800473064433783,3.963595003169775
1761338244417672400,0.76367236328125,-4.069941746735573,-0.9110445850938558,2.7472385607406498
1761338244427738400,0.77373828125,-5.243158427879214,-0.7622648402724415,1.5806448048681019
1761338244437803500,0.783803466796875,-5.460030662000179,-0.6596263035748153,0.44791715130545195
1761338244447869400,0.793869384765625,-5.0415924839615816,-0.6381468776945024,-0.052586694468744095
1761338244457935600,0.803935546875,-4.45223542920351,-0.4164374326754361,-0.0518880081474781
1761338244468000500,0.81400048828125,-3.482760866972804,0.2982508329078555,-0.24864118148852138
1761338244478066400,0.82406640625,-2.523972533929348,0.8447535922583193,0.4187279912980273
1761338244488132400,0.83413232421875,-1.6927286307811735,1.5039850512966513,1.337781804922223
1761338244498197500,0.844197509765625,-0.7616139020830393,2.2544810547769067,2.069546804447472
1761338244508263700,0.854263671875,0.23485855718851087,2.7080346775993704,2.716581264409423
1761338244518328300,0.864328369140625,1.1603326496511697,2.785020886646211,2.9287112724393602
1761338244528394500,0.87439453125,1.8083447224736213,2.8988147313475605,2.8595182014867664
1761338244538460400,0.88446044921875,2.135838308739662,2.8129347294881937,2.3706562416568397
1761338244548525600,0.894525634765625,2.2124732201308013,2.39787538023293,1.4874281765103339
1761338244558591500,0.904591552734375,2.28222597079277,1.7555594732254742,0.40904871066361664
1761338244568656400,0.914656494140625,2.3366835371673105,1.185626884579286,-0.6319668008200824
1761338244578722600,0.92472265625,2.3846511570006608,0.5682854059610516,-1.7504297091215848
1761338244588788500,0.93478857421875,2.432723406252265,-0.23114406671002505,-2.8464976841330527
1761338244598853600,0.944853515625,2.213395011150837,-1.0468899564750491,-3.4859546945780515
1761338244608919300,0.954919189453125,1.6664771681934594,-1.3424575416482984,-3.5482121210485693
1761338244618984400,0.964984375,1.04345223711133,-1.0804970425225793,-3.022387335002422
1761338244629050400,0.97505029296875,0.3895815013885498,-0.6354395184319466,-2.086113323844969
1761338244639116500,0.985116455078125,-0.3163075908631086,-0.18495726587884126,-0.926504166162759
1761338244649181400,0.995181396484375,-0.9247925399392842,0.1658811200142838,0.20996625412479042
1761338244659247400,1.005247314453125,-1.472481951791048,0.4713836228171363,1.1497905781749636
1761338244669313500,1.0153134765625,-2.062452754533291,0.6210580879885703,1.7547883427225053
1761338244679378400,1.02537841796875,-2.4701561880677936,0.8088988003492354,2.0513781105503437
1761338244689444600,1.035444580078125,-2.427769583237171,0.8518807407245039,2.225629346562922
1761338244699509500,1.045509521484375,-1.8183803787976502,0.9176728441271931,2.115691008245945
1761338244709575400,1.055575439453125,-0.7945388510853052,0.9351943261619656,1.7114289473369717
1761338244719641300,1.065641357421875,0.37865094205141064,0.7821858577296137,1.2367714539483188
1761338244729706500,1.07570654296875,1.4784136799275873,0.6135321494631469,0.7023338839881121
1761338244739772700,1.085772705078125,2.145613268300891,0.4850120429361239,-0.06117160399518907
1761338244749837300,1.09583740234375,2.4825720175266266,0.4210208880081773,-0.8226019662048667
1761338244759903500,1.105903564453125,2.7293916461437937,0.449084076192975,-1.2979381625726818
1761338244769969400,1.115969482421875,2.8449779272198676,0.4801346096254885,-1.596274774067849
1761338244780034600,1.12603466796875,2.8714199439436197,0.5122003114499152,-1.5966450686849654
1761338244790100500,1.1361005859375,3.044070759022236,0.5066881238996982,-1.474872646319866
1761338244800166400,1.14616650390625,3.3179356309533117,0.299068579031527,-1.3693889493241906
1761338244810231600,1.1562314453125,3.5330940468937158,-0.028189444912970065,-1.2911986251845955
1761338244820297500,1.16629736328125,3.4564626426339147,-0.3625180648308247,-1.2228465351007878
1761338244830362600,1.176362548828125,3.002646861743927,-0.6618260786414146,-1.0886869248494506
1761338244840428000,1.186427978515625,2.2989251766592265,-0.8976155600044876,-0.8110336934860796
1761338244850494200,1.196494140625,1.5021943684875965,-1.068811938491091,-0.4321917589072138
1761338244860559000,1.20655908203125,0.6160533385038376,-1.2136704912807792,-0.12810673995316027
1761338244870625300,1.216625244140625,-0.22479835094511508,-1.418447725395113,-0.01032872098647058
1761338244880690200,1.226690185546875,-0.9455980120807885,-1.6110649314425884,-0.09776661981232464
1761338244890756000,1.236756103515625,-1.592328812921047,-1.8228627849087118,-0.16600034421347082
1761338244900822300,1.246822265625,-2.007484900549054,-1.9357817464716731,-0.2767503642395139
1761338244910887200,1.25688720703125,-2.0822785679876805,-1.9248134854726493,-0.30592721275463697
1761338244920953300,1.266953369140625,-1.8237012815594673,-1.7417372841000556,-0.027000308193638918
1761338244931018200,1.277018310546875,-1.4729337872117756,-1.5350979824408888,0.4085604887552559
1761338244941084200,1.287084228515625,-1.2376508671313524,-1.462033184621483,0.6130754917368293
1761338244951150000,1.297150146484375,-1.081985089123249,-1.5182131908744572,0.542962310264632
1761338244961215200,1.30721533203125,-0.7952052060395479,-1.575142700320482,0.4252789107788354
1761338244971281400,1.317281494140625,-0.48359483308196066,-1.5673226742193103,0.34481413890123364
1761338244981347000,1.32734716796875,-0.3445826682329178,-1.5994978277675806,0.2028682586878538
1761338244991412200,1.337412109375,-0.5507201578497887,-1.4319222701266408,0.06865304579176008
1761338245001478100,1.34747802734375,-1.1267425147384404,-1.1337233135364948,0.028758623103052376
1761338245011543300,1.357543212890625,-1.6534499288380144,-1.0481537658657878,0.11039331554286182
1761338245021609000,1.36760888671875,-1.9569523986637591,-1.1367699146907775,0.10427125246599316
1761338245031675100,1.377675048828125,-1.9973376005440948,-1.1170586675267666,-0.11109276904910802
1761338245041740300,1.387740234375,-1.8931085797846317,-0.5013849759902805,-0.32918994185514744
1761338245051806200,1.39780615234375,-1.7916788343548773,0.4244599225461483,-0.2822370520222932
1761338245061871400,1.407871337890625,-1.5127642778187989,0.9439257680196315,-0.0029446751497685907
1761338245071937000,1.41793701171875,-0.8966530716478824,1.4583739314615725,0.09547003330774605
1761338245082003200,1.428003173828125,-0.26086744319200517,1.5007111441925167,0.04191869505792856
1761338245092068000,1.438068115234375,-0.053259881022572515,1.2450839397415518,-0.2360420678846538
1761338245102134300,1.44813427734375,-0.535713727375865,1.3641561632372439,-0.376637483337149
1761338245112199200,1.45819921875,-0.8053653655260801,1.4751318817779422,-0.22936456288211046
1761338245122265000,1.46826513671875,-1.2001637247800827,1.32178577888906,0.002444543607905507
1761338245132331000,1.4783310546875,-1.8867355376213788,1.2225466023061424,0.18585377632714806
1761338245142396200,1.488396240234375,-2.16404090539515,1.0647141477834432,0.18047460403945295
1761338245152462300,1.49846240234375,-2.2246581634432077,0.8665780321840196,0.020346147534064947
1761338245162528300,1.5085283203125,-1.9942706141889095,0.9797699654694646,-0.23993629884421824
1761338245172593200,1.51859326171875,-1.3318658588767052,1.2770900203332305,-0.4024551576174795
1761338245182659000,1.5286591796875,-0.3944266033321619,1.53523563734591,-0.3494691616328433
1761338245192724200,1.53872412109375,0.4806108488351106,1.8644335433118044,-0.09533307252246886
1761338245202790100,1.5487900390625,1.2509575079500674,2.291437305121869,0.27471717791147526
1761338245212856300,1.558856201171875,2.0090695393919944,2.5597984650701284,0.5769347590258345
1761338245222921200,1.568921142578125,2.779229736024141,2.5454700799882413,0.6653139938224106
1761338245232987100,1.578987060546875,3.432575571089983,2.4629370504692196,0.69938657848984
1761338245243052300,1.58905224609375,4.004547191283106,2.442145606853068,0.5061124429035931
1761338245253118200,1.5991181640625,4.4005642786771055,2.1873937239319083,0.20007121184784918
1761338245263184100,1.60918408203125,4.587714159229398,1.4934331160135565,-0.01397076728325337
1761338245273249000,1.6192490234375,4.185000789067149,0.7431367267586291,-0.3475000169843435
1761338245283315200,1.629315185546875,3.267466257432103,0.35365400956943627,-0.8443266720831394
1761338245293380400,1.63938037109375,2.0830355238348246,0.19241160047277808,-1.2762811881683767
1761338245303446300,1.6494462890625,0.8005272778451442,0.18570925328992305,-1.6502590238422155
1761338245313512200,1.65951220703125,-0.5069827229321002,0.3138122669160366,-1.7538158444285392
1761338245323577000,1.6695771484375,-1.7024568285912274,0.5497704559095203,-1.5232928322263062
1761338245333643300,1.679643310546875,-2.6129689142435786,0.743664184698835,-1.0704310641255228
1761338245343708200,1.689708251953125,-2.8742414311051365,0.9417767002269625,-0.4743425091553479
1761338245353774000,1.699774169921875,-2.461895724722743,1.0136385519973934,0.07672558534927666
1761338245363840000,1.709840087890625,-1.7355694091200828,0.8929377774517983,0.4382284817881882
1761338245373905200,1.7199052734375,-0.928099764791131,0.6951203724127263,0.671373586122319
1761338245383971300,1.729971435546875,-0.13555880952477453,0.40883820971809326,0.8410616789378226
1761338245394037200,1.740037353515625,0.514849803045392,0.0732046446815133,0.9122481887299567
1761338245404102100,1.75010205078125,0.9849123698592186,-0.1253309185642749,0.91837324748151
1761338245414168000,1.76016796875,1.2781126413792372,-0.18360373237803576,0.8579820532742887
1761338245424233200,1.770233154296875,1.480271875014901,-0.17876060319580137,0.7938608056932688
1761338245434299100,1.780299072265625,1.6108014582008123,-0.11912570724859833,0.7175244388572871
1761338245444365300,1.790365234375,1.6313140848755836,-0.09067213150672614,0.5472390377357602
1761338245454430200,1.80043017578125,1.390065534389019,-0.04265782298743725,0.3417105468627065
1761338245464496000,1.81049609375,1.105010575401783,-0.02944412114918232,0.20827260194942354
1761338245474561300,1.820561279296875,0.8678484174460173,-0.06332374052777887,0.1100360996030271
1761338245484627200,1.830627197265625,0.7326262925297021,-0.10467464563511311,-0.06022460546866059
1761338245494693400,1.840693359375,0.6104781687200069,-0.1780303892251104,-0.2606217978678644
1761338245504758000,1.850758056640625,0.4871639237403869,-0.39321927336901424,-0.49116702190190553
1761338245514824200,1.86082421875,0.441433853700757,-0.6787303786259145,-0.7883953068289905
1761338245524889300,1.870889404296875,0.35018940219879147,-0.9894048589728772,-1.1314497425813228
1761338245534955300,1.880955322265625,0.10737900922298431,-1.196341536143422,-1.4320054183654487
1761338245545021200,1.891021240234375,-0.307172098249197,-1.2722700528308748,-1.5948992479309438
1761338245555086000,1.901086181640625,-0.6746715316891669,-1.3086146010182798,-1.5779653565257787
1761338245565152300,1.91115234375,-0.9482388819783926,-1.2736105076543986,-1.4486726216584442
1761338245575218200,1.92121826171875,-1.158502511614561,-1.2341942969366908,-1.2777217423655092
1761338245585283300,1.931283447265625,-1.3483710034757852,-1.1688075594644993,-1.007432025507465
1761338245595349000,1.941348876953125,-1.2643114950418473,-0.9742056093405932,-0.4772945638939738
1761338245605414100,1.9514140625,-0.9035176967203616,-0.7289636783689261,0.1900840343080461
1761338245615480000,1.96147998046875,-0.3215864080488682,-0.5452137059206142,0.7742114447843284
1761338245625546200,1.971546142578125,0.15507190376818178,-0.47196511249952017,1.3409867384433745
1761338245635611400,1.981611328125,0.2212380281150341,-0.28582367833741007,1.8436138965144753
1761338245645677000,1.991677001953125,-0.08187865726351737,-0.032859628681093454,2.2998690333805976
1761338245655742200,2.0017421875,-0.5565373196959496,0.15908508493229745,2.7514810206159948
1761338245665808100,2.01180810546875,-1.1260212147265671,0.2987735050750896,3.0127643511325117
1761338245675874300,2.021874267578125,-1.517284970113635,0.8351910333387553,3.0284666549161074
1761338245685939200,2.031939208984375,-1.1794102750867606,1.0855671853937208,2.2451636297248303
1761338245696005000,2.042005126953125,-0.4328109867841005,0.34825894559286535,0.9083519119437783
1761338245706070300,2.0520703125,0.07260989365875721,-0.29142186367064715,-0.4276431556921452
1761338245716136200,2.06213623046875,-0.13523556891977787,-0.49385936625842003,-1.0797650019209832
1761338245726202400,2.072202392578125,-1.1812123560726642,0.047876708413194864,-0.7436968448594212
1761338245736267000,2.08226708984375,-2.6296143440961837,0.8759563936430961,0.024647388391941784
1761338245746333200,2.092333251953125,-3.8198821132838723,1.2777009918384252,0.5582945386268198
1761338245756398000,2.102398193359375,-4.386899325940012,1.6136052635751663,0.760411540555954
1761338245766464300,2.11246435546875,-4.234535512086749,1.9373729611858725,0.5576215347360819
1761338245776530200,2.1225302734375,-3.4487305870771405,2.137612332674861,0.14067242621146142
1761338245786595000,2.132594970703125,-2.3115210388600826,2.164885831786692,-0.18220435044150798
1761338245796661200,2.1426611328125,-1.023125488397479,2.1558301264107227,-0.4712566354366019
1761338245806727200,2.15272705078125,0.09882277780175208,2.137277547762543,-0.7193377718895674
1761338245816792300,2.162792236328125,1.0404746826052664,1.986174547625333,-0.8729843190297484
1761338245826858200,2.172858154296875,1.8134557818770407,1.6903905432224273,-0.9794253167502581
1761338245836923100,2.182923095703125,2.253652202737331,1.4459154319047927,-1.1167479941423981
1761338245846989000,2.192989013671875,2.3661989699870345,1.2777195504084229,-1.3660865467779337
1761338245857055200,2.20305517578125,2.2582412840932604,0.9641936261530965,-1.7989590544909237
1761338245867120400,2.213120361328125,2.200477077388763,0.5393158435210585,-2.584157830300927
1761338245877186300,2.223186279296875,2.0971225013762713,0.002303746897727251,-3.3783810395658014
1761338245887251200,2.233251220703125,1.8727976131618023,-0.497589163903892,-3.788815067107975
1761338245897317000,2.243317138671875,1.359790807634592,-0.6398777931403369,-3.6925422660499807
1761338245907383300,2.25338330078125,0.5646522370904684,-0.45625626937728375,-3.0584651950776576
1761338245917448200,2.2634482421875,-0.4379401663661003,-0.03151668963953853,-1.9998352625787257
1761338245927514000,2.27351416015625,-1.5047083971351385,0.3830872074658051,-0.9131940182127058
1761338245937579300,2.283579345703125,-2.4690444274336096,0.7866210636980832,-0.0703186774490401
1761338245947645200,2.293645263671875,-2.9969577101916074,0.8526409114420413,0.48340442507639525
1761338245957711000,2.303711181640625,-3.217413648018241,0.738703712747246,0.9118759213514626
1761338245967776300,2.3137763671875,-3.2012393428087234,0.7564522815361618,1.171566868110001
1761338245977842200,2.32384228515625,-2.9537714794158934,0.924376214223355,1.2705159026399253
1761338245987907000,2.333906982421875,-2.4698919841736555,1.0964403154551983,1.1412469139743595
1761338245997973200,2.34397314453125,-1.6407716490507125,1.2410720737516878,0.727162181904912
1761338246008039200,2.3540390625,-0.5526216075569391,1.3067989298984408,0.17195702412817626
1761338246018104000,2.36410400390625,0.862460879188776,1.222207214283943,-0.30111648800466206
1761338246028170000,2.374169921875,2.2321207544088364,0.9732041041478514,-0.7671995932608843
1761338246038236200,2.384236083984375,3.3907623822331425,0.6358705302603542,-1.370655169867724
1761338246048301300,2.39430126953125,4.234944092887639,0.23915859246999024,-2.090784968917817
1761338246058367200,2.4043671875,4.680580658975243,-0.07036459894999861,-2.7656314187824727
1761338246068432100,2.41443212890625,4.78851496399343,-0.265241128231585,-3.2038775823578236
1761338246078498000,2.424498046875,4.647415471476316,-0.3293886062324047,-3.4166748221248384
1761338246088564200,2.434564208984375,4.173774461653829,-0.3571327185306698,-3.339512671989202
1761338246098629000,2.444629150390625,3.4685523088783023,-0.42089609258472915,-2.9912580372452733
1761338246108695300,2.4546953125,2.7082202632993457,-0.5071560336723924,-2.5284008717656135
1761338246118760200,2.46476025390625,1.8238327989846468,-0.5903045282086357,-2.0191423128560184
1761338246128826000,2.474826171875,0.8996440701574087,-0.6864128959525376,-1.450166951869428
1761338246138892300,2.484892333984375,0.08749766618907451,-0.8182596261516213,-0.8575602476656436
1761338246148957200,2.494957275390625,-0.5831681369900703,-1.0011563062388449,-0.2945101850748062
1761338246159023400,2.5050234375,-1.1579495539069176,-1.0720162144251166,0.11265095827654004
1761338246169088000,2.515087890625,-1.5831763691723346,-1.127184267156571,0.3185654527924955
1761338246179154200,2.525154296875,-1.717478456634283,-1.3336094876736402,0.3238137287095189
1761338246189220000,2.53522021484375,-1.647126571035385,-1.4807352547429502,0.3265190056128427
1761338246199285200,2.54528515625,-1.5731097331881523,-1.5069615828894078,0.3760852928144857
1761338246209351400,2.555351318359375,-1.4936825607299804,-1.6837454061195254,0.5064355373781174
1761338246219416000,2.565416015625,-1.5283429552227257,-1.9660496050938963,0.5638008809581398
1761338246229482200,2.575482177734375,-1.6105477757006883,-2.0941282879963516,0.45169546426776797
1761338246239548200,2.585548095703125,-1.5989356638401746,-1.9818148911111055,0.31561018318347633
1761338246249613300,2.59561328125,-1.5158429546117782,-1.6347192171439529,0.32978060122467573
1761338246259679000,2.605678955078125,-1.4280956975758075,-1.3391919639810919,0.4660332747651264
1761338246269744000,2.615744140625,-1.2740823629498481,-1.172362256271392,0.5180321959411726
1761338246279810300,2.625810302734375,-1.0853975279152392,-1.1560451085250825,0.38075295583195984
1761338246289876200,2.635876220703125,-0.8128805634617805,-1.0625749437976628,0.0832405202012509
1761338246299941400,2.64594140625,-0.48126960500478744,-0.39584195002280176,-0.021595690937433392
1761338246310007000,2.656007080078125,-0.024014497315883634,0.45538697572946546,0.43907121622264383
1761338246320073200,2.6660732421875,0.37143969549834727,0.8741679758563637,0.7187763386145234
1761338246330138000,2.67613818359375,0.6962474036812782,1.2007855099402367,0.2913595024915412
1761338246340204300,2.686204345703125,0.6737947488546371,1.398146257252991,-0.8180586967520416
1761338246350269200,2.696269287109375,0.10716565873324871,1.0287930857051164,-2.1158384538926183
1761338246360335000,2.706335205078125,-0.867018980884552,0.41423130093328653,-3.145787212438881
1761338246370401000,2.716401123046875,-2.249611987435818,0.09193345667943358,-3.697773152440786
1761338246380466200,2.726466064453125,-3.7379473419189453,-0.01965878632441163,-3.7336382465481757
1761338246390532400,2.736532470703125,-5.014377144777774,-0.6283553323246538,-3.614351941910386
1761338246400597000,2.746596923828125,-5.5258022340714925,-1.0697542608425021,-3.9590649585247037
1761338246410663200,2.7566630859375,-4.762128476849198,-0.907478417044878,-4.1857533610001205
1761338246420729000,2.76672900390625,-3.412725792238116,-0.47141222785711284,-3.9290643725365397
1761338246430794200,2.776794189453125,-1.930762310874462,0.44439094994068146,-3.135748341244459
1761338246440860200,2.786860107421875,-0.25909400377869607,1.3447184723176062,-1.997774676787108
1761338246450925000,2.796925048828125,1.4481220020383596,1.9581974302887915,-0.810688679440692
1761338246460991200,2.8069912109375,2.9188708464264868,2.5540356637597084,0.04373299620458856
1761338246471057200,2.81705712890625,3.992752124071121,3.161276750254631,0.7049727811243385
1761338246481122300,2.827122314453125,4.536525823783874,3.7646503476664424,1.3654364123061298
1761338246491188200,2.837188232421875,4.7948728085875505,3.8728871427625418,1.8641563338056206
1761338246501254100,2.847254150390625,4.861356328320503,3.3379233569711446,2.11217087129578
1761338246511319000,2.857319091796875,4.784023497793078,2.393364770940691,1.8432032698869705
1761338246521385200,2.86738525390625,4.484230403879285,1.5863485694676636,1.0061586445707826
1761338246531450400,2.877450439453125,3.9303485671281813,1.0205474546030162,-0.054006461606174706
1761338246541516300,2.887516357421875,3.2644384340435266,0.485501105094701,-0.9100294167019426
1761338246551582200,2.897582275390625,2.2761171325236558,0.12963351112902163,-1.7526330643847583
1761338246561647000,2.907647216796875,0.8977584025412797,0.14827018786408006,-2.554353059145808
1761338246571713300,2.91771337890625,-0.5301192683696746,0.36091099496036766,-3.013283991092443
1761338246581778200,2.927778076171875,-1.7978274201124906,0.49049138766266404,-2.9667259457960724
1761338246591844000,2.937843994140625,-2.9074294149577615,0.6354163567520678,-2.4603537559777497
1761338246601910000,2.947909912109375,-4.012542866212129,0.7662457996673881,-1.7649967252649366
1761338246611975200,2.95797509765625,-4.469471810686588,1.006925391159579,-1.0830198389984667
1761338246622041300,2.968041259765625,-4.108223254334926,1.3141408170938491,-0.4337278093680739
1761338246632106200,2.978106201171875,-3.126591221320629,1.6013050233200192,0.19949231598135084
1761338246642172200,2.988172119140625,-1.8627111034333705,1.7781205568626521,0.7998485018007456
1761338246652238000,2.998238037109375,-0.573036034554243,1.6648023668490348,1.371106713027507
1761338246662303200,3.00830322265625,0.5031821616053581,1.3900830700457096,1.6800652563020586
1761338246672369200,3.018369140625,1.3765677549123763,1.2696828128166495,1.7235016624465584
1761338246682434000,3.02843408203125,2.0380963119119406,1.2167430305939166,1.6576725149691105
1761338246692500200,3.038500244140625,2.4421400538951157,1.0212534109152853,1.4618240719154476
1761338246702566100,3.048566162109375,2.458420742088556,0.7109137885458767,1.0507022813048212
1761338246712631300,3.05863134765625,2.0334096154004335,0.3776042094774544,0.48006132519356903
1761338246722697200,3.068697265625,1.4735019424885512,0.010689078731462359,-0.0896055434548296
1761338246732762000,3.07876220703125,0.9517997893303632,-0.242973912974447,-0.5332223489515483
1761338246742828000,3.088828125,0.40919922505021095,-0.36126006412636485,-0.8998086130693554
1761338246752894200,3.098894287109375,0.0007265607088804244,-0.4698829724632203,-1.159827768868953
1761338246762959400,3.10895947265625,-0.2239209835886955,-0.5241072050059213,-1.2911224912084638
1761338246773025300,3.119025390625,-0.3314700886815786,-0.5358401302345097,-1.3227831193633377
1761338246783091000,3.129091064453125,-0.39994390544891356,-0.5007992850568145,-1.2236824014030396
1761338246793156000,3.139156005859375,-0.34192601624429225,-0.29456428988222033,-1.0020034976527095
1761338246803222300,3.14922216796875,-0.30525837358236313,-0.24560090047717092,-0.6176770672481506
1761338246813287200,3.159287109375,-0.48274435373246666,-0.416527850905247,-0.27099145365292204
1761338246823353300,3.169353271484375,-0.6826911720156669,-0.5014825911458581,-0.0843638616753742
1761338246833419000,3.1794189453125,-0.8523702778071165,-0.6460610118199139,-0.052240146053396164
1761338246843484400,3.189484375,-1.0815502048373222,-0.8763909126028419,-0.19966515179760752
1761338246853550000,3.199550048828125,-1.1481512134701013,-0.9737802966006099,-0.39372714982591567
1761338246863615200,3.209615234375,-1.0419085148006677,-1.0519008434396238,-0.5606739080440253
1761338246873681400,3.219681396484375,-0.8911053743928671,-1.1649994724184274,-0.6661647654328495
1761338246883747300,3.229747314453125,-0.8467039226084947,-1.2771185157753526,-0.7579748879935592
1761338246893812500,3.2398125,-0.7310153502017259,-1.280139324901253,-0.7048121106699109
1761338246903878100,3.249878173828125,-0.5480757808208465,-1.1059919876545667,-0.39729412159249183
1761338246913943300,3.259943359375,-0.4635106609523296,-0.8577787857871502,0.028400018923729658
1761338246924009200,3.27000927734375,-0.428345239546895,-0.5614161047134548,0.4483698635090142
1761338246934075400,3.280075439453125,-0.49567339341044425,-0.3751388788098469,0.6342104880936443
1761338246944140300,3.290140380859375,-0.6379460213601589,-0.3903159166103229,0.513962206555903
1761338246954206200,3.300206298828125,-0.8552589849859475,-0.4838846098087728,0.08199534244574606
1761338246964271400,3.310271240234375,-1.0752367839068173,-0.633315512015298,-0.5844339191421866
1761338246974337300,3.320337158203125,-1.0878063426226376,-0.7922408032760023,-1.2251865223556757
1761338246984403500,3.330403564453125,-0.9179553873956203,-0.7325793115828186,-1.4862021418467164
1761338246994468000,3.340468017578125,-0.597605827665329,-0.5439332011234015,-1.4888710687950253
1761338247004534300,3.3505341796875,-0.24081132811307907,-0.08696640885658562,-1.1670521671645342
1761338247014599400,3.360599365234375,-0.0905658215880394,0.4633298244927078,-0.5081909296780824
1761338247024665300,3.370665283203125,-0.36238895855844017,0.7493051131952554,0.2735045872513205
1761338247034731300,3.380731201171875,-1.1501233903259038,1.1973187106125056,0.643091932881251
1761338247044796200,3.390796142578125,-2.221703405290842,1.5645789284691214,0.5095720818381756
1761338247054862300,3.4008623046875,-3.371849007448554,1.66100224391371,0.25390681039914487
1761338247064928300,3.41092822265625,-4.019656497609615,1.9460383520700035,-0.07828413990288972
1761338247074993400,3.420993408203125,-3.9811663156956434,2.383690787535906,-0.19479473274964837
1761338247085059300,3.431059326171875,-3.2294507072925565,2.7853955651775,-0.04021674997825175
1761338247095124200,3.441124267578125,-1.9175135377228258,3.1888550775319335,0.3000805325530469
1761338247105190400,3.4511904296875,-0.553226003190875,3.5459050131499765,0.7783969137754291
1761338247115256300,3.46125634765625,0.6482295149654149,3.734340549598634,1.384892223404348
1761338247125321500,3.471321533203125,1.7080144627183675,3.6988632857650514,1.8157530990339814
1761338247135387400,3.481387451171875,2.6459382869094608,3.346310953827202,1.8881353214167058
1761338247145452300,3.491452392578125,3.328203342467546,2.684737973164022,1.496352072200179
1761338247155518200,3.501518310546875,3.822585527023673,1.933531775587797,0.6397602311752736
1761338247165584400,3.51158447265625,4.2665719878166914,1.0823801528554409,-0.5014443049620837
1761338247175649300,3.521649169921875,4.533398631674051,-0.16398030962795018,-1.717951919364929
1761338247185715200,3.531715087890625,4.650249233597517,-1.329644967956841,-3.094666097010672
1761338247195780400,3.5417802734375,4.635400624033808,-1.8651723789803683,-4.2516906450271605
1761338247205846300,3.55184619140625,4.27446420237124,-1.673311398127675,-4.744698910881579
1761338247215912400,3.561912353515625,3.3198400032699107,-1.0647919622600077,-4.098556431323289
1761338247225977300,3.571977294921875,1.9807061992168424,-0.5500296183023602,-2.8151243484869597
1761338247236043300,3.582043212890625,0.20935645166337488,-0.11158508261069655,-1.5499457152217626
1761338247246108400,3.5921083984375,-2.0079788215458394,0.41235469340644776,-0.8442219695996492
1761338247256174300,3.60217431640625,-3.963469330963492,0.7901722533736377,-0.4656100443843752
1761338247266240300,3.612240234375,-5.318250201481581,0.8421049774456769,-0.1390164756979793
1761338247276305200,3.62230517578125,-5.717222047027946,0.8965317833557724,0.08561908590085804
1761338247286371300,3.632371337890625,-5.320195490330457,1.1241551285937428,0.3379753058571368
1761338247296436200,3.642436279296875,-4.282328944396973,1.4294149634808302,0.6438781148228794
1761338247306502400,3.65250244140625,-2.8460709831535813,1.7003303379565475,0.8791029480405151
1761338247316568300,3.662568359375,-1.287691201585531,1.6889720547266303,0.9950991981569677
1761338247326633200,3.67263330078125,0.13216390638947487,1.5171445387296378,0.9145533969324081
1761338247336699100,3.68269921875,1.3708692510098217,1.299244422865659,0.6877258051820099
1761338247346764300,3.692764404296875,2.3439631727814674,1.0311672674905508,0.41527036165744063
1761338247356830500,3.70283056640625,3.1000200252592562,0.6128688267162069,0.08935388851501047
1761338247366896400,3.712896484375,3.5879128477960824,-0.02281962497550994,-0.3039559857469052
1761338247376961300,3.722961181640625,3.8194197564691303,-0.8024741010639816,-0.8057769420016556
1761338247387027200,3.733027099609375,3.6946056283205744,-1.418577343124151,-1.3554166842035948
1761338247397093400,3.74309326171875,3.1489602895170448,-1.7194047485217452,-1.7503315094441174
1761338247407158300,3.753158203125,2.3377602264881134,-1.710363363932073,-1.8906331295818088
1761338247417224400,3.763224365234375,1.4952753828793763,-1.4655021759063005,-1.678698497993499
1761338247427289300,3.773289306640625,0.850937030133605,-1.1816270012881607,-1.2384393871605395
1761338247437355300,3.783355224609375,0.34498891094624995,-0.9196767312955111,-0.7634203669831157
1761338247447421400,3.79342138671875,0.09258943637013435,-0.6608554069783538,-0.3829713625337928
1761338247457486300,3.803486328125,-0.0038888241320848465,-0.6754014533989131,-0.14539470549300312
1761338247467552500,3.813552490234375,0.07347030988037585,-0.8870710043102502,-0.1068698906570673
1761338247477617200,3.8236171875,0.41228725419342516,-1.1862988655567168,-0.2510250444177538
1761338247487683300,3.833683349609375,0.7709820344090461,-1.499676394317299,-0.5252807422973216
1761338247497749200,3.843749267578125,1.02288115824759,-1.8290584246784447,-0.896298047665134
1761338247507814400,3.853814453125,1.1128250485450029,-2.213189113315195,-1.334669225859642
1761338247517880300,3.86388037109375,0.8466291038066148,-2.632845873363316,-1.914963853240013
1761338247527945200,3.8739453125,0.09196692055761814,-2.9395360333144662,-2.4818746829122302
1761338247538011400,3.884011474609375,-0.8182213399678469,-2.9107696652963755,-2.803198932893574
1761338247548077300,3.894077392578125,-1.66220489770174,-2.7095319304198027,-2.673109202429652
1761338247558142500,3.904142578125,-2.2560376365691424,-2.268465594857186,-2.104527370805293
1761338247568208100,3.9142080078125,-2.577822197538614,-1.403436618746072,-1.3351600781165063
1761338247578273300,3.924273193359375,-2.6495143918305635,-0.06665550616583786,-0.31159488312751055
1761338247588339500,3.93433935546875,-2.350440844362974,1.0346450996689498,0.9929960153326391
1761338247598405400,3.9444052734375,-1.778736350673437,1.1562103090241551,1.7837147236078976
1761338247608470300,3.95447021484375,-0.9442723164349793,1.2668328302130103,1.58986154602468
1761338247618536200,3.9645361328125,-0.006485854887962341,1.5855023279018698,0.9678867085173726
1761338247628601300,3.974601318359375,0.3173527160018682,1.685387328107655,0.255876064645499
1761338247638667300,3.984667236328125,-0.4660416407346725,1.6115286034315823,-0.49716735829524694
1761338247648733400,3.9947333984375,-2.082374429577589,1.4992748277790844,-1.4806757796406744
1761338247658798300,4.00479833984375,-3.966586001679301,1.1979989479616284,-2.4852108415976164
1761338247668864300,4.0148642578125,-5.50777207186222,0.05273136363644153,-3.3372833055019377
1761338247678930200,4.02493017578125,-6.2003252972006795,-1.5989805258952081,-4.384636057183147
1761338247688995300,4.034995361328125,-6.035045887672901,-2.3619302066266536,-5.689390037250519
1761338247699061500,4.0450615234375,-5.49369269310534,-1.5622447864331304,-6.4279626709640025
1761338247709126100,4.055126220703125,-4.3695004473716015,-0.02830402946965769,-5.763993735074997
1761338247719192300,4.0651923828125,-2.5653093374460934,1.6286141782671213,-3.937525326889753
1761338247729257500,4.075257568359375,-0.30410218928456306,2.906392473125458,-1.5692559803694486
1761338247739323400,4.085323486328125,2.1797581144869325,4.081228279903531,0.5948920386619866
1761338247749389300,4.095389404296875,3.9439398701071737,4.734924243581295,2.2569623501986262
1761338247759454200,4.1054541015625,5.0614808412581676,4.728828264793753,3.3745044903934
1761338247769520400,4.115520263671875,5.752585621353983,4.329458944362401,3.943916489231586
1761338247779586300,4.12558642578125,6.384435079404711,3.332931540033221,4.409147982627153
1761338247789651500,4.1356513671875,6.773932994163036,1.9841998865514991,4.5735476867109535
1761338247799717400,4.14571728515625,6.580216594702005,0.7739742019623518,4.070761246424913
1761338247809782300,4.1557822265625,5.911560962301492,0.18479264990165828,2.486041739463806
1761338247819848200,4.16584814453125,5.015545604035258,-0.08612550105303525,0.8594068253803998
1761338247829914400,4.175914306640625,3.9194887349396943,-0.40003172986283897,-0.840832765552774
1761338247839979500,4.1859794921875,2.723240722298622,-0.5594931007616222,-2.359661969433725
1761338247850045400,4.19604541015625,1.2557108399569987,-0.4468111628249287,-3.5208319466918705
1761338247860110300,4.2061103515625,-0.5225841966897249,-0.033567557754740115,-4.093519606199861
1761338247870176300,4.21617626953125,-1.999819480487704,0.454783091552183,-3.8656773575142025
1761338247880242400,4.226242431640625,-2.8997920519471165,0.6147208477910607,-2.6705083722814917
1761338247890307300,4.236307373046875,-3.2206530683308836,0.8838516769375652,-1.2261881006136537
1761338247900373500,4.24637353515625,-2.956163342988491,1.2477021594159305,-0.19207316229864954
1761338247910438400,4.2564384765625,-2.4038293202012775,1.3839816844306885,0.3602639292284846
1761338247920504300,4.26650439453125,-1.839826486930251,1.186497164607793,0.8160457494944333
1761338247930570200,4.2765703125,-1.2563234188973902,0.9387573524057865,1.2453911059945821
1761338247940635400,4.286635498046875,-0.7255757894963025,0.6649186378292739,1.5669782446958123
1761338247950701300,4.296701416015625,-0.36608079881370065,0.38622934141643345,1.6919307584017513
1761338247960766200,4.30676611328125,-0.008093874606490135,0.2144272521216422,1.6015547602973876
1761338247970832400,4.316832275390625,0.4780862987935543,0.0064876084536314,1.4116858300447463
1761338247980898300,4.326898193359375,0.8750508961707353,-0.2630395995993167,1.1769257647946476
1761338247990964500,4.336964599609375,1.1368594196051358,-0.41933589406330135,1.0801953561622648
1761338248001029400,4.347029296875,1.3523358154535292,-0.3892846008012071,1.1945634936202316
1761338248011095300,4.35709521484375,1.4582394914269448,-0.40715869566593316,1.3731339810714125
1761338248021161200,4.3671611328125,1.235840602838993,-0.7046184877939522,1.3446791632205246
1761338248031226400,4.377226318359375,0.7626333082586526,-0.9721431238528341,0.9611461482159793
1761338248041292500,4.38729248046875,0.24803017345070838,-1.0065965245313941,0.4815198534388095
1761338248051357200,4.397357177734375,-0.029043723654747007,-0.9854102363787591,0.1817089316073805
1761338248061423400,4.40742333984375,-0.14476561380922792,-1.0679719805356114,0.05908792958892881
1761338248071489300,4.4174892578125,-0.0945569370508194,-1.1161619378827512,0.06630279287118464
1761338248081554400,4.427554443359375,0.037138182783126826,-1.0970819743596016,0.1063102474803105
1761338248091620400,4.437620361328125,-0.06350713427066802,-1.1217111695077269,0.011031170167401433
1761338248101685200,4.447685302734375,-0.2681073313176632,-1.2123955759741365,-0.20248514112178234
1761338248111751400,4.45775146484375,-0.5172480963587761,-1.4995643122449516,-0.49932767813429235
1761338248121817300,4.4678173828125,-0.6222896025449037,-1.9340501003734767,-1.0108992632266134
1761338248131882500,4.477882568359375,-0.5483300478428602,-2.3819107722513375,-1.5253887815922498
1761338248141948400,4.487948486328125,-0.49484454137086864,-2.6901976998746395,-1.8756670311182737
1761338248152013300,4.498013427734375,-0.4655933124452829,-2.9109318701207636,-2.1833543854132293
1761338248162079200,4.508079345703125,-0.377359733197093,-2.9114187768548727,-2.427592911496013
1761338248172145400,4.5181455078125,-0.4009013523042202,-2.56171628139019,-2.3751684583842754
1761338248182210600,4.52821044921875,-0.4052051869779825,-2.243543335046619,-1.9241849783107636
1761338248192276200,4.538276123046875,-0.727965899503231,-2.0884544801436364,-1.342224171283841
1761338248202341400,4.54834130859375,-1.2051917820751665,-1.867126581788063,-0.7375747087173163
1761338248212407300,4.5584072265625,-1.6412281606465577,-1.6277369570411742,-0.16115071222521363
1761338248222473500,4.568473388671875,-1.9961410842359064,-1.5076258920170367,0.10233911535963415
1761338248232538400,4.578538330078125,-2.082375014099479,-1.3688690171033142,0.05125336350575089
1761338248242604300,4.588604248046875,-1.9589713372707367,-0.5119965690387412,0.12818572347350418
1761338248252670200,4.598670166015625,-1.8073294079512356,0.8681239464517683,0.8394104045994579
1761338248262735400,4.6087353515625,-1.4530688107907772,1.3448581730492413,1.2635326196238397
1761338248272801300,4.61880126953125,-1.1789812360197305,1.1474106242358684,0.6908471520729362
1761338248282866200,4.6288662109375,-1.2012322307944296,0.9956488679289818,0.17715090297684072
1761338248292932400,4.638932373046875,-1.4213736958444119,0.7797999855063855,-0.027107102169515562
1761338248302998300,4.648998291015625,-2.066255069425702,0.5930387389454991,-0.1399880150107201
1761338248313063400,4.6590634765625,-3.223012198677659,0.6897345146559178,-0.4066353659115731
1761338248323129300,4.66912939453125,-4.424527338066697,0.9776084765866399,-0.6001668737923727
1761338248333194200,4.6791943359375,-5.1401072187274695,1.4107248760581015,-0.1718079345136881
1761338248343260400,4.689260498046875,-5.198476990109682,1.853198594200611,0.4432264362059533
1761338248353326300,4.699326416015625,-4.406217189872264,2.3292102786771953,0.9894427067652344
1761338248363391500,4.7093916015625,-3.0125071615010497,2.6494720139935612,1.3086182542800902
1761338248373457400,4.71945751953125,-1.452546832743287,2.7413708377510306,1.3141028231710195
1761338248383522300,4.729522216796875,0.11007423965632915,2.6256004322797057,0.9867831321671604
1761338248393588200,4.739588134765625,1.4995172582328318,2.446423430302739,0.39567324239239093
1761338248403654400,4.749654296875,2.6719892584890124,2.1090523008838296,-0.5202515890236944
1761338248413719300,4.75971923828125,3.624780981466174,1.9069886365771294,-1.2577946604937313
1761338248423785500,4.769785400390625,4.58575133472383,1.7676916634373365,-1.875671707293391
1761338248433850400,4.779850341796875,5.307941573435068,1.4837040414206684,-2.329423336905986
1761338248443916300,4.789916259765625,5.3351691875785585,0.9953633289858699,-2.664504747952521
1761338248453982500,4.799982421875,5.141873643878102,0.5005961637001485,-2.9463386990666387
1761338248464047400,4.81004736328125,4.808336101272702,0.09702018535919486,-3.167135120894015
1761338248474113500,4.820113525390625,4.263823565891385,-0.1554838455699384,-3.1883816148012873
1761338248484178400,4.830178466796875,3.412903486892581,-0.22625286060236394,-2.973597292870283
1761338248494244400,4.840244384765625,2.3061165494680402,-0.015277721695974468,-2.7002240038484335
1761338248504310300,4.850310302734375,1.2039409052312373,0.3246643541894853,-2.306043191970885
1761338248514375400,4.86037548828125,-0.003026654344797134,0.607100508980453,-1.684232605114579
1761338248524441300,4.87044140625,-1.3570786260664462,0.8603267897695303,-0.9416461326498538
1761338248534507300,4.88050732421875,-2.1956272992700336,1.134460103378445,-0.05118037133477628
1761338248544572400,4.890572509765625,-2.452491936561465,1.293416885755956,0.6649199530035257
1761338248554638300,4.900638427734375,-2.2133394815713165,1.290526132750511,1.103991023095697
1761338248564703500,4.910703369140625,-1.5847317819207907,1.1519655841264873,1.2661943861790002
1761338248574769200,4.92076904296875,-0.7222890229105949,0.7627684789456427,0.9431396591432392
1761338248584835300,4.93083544921875,0.027760698106884956,0.45696470990758387,0.5771395974155515
1761338248594900500,4.940900390625,0.8559913909137249,0.7483825915228575,0.7227164545424282
1761338248604966400,4.95096630859375,1.360495741033554,0.0742827587744221,-0.061554100506752724
1761338248615031300,4.96103125,1.9838719697713851,-0.4559557885933667,-0.392923907151632
1761338248625097200,4.97109716796875,2.2550077089995146,-0.42968215070646254,-0.7302212041493504
1761338248635163400,4.981163330078125,2.107174524313211,-0.4748965263089165,-1.0724944994613528
1761338248645228300,4.991228271484375,1.750442568603158,-0.43262291686609383,-1.345334996780753
1761338248655294500,5.00129443359375,0.9562778115272521,-0.4895051165716722,-1.6983520236209033
1761338248665359400,5.011359375,0.20337620820999144,-0.9487729888550936,-2.1646599140763283
1761338248675425300,5.02142529296875,0.006555997514724731,-1.3474106340110301,-2.679148190332949
1761338248685491200,5.0314912109375,0.15885142230689525,-1.5934138316787778,-2.9612779095232487
1761338248695556400,5.041556396484375,0.17726970705091952,-1.6821398706190287,-2.8329353149875995
1761338248705622500,5.05162255859375,0.041001872473955155,-1.43682392456308,-2.363081276357919
1761338248715687200,5.061687255859375,-0.05974515138864517,-1.2520853429362178,-1.7774182538121939
1761338248725753300,5.07175341796875,0.10025894808471202,-1.23211179157421,-1.2654375764623285
1761338248735819300,5.0818193359375,0.30350246982574464,-1.3724386922836302,-0.9101105191141367
1761338248745884400,5.091884521484375,0.4427373375147581,-1.6034693617470561,-0.6732297353830188
1761338248755950300,5.101950439453125,0.48301674093306063,-1.785363513728231,-0.6648521484643221
1761338248766015200,5.11201513671875,0.35617023017406463,-1.9994827958792447,-0.8674369140356779
1761338248776081400,5.122081298828125,-0.09161445385813713,-2.1462799155160783,-1.1340557603612542
1761338248786147300,5.132147216796875,-0.8990589637458324,-2.229069111753255,-1.325252578216791
1761338248796212500,5.14221240234375,-1.478543443787098,-2.1353581240072845,-1.360010149473697
1761338248806278400,5.1522783203125,-1.7379565965175627,-2.0949005875431,-1.3955498110190032
1761338248816343300,5.16234326171875,-1.887393709269166,-1.960204240066558,-1.4127575509294867
1761338248826409200,5.1724091796875,-2.025357241848111,-1.1231235935889183,-1.228781331977248
1761338248836475400,5.182475341796875,-2.1000240680366753,0.05612992003355175,-0.49472895216718316
1761338248846540300,5.192540283203125,-1.8077695529341697,0.7274263857990503,0.29223332618400455
1761338248856606200,5.202606201171875,-1.1712100174963473,1.7140268548756836,0.8155066011164337
1761338248866671000,5.212671142578125,-0.7293167295902967,1.9343502523638307,0.9472196219332516
1761338248876737000,5.222737060546875,-0.680255469301343,1.6275919956125318,0.8224556165367365
1761338248886803200,5.23280322265625,-1.006318145981431,1.3315718443661928,0.1159431316897273
1761338248896868400,5.242868408203125,-1.652669592115283,0.7324751936212182,-0.6621782530799508
1761338248906934300,5.252934326171875,-2.4542332272708416,0.4380617834517732,-1.2269031170152127
1761338248917000200,5.263000244140625,-3.223582692041993,0.6342310924902558,-1.0846969784304499
1761338248927065000,5.273065185546875,-3.4673031856000422,1.098731349001825,-0.2680277998080477
1761338248937131300,5.28313134765625,-3.017652123174071,1.4912062337443233,0.7047291085615753
1761338248947196200,5.293196044921875,-2.2374247060358523,1.87520759691298,1.4982025223724542
1761338248957262300,5.303262451171875,-1.430353121113777,2.140013694728166,2.1281015770077705
1761338248967328000,5.313327880859375,-0.704750443610549,2.312159044502675,2.6128847430914637
1761338248977393200,5.32339306640625,0.17585984025299548,2.459533964027464,2.93996711820811
1761338248987459000,5.333458984375,1.0818336979538201,2.3989383332893253,3.1275349319115278
1761338248997524200,5.343524169921875,1.7886252920031547,2.127110227882862,3.0368638963833448
1761338249007590400,5.35359033203125,2.29654967969954,1.7394900896951555,2.4969863273262978
1761338249017656000,5.363656005859375,2.5987895822435614,1.2307950098872185,1.6673580426812171
1761338249027721200,5.37372119140625,2.757682505604625,0.6945842197094112,0.8099836729764938
1761338249037787100,5.383787109375,2.7753461725890634,0.028340251560509202,-0.06686470107026397
1761338249047852300,5.393852294921875,2.6476193718641996,-0.8540558928065002,-1.1868954432103782
1761338249057918000,5.40391796875,2.1720471017181873,-1.2801057148925958,-2.326853778678924
1761338249067984100,5.413984130859375,1.4305688096910714,-1.337977912016213,-2.9814310552358627
1761338249078049300,5.42404931640625,0.6749041714012622,-1.0555983097180723,-2.7140529149755834
1761338249088115200,5.434115234375,0.022298341047763823,-0.6300459157600998,-1.6891186235904692
1761338249098180400,5.444180419921875,-0.283479087972641,-0.2137648426901549,-0.41653380572199816
1761338249108246000,5.45424609375,-0.45327451362013815,0.1911758116001263,0.5780097678462043
1761338249118312200,5.464312255859375,-0.7774503536403179,0.44481765092015263,1.1729703782323748
1761338249128377000,5.474377197265625,-0.9957669413506984,0.6302309900034219,1.4701573082357644
1761338249138443300,5.484443359375,-0.9931845236420631,0.7244570145994425,1.6076706128291784
1761338249148508200,5.494508056640625,-0.7317471716076135,0.6274211202144623,1.6177037849351763
1761338249158574000,5.504573974609375,-0.3315712109684944,0.4579844448767602,1.5773286660574375
1761338249168640300,5.51464013671875,0.18289689928293226,0.34727417233921587,1.569339713130146
1761338249178705200,5.524705078125,0.7999018394231796,0.2708740926172584,1.6036553858384488
1761338249188771300,5.534771240234375,1.294398005747795,0.16327734899036586,1.5987518317058682
1761338249198837200,5.544837158203125,1.5951614059984682,0.07474982829689979,1.6068863305836916
1761338249208902100,5.554902099609375,1.855557724547386,0.047261626988463104,1.6117128739573061
1761338249218968000,5.564968017578125,2.027274473646283,-0.018932773604802788,1.5310788099274037
1761338249229033200,5.575033203125,1.9489508785158394,-0.14736637089215218,1.367419841208309
1761338249239099400,5.585099365234375,1.7982728257924316,-0.3266324028594419,1.0981479961559175
1761338249249165300,5.595165283203125,1.6753391045629977,-0.5035067539172247,0.7168931552164256
1761338249259230200,5.605230224609375,1.5314660556793211,-0.7123439674794674,0.3822946323160082
1761338249269296000,5.615296142578125,1.316839554658532,-0.8994921675313263,0.2698086918754503
1761338249279361300,5.625361328125,0.9765250652641058,-0.9852084301963447,0.329402232898958
1761338249289427200,5.63542724609375,0.48775195276141164,-0.9441476671420037,0.4894510117642581
1761338249299493000,5.6454931640625,-0.1588748031824827,-0.8107716084837913,0.6564125291600823
1761338249309558300,5.655558349609375,-0.6311603067427873,-0.7157079640198498,0.7049450893998146
1761338249319624200,5.665624267578125,-0.7749485999524592,-0.8212612921856344,0.5533167136816307
1761338249329689300,5.675689453125,-0.8411924657106399,-1.26612015189901,0.036428975067846474
1761338249339755300,5.68575537109375,-0.78162383993268,-1.7091151174366472,-0.625984511540085
1761338249349821200,5.6958212890625,-0.9071417324364185,-1.9646679414771495,-1.2739227884739637
1761338249359886000,5.705885986328125,-1.2275620193153618,-2.102621098792553,-1.7943664660036562
1761338249369952300,5.7159521484375,-1.6132739857941865,-2.0759232076115905,-2.0510367497667668
1761338249380017400,5.726017333984375,-1.8547873246967792,-1.8915270096816121,-2.1175097481057046
1761338249390083000,5.7360830078125,-1.8105507080852985,-1.532925022315979,-1.8821046629503368
1761338249400149000,5.74614892578125,-1.4434019877791404,-1.1554878399685025,-1.2231233062155544
1761338249410214100,5.756214111328125,-1.0957950032889843,-0.9498792695965618,-0.544422372879833
1761338249420280300,5.7662802734375,-0.9023638505101204,-0.8578994164921343,-0.32948015697337685
1761338249430345200,5.77634521484375,-1.088302017185092,-0.6531705515641719,-0.14026771786808967
1761338249440411100,5.7864111328125,-1.2583873656898736,-0.5239873414859175,-0.10342442637830972
1761338249450477000,5.79647705078125,-1.2429039653539657,-0.48673689396735276,-0.36219577407389875
1761338249460542200,5.806542236328125,-1.2339116806030272,-0.536626604437083,-0.5324252072244883
1761338249470608100,5.816608154296875,-1.1821166114360093,-0.6167661629483103,-0.6024887774012982
1761338249480673000,5.826673095703125,-0.9043401190191507,-0.12821246534995734,-0.3796333772175014
1761338249490739200,5.8367392578125,-0.41441491387188434,0.7564853800881653,0.0702362233299762
1761338249500805000,5.84680517578125,0.3491127128779888,1.0554915614079683,0.5368193505302071
1761338249510870300,5.856870361328125,0.987310078650713,1.285890728034824,0.618386603756994
1761338249520936200,5.866936279296875,1.0190443565636873,1.599251890182495,0.5974118394631892
1761338249531001000,5.8770009765625,0.5163035089850425,1.4874921816572546,0.9013290275696665
1761338249541067000,5.88706689453125,-0.3971878847390413,1.5780175251044333,1.0455462867811323
1761338249551133200,5.89713330078125,-1.6068547664016484,2.1509297871485353,0.9506491579905152
1761338249561198300,5.9071982421875,-2.7839550109803675,2.867077823086083,1.0090125726971775
1761338249571264300,5.91726416015625,-3.4923704068392514,3.408585915954411,1.380540750196576
1761338249581329200,5.9273291015625,-3.5625019276857373,3.5331107057675717,1.5212807617515325
1761338249591395000,5.93739501953125,-2.7442718198895455,3.482566805705428,1.1787865171652288
1761338249601461200,5.947461181640625,-1.3008446976691483,3.2969790599033235,0.7892655868574976
1761338249611526100,5.957526123046875,0.2278337731182575,2.787280940532684,0.49791733641233293
1761338249621592300,5.96759228515625,1.5602683717936277,2.3408365651935337,0.023894341534934936
1761338249631657200,5.9776572265625,2.579443661260605,1.9293470372490584,-0.7934430917378514
1761338249641723100,5.98772314453125,3.078533585116267,1.422431826595217,-1.6598016359522938
1761338249651789300,5.997789306640625,3.20892931278944,0.9908929055735468,-2.302128648875654
1761338249661854200,6.007854248046875,3.077397859084606,0.8197410968810319,-2.5598113245517014
1761338249671920400,6.01792041015625,2.8007284511268136,0.8254469073072075,-2.4737112502008674
1761338249681986000,6.027986083984375,2.3476456606864926,0.886382291393727,-2.019949099194258
1761338249692051200,6.03805126953125,1.5296774186968802,0.9746171127509325,-1.5270508695855736
1761338249702117000,6.0481171875,0.5627548790365458,1.1757339977268129,-1.1862640865042804
1761338249712182300,6.058182373046875,-0.2914484594166279,1.584117157153785,-0.8407216333284974
1761338249722248200,6.068248291015625,-0.8244733860999345,1.8577343379341065,-0.4817028818555176
1761338249732314000,6.078314208984375,-0.9718950673758983,1.932313924230635,-0.09379442824572325
1761338249742379300,6.088379150390625,-1.016685810738802,1.9638089865602553,0.2657317978253588
1761338249752445200,6.098445068359375,-1.1488619920879601,1.9395181565210222,0.38390688981823623
1761338249762510300,6.10851025390625,-1.4402163434803485,1.9176665363274514,0.40826567052714524
1761338249772576000,6.118575927734375,-1.8744635005474088,1.9320805538661776,0.4525330476030707
1761338249782642200,6.12864208984375,-2.2697639641046523,2.018028652525693,0.3760074418053031
1761338249792707300,6.138707275390625,-2.4587282006025313,1.9800294689990579,0.1322201666213572
1761338249802773200,6.148773193359375,-2.639268892148137,1.689049942268431,-0.30997612281925974
1761338249812838100,6.158838134765625,-2.4485323852807284,1.3420762872457503,-0.8348470422066747
1761338249822904000,6.168904052734375,-1.8512527208298444,1.1078561740912496,-1.3129986613214015
1761338249832970200,6.17897021484375,-1.0246142656505108,1.044396605289355,-1.7684242154955863
1761338249843036000,6.189035888671875,-0.1731973430454731,1.0053549269724638,-1.9642673978522418
1761338249853102000,6.19910205078125,0.6967185283243655,0.9525398671079427,-1.9534576884157955
1761338249863166700,6.209166748046875,1.4708581499814986,0.9566913607642054,-1.8728493433490394
1761338249873233000,6.21923291015625,2.0293495263546704,0.9237282717086375,-1.753642533688247
1761338249883298800,6.229298828125,2.295979186335206,0.8673981894604861,-1.7184738974124192
1761338249893364000,6.239364013671875,2.4271920756101606,0.8987238135073333,-1.7945616963148117
1761338249903429600,6.2494296875,2.4536416911184786,0.892720700635016,-1.8389971964992582
1761338249913494800,6.259494873046875,2.323933945709467,0.8329838786832988,-1.8059025900185106
1761338249923561000,6.26956103515625,2.187885891363025,0.777157873499766,-1.727910272669047
1761338249933627000,6.279626953125,2.04943662109375,0.6646835138991475,-1.721813709359616
1761338249943692000,6.289692138671875,1.9941846894711255,0.4500573782045394,-1.7695687093555925
1761338249953757700,6.2997578125,2.0917454845130443,0.2735712227467447,-1.7550794346235692
1761338249963822800,6.30982275390625,2.2385078250974417,0.17335918254368007,-1.5407203523673116
1761338249973888800,6.319888671875,2.169845207759738,-0.06416643842961639,-1.2546433568559587
1761338249983955000,6.329954833984375,1.8528905511647462,-0.39477742606382815,-1.145431506182626
1761338249994019800,6.340019775390625,1.3292016081035136,-0.5753886986276134,-1.1294544040456413
1761338250004085800,6.350085693359375,0.7003273664712906,-0.5190757136447355,-1.1535571641668676
1761338250014151000,6.36015087890625,0.0996890392422676,-0.4488680953547358,-1.2313089507587254
1761338250024216800,6.370216796875,-0.7010363915234804,-0.34081670329552144,-1.0950819596488028
1761338250034283000,6.380282958984375,-1.6671768408954142,0.03359791636038571,-0.7515751039538532
1761338250044347600,6.39034765625,-2.410859364968538,0.3788722201192751,-0.40005649897791445
1761338250054413800,6.400413818359375,-2.7210335676431656,0.4200753873189911,-0.1671613508168608
1761338250064479000,6.41047900390625,-2.709316241842508,0.424056419779174,-0.13447284091897307
1761338250074545000,6.420544921875,-2.4370780943304298,0.3461261713478714,-0.3247122849844396
1761338250084610800,6.43061083984375,-1.894508509710431,0.5311432776551693,-0.4222111937712878
1761338250094675700,6.44067578125,-1.3310036890894175,1.1037318607028572,-0.158049019882828
1761338250104742000,6.450741943359375,-0.872490690293908,1.703442332497239,0.2944267080424353
1761338250114807800,6.460807861328125,-0.6066530574738979,1.7900471414998174,0.31143227644432336
1761338250124873000,6.470873046875,-0.3683791388839483,1.819781477767229,-0.2844450834605843
1761338250134939000,6.48093896484375,-0.24667525171041488,1.69230178367123,-0.9930392699524759
1761338250145003800,6.491003662109375,-0.34079262830018997,1.2304609556272625,-1.5995931048355996
1761338250155070000,6.501070068359375,-0.7529986339509487,0.6059392101161182,-2.0014476662114262
1761338250165136000,6.511135986328125,-1.6160235767632722,0.2745732759287581,-2.2367022369801997
1761338250175201000,6.521200927734375,-2.74325650536716,0.3362510393477976,-2.5487194371730086
1761338250185266700,6.5312666015625,-3.6597488344728943,0.6091133831728249,-2.7806670753508804
1761338250195331800,6.541331787109375,-3.9219033948659896,1.0776420184176414,-2.5803026161774993
1761338250205397800,6.551397705078125,-3.270946500763297,1.6583176810048519,-2.0279642094761132
1761338250215464000,6.5614638671875,-1.8563193565696476,2.0603164731569588,-1.3228215516775845
1761338250225528800,6.57152880859375,-0.16212883654236793,2.1670485627785325,-0.7128335045620798
1761338250235594800,6.5815947265625,1.4260603923559187,1.972181385847181,-0.24387071568369864
1761338250245660000,6.591659912109375,2.757940864279866,1.7068024565801023,-0.09637757660672068
1761338250255725800,6.601725830078125,3.6815170141667126,1.5741726862445473,-0.07325891388570889
1761338250265792000,6.6117919921875,4.10521472016871,1.6737059504032135,-0.07385877947499975
1761338250275856600,6.621856689453125,4.296878863275051,1.8194925778232514,-0.033317948641534895
1761338250285922800,6.6319228515625,4.181680704733729,1.7231322446122765,0.10364132053200155
1761338250295988000,6.641988037109375,3.722891227084398,1.5253294526204466,0.16704349659085274
1761338250306054000,6.652053955078125,2.8284388803511855,1.3504609614923595,-0.057825554103450846
1761338250316119800,6.662119873046875,1.4572732767432928,1.3188225451692939,-0.6249994460254907
1761338250326184700,6.672184814453125,0.07633622070550918,1.3867974725037813,-1.1914267299644647
1761338250336251000,6.6822509765625,-1.1587316441953182,1.4135685750514269,-1.4286565463289618
1761338250346315800,6.692315673828125,-2.118670900839567,1.5090601626038551,-1.337076579262316
1761338250356382000,6.7023818359375,-2.6225591648876665,1.634959455640614,-0.9813277893707155
1761338250366447900,6.71244775390625,-2.8819927758842705,1.722996635533869,-0.5736850730475038
1761338250376512800,6.7225126953125,-2.8304034584224222,1.8807498873405157,-0.33720527133271094
1761338250386578700,6.73257861328125,-2.593323718053102,1.921288087825477,-0.31409236249905076
1761338250396643800,6.742643798828125,-2.0172394018441437,1.737196279669553,-0.4276586089896038
1761338250406710000,6.7527099609375,-1.1518249335467814,1.4645685483179987,-0.5474118370193988
1761338250416776000,6.76277587890625,-0.28053660477995873,1.2266472425580024,-0.4651072824940085
1761338250426840800,6.7728408203125,0.49527650304734705,1.034193994900584,-0.23295367341525852
1761338250436906800,6.78290673828125,1.1160574545949697,0.8726360901139676,0.04851244903346524
1761338250446972000,6.792971923828125,1.5324106430530546,0.7316160925738513,0.2055280524816364
1761338250457037800,6.803037841796875,1.7703993149608372,0.6188918498653918,0.23355607802150768
1761338250467104000,6.81310400390625,1.8194634978592394,0.557617077756673,0.27154327884940427
1761338250477169000,6.8231689453125,1.6646698265105484,0.5623903565730899,0.39281394397113467
1761338250487234800,6.83323486328125,1.3855916038453577,0.543287706294097,0.49980223684348163
1761338250497300000,6.843300048828125,1.12998836479187,0.45720041835959996,0.4782676101772114
1761338250507366000,6.853365966796875,0.9395207379937172,0.2890027102323249,0.3648039838109165
1761338250517431800,6.863431884765625,0.7709908022373915,0.04721355006303638,0.23618702931329608
1761338250527496700,6.87349658203125,0.7475538125485182,-0.18570110651608557,0.22970555833950637
1761338250537563000,6.88356298828125,0.7013461881250143,-0.3439437127422541,0.3054149523835629
1761338250547628000,6.8936279296875,0.5521019675970077,-0.39520712271798397,0.5111022140149026
1761338250557694000,6.90369384765625,0.2552788294047117,-0.36852994553148744,0.8730565805483609
1761338250567760000,6.913759765625,-0.026824294039607045,-0.3750361856203526,1.1636575562901794
1761338250577824800,6.92382470703125,-0.28485329893529415,-0.4806288594158366,1.2779475139454006
1761338250587891000,6.933890869140625,-0.47384968413710593,-0.6381396442361176,1.2865937617376446
1761338250597955800,6.943955810546875,-0.5060591783463955,-0.7816838995568454,1.272054218123108
1761338250608021800,6.954021728515625,-0.4775485386550426,-0.8930163225807249,1.2185394855566323
1761338250618087700,6.964087646484375,-0.32933424569666386,-1.0535590589754282,1.1328637740977108
1761338250628152800,6.97415283203125,-0.14963292758464813,-1.2560199059061705,1.0195847470507025
1761338250638218800,6.98421875,-0.01812310118973255,-1.5657164080664514,0.8500834820441902
1761338250648285000,6.994284912109375,0.026954642421007154,-1.8849954159557818,0.7194315145876258
1761338250658349800,7.004349853515625,0.0315144976824522,-2.085291778329015,0.6200513220988214
1761338250668415700,7.014415771484375,-0.09962766444385052,-2.1500695170573887,0.5682812777752057
1761338250678481000,7.02448095703125,-0.46205753953456874,-2.13604698305428,0.5121711584206671
1761338250688546800,7.034546875,-0.9418459660708903,-2.096815627384186,0.4672849918592721
1761338250698613000,7.044613037109375,-1.365287066963315,-2.1699653270080685,0.2664191590350121
1761338250708678000,7.054677978515625,-1.5538123275220392,-2.4218970379419624,-0.11939319907836615
1761338250718743800,7.064743896484375,-1.4842308417737482,-2.7146476659983394,-0.5983916442807763
1761338250728809000,7.07480908203125,-1.318253513109684,-2.92910348662734,-0.96395638333112
1761338250738875000,7.084875,-1.1998679567039012,-2.8070848344162105,-1.0628185432951898
1761338250748941000,7.094941162109375,-1.212703472879529,-2.568902101241052,-0.9666499332640319
1761338250759005700,7.105005615234375,-1.3767711685299873,-2.5276111826926466,-0.9590453765444457
1761338250769071900,7.11507177734375,-1.6370833159267901,-2.894168366846442,-1.1965336246494203
1761338250779137000,7.125136962890625,-1.8486153580635785,-2.7862065892994403,-1.5767743931755422
1761338250789203000,7.135202880859375,-1.5458125609397888,-1.1270001427613199,-1.2336346172273158
1761338250799268900,7.145268798828125,-0.9026046735286712,0.34328663707301016,0.21296843161545692
1761338250809333800,7.155333740234375,-0.3151958302289247,0.7547551222294568,1.4675447876498102
1761338250819400000,7.16539990234375,-0.23895079493820665,0.4995611215639859,1.5312304933577776
1761338250829464800,7.17546484375,-0.8308598722666501,-0.028732136954925953,0.7602693556062877
1761338250839531000,7.185531005859375,-1.9040800556540487,-0.3044658349651843,-0.10825535366609693
1761338250849596700,7.1955966796875,-3.0173014100402593,-0.11610460586175322,-0.5353070462711155
1761338250859661800,7.205661865234375,-3.9125907921195027,0.4713010956328362,-0.24296572966799138
1761338250869727700,7.215727783203125,-4.23634226924777,1.3812293169826269,0.5337869970969855
1761338250879793000,7.22579296875,-4.013067182347179,2.342551260156929,1.4029584798403083
1761338250889858800,7.23585888671875,-3.5006507439285515,2.9508900787606835,2.3147698115229605
1761338250899924700,7.2459248046875,-2.6392589552760124,3.1623984477609395,3.053857409021258
1761338250909990000,7.255989990234375,-1.3460837693214416,3.3504318331494924,3.2091762732878326
1761338250920055800,7.266055908203125,-0.028518238475918768,3.1331366974413393,2.8290713330358264
1761338250930120700,7.27612060546875,1.1270143174171448,2.4488214313551784,2.1738671567521988
1761338250940186600,7.2861865234375,2.158802420219779,1.595803503294289,1.4315258181549608
1761338250950252800,7.296252685546875,2.920228690776229,0.827984316830337,0.5704433877125382
1761338250960318000,7.30631787109375,3.3978532172769307,0.3483046844307333,-0.21750994750261304
1761338250970384000,7.3163837890625,3.6047435710877176,0.06896199300992302,-0.8394178572535514
1761338250980448800,7.32644873046875,3.4944296774566173,-0.29565646903309967,-1.3741871433861552
1761338250990514700,7.3365146484375,2.998741086477041,-0.68510298239775,-1.7479599580071865
1761338251000580900,7.346580810546875,2.2253023065656423,-0.8046582401700317,-1.7444513653643428
1761338251010645800,7.356645751953125,1.337966513839364,-0.5691439590191468,-1.3099394198812544
1761338251020712000,7.3667119140625,0.37989831176400185,-0.17813008673992006,-0.612476210669428
1761338251030776800,7.37677685546875,-0.4848223290503025,0.15365074839126316,0.1583488796122372
1761338251040842800,7.3868427734375,-1.1216530826449393,0.44220111174620685,0.9024234717428684
1761338251050909000,7.396908935546875,-1.4950217003792523,0.7895974491603672,1.5166177383765578
1761338251060973800,7.406973876953125,-1.6294722564011812,1.0291570236466825,1.9282224171333013
1761338251071040000,7.4170400390625,-1.5624410396575927,0.9831741478897631,2.228927072934061
1761338251081104600,7.427104736328125,-1.2278344065159559,0.8934882509414106,2.3215534803137183
1761338251091170800,7.4371708984375,-0.8636579800188541,0.7799270459521561,2.2071435495406386
1761338251101236700,7.44723681640625,-0.5002274034529924,0.602043006395176,1.949673347571492
1761338251111302000,7.457302001953125,-0.04833060792684555,0.33869580215141176,1.5803411457464098
1761338251121367800,7.467367919921875,0.3871177416235208,0.00020535897952504454,1.178323941154778
1761338251131432700,7.4774326171875,0.7824497693628072,-0.30873335621654985,0.8028086667805909
1761338251141499000,7.487498779296875,1.148267533326149,-0.5339855518763884,0.454118709359318
1761338251151564800,7.497564697265625,1.3732874180674552,-0.63745911462605,0.1250277708992362
1761338251161630000,7.5076298828125,1.580104122120142,-0.6851867882236838,-0.18268340266272426
1761338251171695600,7.517695556640625,1.8281711204499005,-0.7965943953756243,-0.4072749789893627
1761338251181761800,7.52776171875,2.092228884115815,-0.9723322166841477,-0.5197345063470303
1761338251191827000,7.537826904296875,2.3161785092771052,-1.0519777080681174,-0.46539778987318275
1761338251201892900,7.547892822265625,2.4087626849502324,-1.0903149644427002,-0.2521048755437136
1761338251211957800,7.557957763671875,2.3524410782694813,-1.1140887848705052,0.06756766170784831
1761338251222023700,7.568023681640625,2.153850935292244,-1.163859800864011,0.31339959446191784
1761338251232089900,7.57808984375,1.7319629090607165,-1.1743564988285302,0.3752351422585547
1761338251242154800,7.58815478515625,1.2719570413589476,-1.181113498808071,0.3799076641142368
1761338251252221000,7.598220947265625,0.6429080276817083,-1.463026433442533,0.40138650547266
1761338251262285800,7.608285888671875,-0.09989303738176822,-1.9405340555652975,0.22719328325763344
1761338251272351700,7.618351806640625,-0.8427081309705973,-2.270145364637673,-0.08272957500442862
1761338251282417700,7.628417724609375,-1.5946569636076688,-2.521331371770799,-0.16821107906550167
1761338251292482800,7.63848291015625,-2.279245493677258,-2.7428634143963455,-0.053438306329399346
1761338251302549000,7.648549072265625,-2.846648490780592,-2.7837305545747277,0.0858510680258274
1761338251312613600,7.658613525390625,-3.172051242247224,-2.7110405814170835,0.17662176453620193
1761338251322679800,7.6686796875,-3.1982138575077057,-2.6291215921431776,0.2046031196564436
1761338251332745700,7.678745849609375,-2.932731029474735,-2.4875512672439215,0.33324060548543927
1761338251342811000,7.688810791015625,-2.5720494593560694,-2.1817259074285626,0.653980187446624
1761338251352876800,7.698876708984375,-2.3256015866607425,-1.7775699372425675,0.9815490309059619
1761338251362941700,7.708941650390625,-2.2050381016939875,-1.3923163820557296,1.0942241007104516
1761338251373008000,7.7190078125,-1.9174328737020492,-1.0277444534350186,0.9775910870604216
1761338251383073800,7.72907373046875,-1.478431215584278,-0.6649398998130113,0.6967682126849889
1761338251393139000,7.739138916015625,-0.9897814372003078,-0.5272196014054119,0.43724137044697997
1761338251403204900,7.749204833984375,-0.5025310042202472,-0.34145204205699264,0.33796544205024837
1761338251413269800,7.759269775390625,-0.020771569871902464,0.3295945406006649,0.5261242073841392
1761338251423335700,7.769335693359375,0.7361398536086082,1.0337341223038732,0.7435944073982537
1761338251433401900,7.77940185546875,1.366581198427081,1.5941241719052195,0.7939381087131798
1761338251443467000,7.789467041015625,1.7257681460738181,1.9124676525101065,0.6775711986534297
1761338251453532700,7.79953271484375,1.9554542690604924,2.036855664201081,0.45761846110858023
1761338251463597800,7.809597900390625,1.8772025701224804,1.908246966075152,-0.009439443996548651
1761338251473663700,7.819663818359375,1.3029536526471375,1.4445286537215112,-0.33222594855017956
1761338251483730000,7.82972998046875,0.10149345831573009,1.0746844837862997,-0.4220959698937833
1761338251493794800,7.839794921875,-1.3788035511404275,0.9018018327131867,-0.47973823071904476
1761338251503860700,7.84986083984375,-2.7611370299726725,1.1032529180794954,-0.48213330916203556
1761338251513926000,7.85992578125,-3.804847041237354,1.2583878040812908,-0.2886181313615292
1761338251523991800,7.86999169921875,-4.488650558409095,1.152232345303893,0.0012632248688489198
1761338251534057700,7.8800576171875,-4.401083334115147,1.205259878875315,0.21564685704447328
1761338251544122600,7.89012255859375,-3.3256367068499326,1.467323253853619,0.6313857129964977
1761338251554188800,7.900188720703125,-1.7537573922395706,1.7103386678822337,1.0836636898599565
1761338251564253700,7.910253662109375,-0.07596680287122726,1.98755986450389,1.4203534128859638
1761338251574319900,7.92031982421875,1.576869962504506,2.1562392917335034,1.6554831882312893
1761338251584385800,7.9303857421875,3.022236528354883,2.1322895302169025,2.0071476314187047
1761338251594450700,7.94045068359375,4.086885867273807,1.872946958504617,2.265461298474669
1761338251604515800,7.950515869140625,4.798745850628614,1.5187250859193504,2.400703004874289
1761338251614581800,7.960581787109375,4.880281978064775,1.101383032554388,2.300990000234544
1761338251624648000,7.97064794921875,4.439716139370203,0.8745502531722188,1.8369534157119691
1761338251634712600,7.980712646484375,3.8129847549855707,0.8971697889983653,1.2661768505223094
1761338251644778800,7.99077880859375,3.1139819151163097,0.8626512141291052,0.8538125855699181
1761338251654844700,8.0008447265625,2.2301158443272113,0.7158440114896744,0.5762371686831116
1761338251664909800,8.010909912109375,1.2050637717813253,0.5745280266776681,0.2946847561904229
1761338251674976000,8.02097607421875,0.2981523409694433,0.5004764828432351,0.12843209945000708
1761338251685040600,8.03104052734375,-0.5776046576440333,0.4161253710515797,-0.03703453974556178
1761338251695106800,8.04110693359375,-1.382448629644513,0.4223598084617406,-0.01574515654463321
1761338251705172700,8.0511728515625,-2.044896639576554,0.3326142902806401,0.1415607898859307
1761338251715238000,8.06123779296875,-2.380711479464173,0.37852271256186065,0.2697377089984715
1761338251725303800,8.0713037109375,-2.4744272895157335,0.5451108666006476,0.3968598218284547
1761338251735368700,8.08136865234375,-2.22094235779047,0.6387773576177657,0.6121306851673871
1761338251745435000,8.091434814453125,-1.5940344477951525,0.6383488300073892,0.7673807219814509
1761338251755500800,8.101500732421876,-0.7952233262181282,0.5462844404246657,0.9288255948476493
1761338251765566000,8.11156591796875,-0.05211772525012493,0.3358870283409953,1.0160947860430924
1761338251775632000,8.1216318359375,0.6423655913680791,0.13255224811993538,1.008387864927575
1761338251785696800,8.13169677734375,1.2630208707094193,0.0713116705417633,1.0092506923019886
1761338251795762700,8.1417626953125,1.6986743874430656,0.062482686593756075,1.0493570041757077
1761338251805828900,8.151828857421876,1.8923732512474059,0.055484717465192075,1.2079415191747247
1761338251815894000,8.16189404296875,1.9148317512929438,0.2166177479032427,1.4255823995806276
1761338251825960000,8.1719599609375,1.758060642391443,0.40220205963924527,1.7275629205361007
1761338251836024800,8.18202490234375,1.4385948797583579,0.3769043175797909,1.980005649732053
1761338251846090200,8.19209033203125,0.8783984530329704,0.18818663972150534,1.945065269254148
1761338251856156400,8.202156494140626,0.09912614466249942,0.05647460528537631,1.5797572083786129
1761338251866221300,8.21222119140625,-0.4101794682592153,-0.10301153472848236,1.079691863619536
1761338251876287200,8.222287353515625,-0.5894879876613617,-0.46642753477972,0.6624412879303098
1761338251886352400,8.232352294921874,-0.6168851131528615,-0.9888692907914519,0.35736269136164334
1761338251896418300,8.242418212890625,-0.5767372271597385,-1.6234230393648146,0.03870923149213194
1761338251906484500,8.252484375,-0.5594710350602865,-2.151865168302506,-0.3599108049418777
1761338251916549000,8.262549072265625,-0.7454477801799774,-2.497994335325062,-0.7558323960721492
1761338251926615300,8.272615234375,-1.0610177044183016,-2.660964298866689,-0.9895501857277005
1761338251936680200,8.28268017578125,-1.310323304632306,-2.6746578931763767,-1.1399318858530372
1761338251946746400,8.292746337890625,-1.3204478082835673,-2.5571856522232292,-0.9951628379777073
1761338251956812300,8.302812255859376,-1.0527093102782965,-2.2211969170734287,-0.4458487475335598
1761338251966877200,8.312877197265625,-0.6224883399873972,-1.66629435897246,0.34183614600375295
1761338251976943400,8.322943359375,-0.24262626858055591,-0.9295654534295201,1.281264675669372
1761338251987009300,8.33300927734375,-0.04362871384620666,-0.39229043155368415,2.1732085467129942
1761338251997074400,8.343074462890625,0.03512567391693592,-0.12699611183013768,2.888151883035898
1761338252007140400,8.353140380859376,-0.06353577584326267,-0.0852704916588962,3.1599083845108744
1761338252017206300,8.363206298828125,-0.14054244315624237,-0.030962234094552694,3.2000843275547024
1761338252027271200,8.373271240234375,-0.08364917406737804,-0.04902980570476502,3.0830484321922063
1761338252037337300,8.38333740234375,0.0042097266495227815,-0.060861442067474125,3.0156989432796832
1761338252047403300,8.3934033203125,-0.005609072053432464,0.22121537789180873,3.022593086707592
1761338252057468400,8.403468505859376,-0.08537526720762252,0.319619564955309,2.7714439044535157
1761338252067534300,8.413534423828125,-0.420978510171175,-0.03518171495310962,2.18511525760591
1761338252077599200,8.42359912109375,-0.9894979440838098,-0.4049129990983754,1.1655470963638275
1761338252087665400,8.43366552734375,-1.31098732149899,-0.1794048193834722,0.2608442084468901
1761338252097730300,8.443730224609375,-1.0667343284994364,0.16729637537337838,0.16986885620988904
1761338252107796200,8.453796142578126,-0.7140764903604984,0.11131671399809419,0.589969487567991
1761338252117862100,8.463862060546875,-0.9567664718270301,-0.01965009156130254,1.0473975406710059
1761338252127927300,8.47392724609375,-1.7846920442074536,0.13614303915351628,1.3600216937810181
1761338252137993200,8.4839931640625,-2.5761896279007197,0.8201266621325165,1.5379469421312213
1761338252148059400,8.494059326171875,-3.1983570653706788,1.5684019938886165,1.5748291043266653
1761338252158124300,8.504124267578124,-3.4684342354565856,2.022362882337719,1.8036261695191262
1761338252168190200,8.514190185546875,-3.535508122298121,2.341380462811887,2.130870164938271
1761338252178255400,8.52425537109375,-3.271080940797925,2.4186025264412163,2.466125325116515
1761338252188321300,8.5343212890625,-2.5504893694549797,2.4394205658033488,2.6428677934229374
1761338252198387500,8.544387451171875,-1.4494985510885714,2.4620284111917017,2.5522502416476605
1761338252208452400,8.554452392578124,-0.35485388687849045,2.4315324429020286,2.1752248549714683
1761338252218518300,8.564518310546875,0.6170867732048034,2.2137109452322123,1.6202064154058693
1761338252228583400,8.57458349609375,1.5371505310565232,2.098618585152924,0.9744594379711896
1761338252238649300,8.5846494140625,2.350735443395376,2.009535841729492,0.41617607832551
1761338252248715500,8.594715576171875,3.0397780302643773,1.6774287703186272,-0.016082535272836686
1761338252258780200,8.6047802734375,3.516780625474453,1.1222132007457315,-0.34315804225727914
1761338252268846300,8.614846435546875,3.6181700388938185,0.35031668184027076,-0.6522345858883112
1761338252278911200,8.6249111328125,3.2800802398115394,-0.38199806052222846,-1.052221892087534
1761338252288977400,8.634977294921875,2.531380179837346,-0.8127866746332496,-1.2920175403520464
1761338252299043300,8.645043212890625,1.257862465032935,-0.8167438147611915,-1.344990421126783
1761338252309108200,8.655108154296874,-0.4648614910393953,-0.5931584928676485,-1.146389099168405
1761338252319174400,8.66517431640625,-1.8542630085617302,-0.34091464724466203,-0.7120552867311983
1761338252329239300,8.6752392578125,-2.7497897065281864,-0.2242052073575556,-0.16452040785402058
1761338252339305500,8.685305419921875,-3.424612044864893,-0.11074128873031586,0.5031779238216578
1761338252349371100,8.69537109375,-3.6781022372871637,0.17405973202846944,1.1123744552332908
1761338252359436300,8.705436279296874,-3.6405958057135344,0.4969212745796889,1.4708476285874843
1761338252369502200,8.715502197265625,-3.1604455601274966,0.7126916849385947,1.6260659550890326
1761338252379567400,8.7255673828125,-2.3982792848587033,0.8527120039168745,1.6674847378008066
1761338252389633500,8.735633544921875,-1.5380308210223912,0.9903971579458564,1.5721414726778864
1761338252399699200,8.74569921875,-0.6429162109881639,1.0541656465664506,1.4194339599534869
1761338252409764400,8.755764404296874,0.22856267191469667,1.1483033352918923,1.3223023501090705
1761338252419830300,8.765830322265625,0.9641682725161314,1.2445265981197355,1.2558245294645427
1761338252429895400,8.7758955078125,1.4718302098840474,1.280548636354506,1.147599717067182
1761338252439961000,8.785961181640625,1.7703297568559646,1.2841036984875798,0.9832862299621105
1761338252450027300,8.79602734375,1.8716034349411725,1.245191053377837,0.7930058693643659
1761338252460092400,8.806092529296874,1.8758599233418702,1.2735010559305548,0.61944298094213
1761338252470158300,8.816158447265625,1.866580053821206,1.2380465884506702,0.5367147941771895
1761338252480224300,8.826224365234374,1.8636755645513534,1.1166419034194202,0.43901444453410804
1761338252490289200,8.8362890625,1.8408476466715336,1.0001629843525588,0.33697438518628475
1761338252500355300,8.846355224609376,1.788835719883442,0.866164336816594,0.2614619019538164
1761338252510420200,8.856420166015624,1.5792489665955305,0.7099930935043841,0.17588921247795222
1761338252520486400,8.866486328125,1.205974456885457,0.5860938151784241,0.12474245115183293
1761338252530552300,8.87655224609375,0.6963496950119733,0.5414480332441628,0.11479556908980011
1761338252540617200,8.8866171875,0.35597967603802677,0.6203381031509488,0.11199643989056349
1761338252550683100,8.89668310546875,0.24128595988750456,0.6607672172382474,-0.002747106751054525
1761338252560748300,8.906748291015624,0.30537820056974885,0.6147935477010905,-0.08090878931805491
1761338252570814500,8.916814453125,0.4280933106124401,0.43500111723951995,-0.1504766849324107
1761338252580880400,8.92688037109375,0.4882493808895349,0.15147344088479875,-0.1801521306194365
1761338252590945300,8.9369453125,0.46786651807427404,-0.17462160369493065,-0.24037249830439686
1761338252601011200,8.94701123046875,0.3632774318307638,-0.3954494435738772,-0.2718430107146501
1761338252611076400,8.957076416015624,0.196232181674242,-0.4444219296008348,-0.19617577531188726
1761338252621142300,8.967142333984375,0.04176993423700332,-0.3902496829736978,-0.052848962134122844
1761338252631208400,8.97720849609375,0.006481178712844848,-0.39226876771114766,0.06941825801059603
1761338252641273300,8.9872734375,0.11453998689353466,-0.5576463038511574,0.13441533857807517
1761338252651339300,8.99733935546875,0.2068599586725235,-0.9030416036412119,0.0549292755395174
1761338252661404400,9.007404296875,0.22584815225899219,-1.3815300534948707,-0.16754647767692804
1761338252671470300,9.01747021484375,0.03645721478164196,-1.8495146449908613,-0.4549773720152676
1761338252681536300,9.027536376953124,-0.32885084609389303,-2.2111012011252345,-0.7676544974215328
1761338252691601200,9.03760107421875,-0.716479459849,-2.24313665394187,-0.9378126189015805
1761338252701667300,9.047667236328126,-1.1241682803362607,-2.214186307659,-0.9794216634884476
1761338252711732500,9.057732421875,-1.4208639927566051,-2.0716028601944445,-0.9347421254150569
1761338252721798400,9.06779833984375,-1.3511176718354225,-1.7287394169695673,-0.7236440907813608
1761338252731864300,9.0778642578125,-0.9962070863336324,-1.362780344839394,-0.3427477078907192
1761338252741929200,9.08792919921875,-0.6053203475654125,-1.052235701417178,0.26256942480430007
1761338252751995400,9.097995361328126,-0.2405395254343748,-0.9685554746244102,0.8630169056363404
1761338252762060300,9.108060302734375,0.07396715348660945,-0.6198080148622394,0.9720961429059505
1761338252772126200,9.118126220703125,0.2771779420018196,0.3117068921346217,0.7231546998292208
1761338252782192000,9.128192138671874,0.398225411093235,0.9395722489852457,0.6853557150498032
1761338252792257300,9.13825732421875,0.372175024035573,1.1334565523590892,0.7555044062267988
1761338252802323500,9.148323486328126,-0.07967910139262675,1.2030246671691536,0.4683271943885833
1761338252812388400,9.158388427734375,-0.6930763724297284,1.026681281182915,0.13605536087006329
1761338252822454300,9.168454345703125,-1.5092735130935906,0.9969481139592826,0.19918657450042665
1761338252832520200,9.178520263671874,-2.5200375325679776,1.4372053250961005,0.5310612253949046
1761338252842584800,9.188584716796875,-3.558440669596195,1.924992933692783,1.0172134148094802
1761338252852651000,9.198651123046876,-4.106897558689117,2.1448932834632695,1.4979185908645392
1761338252862716000,9.2087158203125,-4.108298657658696,1.9958542301185427,1.7381845600545405
1761338252872782000,9.218781982421875,-3.300428031313419,1.531542920307815,1.6087307894065974
1761338252882848000,9.228847900390624,-2.129678032544255,0.7371852710083127,1.1386305939961223
1761338252892913000,9.238912841796875,-1.0561065515011547,0.03214475841000676,0.47783619649000464
1761338252902978800,9.248978759765626,-0.17712883727550505,-0.06876026902589946,0.08532032214999198
1761338252913045000,9.259044921875,0.6687777974754572,0.3590415112940594,0.11111264279335736
1761338252923110000,9.26910986328125,1.461435072597861,0.892611248911172,0.5875276473738252
1761338252933176000,9.279176025390624,2.1540233692497015,1.2972564639188349,1.1493395464718341
1761338252943241000,9.289240966796875,2.703675021085143,1.5517115558505057,1.4990733138576149
1761338252953307000,9.299306884765626,3.087538144826889,2.026500858925283,1.4050420081160961
1761338252963373000,9.309373046875,3.4034517679363487,2.3753705568276344,1.2827005536913871
1761338252973438000,9.31943798828125,3.7302380827158688,2.308776124066114,1.3197683015868067
1761338252983504000,9.32950390625,3.883765095129609,2.0163377768293023,1.3884592682361603
1761338252993569000,9.339569091796875,3.835407014673948,1.784854687423259,1.4334686227858067
1761338253003635000,9.349635009765626,3.420111226314306,1.5688830554038284,1.3327365042313932
1761338253013700900,9.359700927734375,2.685948225736618,1.2587095833815634,1.023018082500249
1761338253023766000,9.36976611328125,1.6703560554534196,0.936353725330159,0.5416593379072845
1761338253033832000,9.37983203125,0.16807517772614955,0.7041906177707016,-0.07370828335471451
1761338253043896800,9.389896728515625,-1.3974404470711945,0.5677630625873804,-0.5535320734653622
1761338253053963000,9.399962890625,-2.989656447267532,0.46460671256072816,-0.824722392424941
1761338253064029000,9.41002880859375,-4.411777746608853,0.1923558882301673,-0.6690146019060165
1761338253074093800,9.42009375,-4.876401921761036,0.16162994710952042,-0.47643626656420524
1761338253084159700,9.43015966796875,-4.222386809131502,0.24558524625031275,-0.24072752228714525
1761338253094225000,9.440224853515625,-2.772137731936574,0.016736126643628814,0.16251849344708025
1761338253104291000,9.450291015625,-1.1244909364193678,-0.2786576956981793,0.36205789997316895
1761338253114357000,9.46035693359375,0.4262625880539417,-0.33098278008867055,0.5529395874649286
1761338253124422000,9.470421875,1.530052681750059,-0.2947489987993613,0.8930439412400126
1761338253134487800,9.48048779296875,2.201810371819138,-0.0745149600951001,1.369544432146847
1761338253144553000,9.490552978515625,2.5259634154856205,0.13515184529223478,1.8211960207402704
1761338253154619000,9.500618896484376,2.5310265440940856,0.2557128551741131,1.9097835279926656
1761338253164685000,9.51068505859375,2.279309206563234,0.33207386326100674,1.5516921204976737
1761338253174750000,9.52075,1.946146927011013,0.24585986194061113,1.1355787321448325
1761338253184815900,9.53081591796875,1.5424334398955106,0.17344342676103114,0.7824141135275363
1761338253194881000,9.540881103515625,1.1247662462294101,0.10376257229149341,0.49812681444454937
1761338253204947000,9.550947021484374,0.6830693576782941,-0.06202979172710329,0.31359796657823025
1761338253215013000,9.56101318359375,0.39831075128912924,-0.21968013114854693,0.04981441674381494
1761338253225077800,9.571077880859375,0.2136421661585569,-0.48833472108542914,-0.33159850083421916
1761338253235144000,9.58114404296875,-0.2575397600740194,-0.9952603070028125,-0.7977769562236964
1761338253245209000,9.591208984375,-0.7761749268770217,-1.7637522781617938,-1.3198857904866337
1761338253255275000,9.60127490234375,-0.785522016415,-2.0961748452626168,-1.559735872352123
1761338253265341000,9.6113408203125,-0.8247498649537562,-2.0951986937068403,-1.6183616643220184
1761338253275405800,9.62140576171875,-0.9518611641287803,-2.341705164721608,-1.7520349523611365
1761338253285472000,9.631471923828125,-0.998798271870613,-2.581089967162907,-2.0383469256721436
1761338253295537000,9.641536865234375,-1.0957657771945,-2.4253058234721423,-1.8233032221525907
1761338253305603000,9.65160302734375,-1.3485188875138758,-2.08501150008291,-0.9909856253582984
1761338253315668700,9.661668701171875,-1.6930594701707362,-1.736542345805466,-0.14203838080242276
