time,seconds_elapsed,z,y,x
1761338243672817700,0.018817626953125,-0.0795200914144516,0.008216177113354206,-0.18445615470409393
1761338243682882600,0.028882568359375,-0.10807830840349197,0.02988034300506115,-0.13780240714550018
1761338243692948500,0.038948486328125,-0.13279244303703308,0.011770583689212799,-0.09971334040164948
1761338243703014700,0.0490146484375,-0.14965449273586273,-0.0016861828044056892,-0.06538934260606766
1761338243713079800,0.059079833984375,-0.1349485069513321,0.017554355785250664,-0.01224303338676691
1761338243723145500,0.0691455078125,-0.11103679984807968,0.02240050956606865,0.04346763342618942
1761338243733210600,0.079210693359375,-0.09691286087036133,0.019436676055192947,0.10403484106063843
1761338243743276500,0.089276611328125,-0.07425103336572647,0.0038142791017889977,0.14839045703411102
1761338243753342700,0.0993427734375,-0.05118966102600098,-0.011405686847865582,0.1538027971982956
1761338243763407600,0.10940771484375,-0.025239605456590652,-0.024936338886618614,0.12515658140182495
1761338243773473500,0.1194736328125,-0.001472759060561657,-0.04069133475422859,0.08042585849761963
1761338243783539500,0.12953955078125,0.04033947363495827,-0.04946664720773697,0.03759458661079407
1761338243793604600,0.1396044921875,0.09370789676904678,-0.021094661206007004,0.02395494282245636
1761338243803670500,0.14967041015625,0.1486099362373352,0.03737363964319229,0.04259645938873291
1761338243813735400,0.1597353515625,0.19463762640953064,0.09130477905273438,0.09332568198442459
1761338243823801600,0.169801513671875,0.23378658294677734,0.12281476706266403,0.13056643307209015
1761338243833867500,0.179867431640625,0.23700474202632904,0.11330568045377731,0.12010688334703445
1761338243843932400,0.189932373046875,0.2007143646478653,0.09936361759901047,0.06075285002589226
1761338243853998300,0.199998291015625,0.17443695664405823,0.1271076202392578,-0.025069911032915115
1761338243864063500,0.2100634765625,0.16136449575424194,0.13518378138542175,-0.11798490583896637
1761338243874129400,0.22012939453125,0.16781386733055115,0.1047891229391098,-0.17772120237350464
1761338243884195600,0.230195556640625,0.18837694823741913,0.07625997066497803,-0.2007223516702652
1761338243894260500,0.240260498046875,0.20872323215007782,0.05540794879198074,-0.21456599235534668
1761338243904326400,0.250326416015625,0.23281563818454742,0.04026290401816368,-0.24779409170150757
1761338243914391600,0.2603916015625,0.26491579413414,0.052931029349565506,-0.2717902362346649
1761338243924457500,0.27045751953125,0.32352933287620544,0.130944162607193,-0.29273098707199097
1761338243934523600,0.280523681640625,0.36995169520378113,0.20410385727882385,-0.3103552460670471
1761338243944588500,0.290588623046875,0.36932283639907837,0.21737021207809448,-0.3059295415878296
1761338243954654500,0.300654541015625,0.3434552848339081,0.24666602909564972,-0.29697999358177185
1761338243964720400,0.310720458984375,0.29690641164779663,0.3244795799255371,-0.30527758598327637
1761338243974785500,0.32078564453125,0.24652153253555298,0.35027652978897095,-0.35971686244010925
1761338243984851500,0.3308515625,0.19221383333206177,0.3193017840385437,-0.45158281922340393
1761338243994916400,0.340916259765625,0.13517051935195923,0.23328888416290283,-0.5746924877166748
1761338244004982500,0.350982421875,0.08029033988714218,0.12399980425834656,-0.7141435146331787
1761338244015048400,0.36104833984375,0.0274412352591753,-0.010532169602811337,-0.860797643661499
1761338244025113600,0.371113525390625,0.008993913419544697,-0.14653709530830383,-0.973451554775238
1761338244035179300,0.38117919921875,-0.0009114476852118969,-0.15706057846546173,-1.025895595550537
1761338244045244400,0.391244384765625,-0.017073271796107292,-0.07736558467149734,-1.0260993242263794
1761338244055310600,0.401310546875,-0.05568964406847954,0.009305926039814949,-0.9732052087783813
1761338244065376500,0.41137646484375,-0.056511469185352325,0.10876337438821793,-0.8816571831703186
1761338244075441400,0.42144140625,-0.06623733043670654,0.191742941737175,-0.7652514576911926
1761338244085507300,0.43150732421875,-0.15206433832645416,0.23207616806030273,-0.6329820156097412
1761338244095573500,0.441573486328125,-0.2640606164932251,0.2460540235042572,-0.4898104667663574
1761338244105638400,0.451638427734375,-0.3396962285041809,0.21697886288166046,-0.37492600083351135
1761338244115704600,0.46170458984375,-0.3673957586288452,0.09516694396734238,-0.30225953459739685
1761338244125769500,0.47176953125,-0.36332082748413086,-0.030042462050914764,-0.23275889456272125
1761338244135835400,0.48183544921875,-0.3406200408935547,-0.11464017629623413,-0.16396944224834442
1761338244145901600,0.491901611328125,-0.3192389905452728,-0.15943259000778198,-0.09610741585493088
1761338244155966500,0.501966552734375,-0.28322482109069824,-0.1861070692539215,-0.03935013338923454
1761338244166032600,0.51203271484375,-0.229313924908638,-0.19606485962867737,0.011520709842443466
1761338244176097300,0.52209716796875,-0.18388758599758148,-0.19218090176582336,0.06427047401666641
1761338244186163500,0.53216357421875,-0.12910228967666626,-0.23970076441764832,0.09204158186912537
1761338244196229400,0.5422294921875,-0.056665901094675064,-0.3401879668235779,0.09206102043390274
1761338244206294500,0.55229443359375,-0.008036112412810326,-0.4321143329143524,0.06476844102144241
1761338244216360400,0.5623603515625,-0.0058683003298938274,-0.5220577716827393,0.0006800014525651932
1761338244226426400,0.57242626953125,-0.03845711424946785,-0.5670596957206726,-0.04709698259830475
1761338244236491500,0.582491455078125,-0.10001928359270096,-0.5364338755607605,-0.08081472665071487
1761338244246557400,0.592557373046875,-0.21413496136665344,-0.5338089466094971,-0.11243201047182083
1761338244256622600,0.60262255859375,-0.320934921503067,-0.5210720896720886,-0.11223839968442917
1761338244266688500,0.6126884765625,-0.3143627345561981,-0.3932676613330841,-0.1103619709610939
1761338244276754400,0.62275439453125,-0.35943061113357544,-0.2902725636959076,-0.07648975402116776
1761338244286819600,0.632819580078125,-0.43151551485061646,-0.23894162476062775,0.003817356191575527
1761338244296885500,0.642885498046875,-0.4954223036766052,-0.22751747071743011,0.12442392855882645
1761338244306950700,0.65295068359375,-0.6142058968544006,-0.2813250422477722,0.26537778973579407
1761338244317016300,0.663016357421875,-0.8098174929618835,-0.36988234519958496,0.4184184670448303
1761338244327082500,0.67308251953125,-1.0532798767089844,-0.45597004890441895,0.6066614985466003
1761338244337147400,0.6831474609375,-1.0797045230865479,-0.32406288385391235,0.7081446647644043
1761338244347213600,0.693213623046875,-1.0874137878417969,-0.15517908334732056,0.6367024779319763
1761338244357279500,0.703279541015625,-1.0564676523208618,0.09116066247224808,0.36507654190063477
1761338244367344400,0.713344482421875,-0.9508056640625,0.38377663493156433,-0.030953915789723396
1761338244377410300,0.723410400390625,-0.7498200535774231,0.5272725224494934,-0.45047527551651
1761338244387475500,0.733475341796875,-0.4898477792739868,0.45326006412506104,-0.7827187776565552
1761338244397541600,0.743541748046875,-0.30201154947280884,0.24782860279083252,-0.9065485596656799
1761338244407607600,0.753607666015625,-0.16532403230667114,0.05587603151798248,-0.7799020409584045
1761338244417672400,0.76367236328125,-0.03034144639968872,0.0022319816052913666,-0.4544483423233032
1761338244427738400,0.77373828125,-0.06326576322317123,-0.011463210918009281,-0.08235008269548416
1761338244437803500,0.783803466796875,-0.0684509351849556,-0.06315463781356812,0.27718013525009155
1761338244447869400,0.793869384765625,-0.0023091300390660763,0.016370665282011032,0.6238848567008972
1761338244457935600,0.803935546875,-0.060506660491228104,0.01001503225415945,0.8889737725257874
1761338244468000500,0.81400048828125,-0.10137122869491577,-0.0001923227682709694,1.0726145505905151
1761338244478066400,0.82406640625,-0.07607226818799973,-0.001321236602962017,1.2125364542007446
1761338244488132400,0.83413232421875,0.02138192020356655,-0.06134526804089546,1.3038545846939087
1761338244498197500,0.844197509765625,0.1824869066476822,-0.13231424987316132,1.3036857843399048
1761338244508263700,0.854263671875,0.3280557692050934,-0.21157518029212952,1.2329334020614624
1761338244518328300,0.864328369140625,0.5179474353790283,-0.34759482741355896,1.148888111114502
1761338244528394500,0.87439453125,0.6855894923210144,-0.48489055037498474,1.0464352369308472
1761338244538460400,0.88446044921875,0.8037054538726807,-0.5541447401046753,0.9339374303817749
1761338244548525600,0.894525634765625,0.8187144994735718,-0.5077264904975891,0.7999217510223389
1761338244558591500,0.904591552734375,0.796566903591156,-0.4044323265552521,0.6617795825004578
1761338244568656400,0.914656494140625,0.7106506824493408,-0.3239623010158539,0.5001969933509827
1761338244578722600,0.92472265625,0.5103617906570435,-0.27723315358161926,0.3059902489185333
1761338244588788500,0.93478857421875,0.2216477245092392,-0.2074212282896042,0.0867118388414383
1761338244598853600,0.944853515625,-0.07314211130142212,-0.12137208878993988,-0.12432423233985901
1761338244608919300,0.954919189453125,-0.3225920796394348,0.012002936564385891,-0.31599095463752747
1761338244618984400,0.964984375,-0.507933497428894,0.1653035432100296,-0.47283250093460083
1761338244629050400,0.97505029296875,-0.5633938312530518,0.31058183312416077,-0.5768926739692688
1761338244639116500,0.985116455078125,-0.512795627117157,0.417407363653183,-0.6051629185676575
1761338244649181400,0.995181396484375,-0.3681771457195282,0.39730599522590637,-0.5398980975151062
1761338244659247400,1.005247314453125,-0.19413740932941437,0.2780595123767853,-0.3789598345756531
1761338244669313500,1.0153134765625,-0.013912579044699669,0.1194094568490982,-0.10971178114414215
1761338244679378400,1.02537841796875,0.1908903568983078,0.04492643475532532,0.2255738079547882
1761338244689444600,1.035444580078125,0.4137501120567322,-0.006275621708482504,0.5385246872901917
1761338244699509500,1.045509521484375,0.6112011075019836,-0.13756227493286133,0.7954667806625366
1761338244709575400,1.055575439453125,0.7677784562110901,-0.2864683270454407,0.9695001840591431
1761338244719641300,1.065641357421875,0.8620703220367432,-0.4028063714504242,1.0348557233810425
1761338244729706500,1.07570654296875,0.8878045678138733,-0.4539024531841278,0.9798128008842468
1761338244739772700,1.085772705078125,0.8450232744216919,-0.39474645256996155,0.8703310489654541
1761338244749837300,1.09583740234375,0.7709084749221802,-0.28335389494895935,0.7398876547813416
1761338244759903500,1.105903564453125,0.6698646545410156,-0.1864350587129593,0.6152541041374207
1761338244769969400,1.115969482421875,0.5820549726486206,-0.07315348833799362,0.5216912627220154
1761338244780034600,1.12603466796875,0.5080305933952332,0.005178336054086685,0.42738234996795654
1761338244790100500,1.1361005859375,0.436138391494751,0.0491018071770668,0.28245794773101807
1761338244800166400,1.14616650390625,0.35950833559036255,0.07881522923707962,0.06482017040252686
1761338244810231600,1.1562314453125,0.2707311511039734,0.11491013318300247,-0.19203545153141022
1761338244820297500,1.16629736328125,0.17813225090503693,0.14473222196102142,-0.4372699558734894
1761338244830362600,1.176362548828125,0.10104826092720032,0.1329171061515808,-0.6235213279724121
1761338244840428000,1.186427978515625,0.047958146780729294,0.045868225395679474,-0.7215418815612793
1761338244850494200,1.196494140625,0.035592906177043915,-0.07306798547506332,-0.7321685552597046
1761338244860559000,1.20655908203125,0.04938248544931412,-0.1591845005750656,-0.6640345454216003
1761338244870625300,1.216625244140625,0.04945693537592888,-0.1897009313106537,-0.5559505224227905
1761338244880690200,1.226690185546875,0.05524265393614769,-0.09910686314105988,-0.39588871598243713
1761338244890756000,1.236756103515625,0.049832478165626526,0.017522340640425682,-0.19897989928722382
1761338244900822300,1.246822265625,0.02291031740605831,0.026740605011582375,0.011935527436435223
1761338244910887200,1.25688720703125,0.02559717185795307,-0.01681401953101158,0.21604040265083313
1761338244920953300,1.266953369140625,0.07740870118141174,-0.08036023378372192,0.3697175681591034
1761338244931018200,1.277018310546875,0.1702306866645813,-0.11669879406690598,0.4614555537700653
1761338244941084200,1.287084228515625,0.23750746250152588,-0.09505235403776169,0.5275874137878418
1761338244951150000,1.297150146484375,0.26543712615966797,-0.0647726058959961,0.545676052570343
1761338244961215200,1.30721533203125,0.2788751721382141,-0.04373389855027199,0.49084901809692383
1761338244971281400,1.317281494140625,0.26932477951049805,-0.008096765726804733,0.39871931076049805
1761338244981347000,1.32734716796875,0.23938792943954468,0.06298433989286423,0.3250802159309387
1761338244991412200,1.337412109375,0.22515572607517242,0.10416749864816666,0.344156950712204
1761338245001478100,1.34747802734375,0.24197572469711304,0.06568082422018051,0.4837225675582886
1761338245011543300,1.357543212890625,0.2756645381450653,-0.0722557082772255,0.6958890557289124
1761338245021609000,1.36760888671875,0.29834267497062683,-0.19971220195293427,0.9157899618148804
1761338245031675100,1.377675048828125,0.32706084847450256,-0.2729445695877075,1.0329928398132324
1761338245041740300,1.387740234375,0.36924105882644653,-0.07642485201358795,0.985049307346344
1761338245051806200,1.39780615234375,0.4060130715370178,0.3907053768634796,0.8239688873291016
1761338245061871400,1.407871337890625,0.44680044054985046,0.8059046864509583,0.5390293002128601
1761338245071937000,1.41793701171875,0.4915718138217926,0.9965878129005432,0.14421683549880981
1761338245082003200,1.428003173828125,0.47504717111587524,0.9983676075935364,-0.2516745924949646
1761338245092068000,1.438068115234375,0.37196043133735657,0.9162926077842712,-0.4201224148273468
1761338245102134300,1.44813427734375,0.23098255693912506,0.6363898515701294,-0.507256269454956
1761338245112199200,1.45819921875,0.1198662593960762,0.37340423464775085,-0.5117929577827454
1761338245122265000,1.46826513671875,0.08912698924541473,0.20918519794940948,-0.3589187264442444
1761338245132331000,1.4783310546875,0.12285508960485458,0.037723373621702194,-0.12210538983345032
1761338245142396200,1.488396240234375,0.16721642017364502,-0.10144650191068649,0.15634886920452118
1761338245152462300,1.49846240234375,0.21966655552387238,-0.16702193021774292,0.4442891478538513
1761338245162528300,1.5085283203125,0.2865651547908783,-0.1839015781879425,0.687974750995636
1761338245172593200,1.51859326171875,0.3335057199001312,-0.17788004875183105,0.8676531910896301
1761338245182659000,1.5286591796875,0.3356650173664093,-0.1467524915933609,0.9794514179229736
1761338245192724200,1.53872412109375,0.3351120948791504,-0.061800457537174225,1.042299747467041
1761338245202790100,1.5487900390625,0.34731924533843994,0.050057895481586456,1.0438611507415771
1761338245212856300,1.558856201171875,0.3484358787536621,0.16437308490276337,0.944713830947876
1761338245222921200,1.568921142578125,0.36580607295036316,0.2967841327190399,0.7991827130317688
1761338245232987100,1.578987060546875,0.38919416069984436,0.3501386344432831,0.5858509540557861
1761338245243052300,1.58905224609375,0.4233960807323456,0.26028838753700256,0.2917565405368805
1761338245253118200,1.5991181640625,0.45154574513435364,0.12221844494342804,-0.1007598489522934
1761338245263184100,1.60918408203125,0.4894273281097412,-0.032565806061029434,-0.5498988032341003
1761338245273249000,1.6192490234375,0.5046191811561584,-0.1314282864332199,-0.9565388560295105
1761338245283315200,1.629315185546875,0.43871766328811646,-0.21119076013565063,-1.2295693159103394
1761338245293380400,1.63938037109375,0.30141904950141907,-0.3058687746524811,-1.3603026866912842
1761338245303446300,1.6494462890625,0.11006292700767517,-0.3925703763961792,-1.3402680158615112
1761338245313512200,1.65951220703125,-0.08156536519527435,-0.42139238119125366,-1.1866422891616821
1761338245323577000,1.6695771484375,-0.24188153445720673,-0.35328149795532227,-0.9355953931808472
1761338245333643300,1.679643310546875,-0.3527878224849701,-0.2127673178911209,-0.6517873406410217
1761338245343708200,1.689708251953125,-0.40774214267730713,-0.060454752296209335,-0.41698572039604187
1761338245353774000,1.699774169921875,-0.4347863793373108,0.04369385540485382,-0.2368737906217575
1761338245363840000,1.709840087890625,-0.4438975751399994,0.07038991153240204,-0.09768981486558914
1761338245373905200,1.7199052734375,-0.43145886063575745,0.021434718742966652,-0.005746627226471901
1761338245383971300,1.729971435546875,-0.423764705657959,-0.09092005342245102,0.03331369161605835
1761338245394037200,1.740037353515625,-0.4216928482055664,-0.18136931955814362,0.015958063304424286
1761338245404102100,1.75010205078125,-0.41961532831192017,-0.21933294832706451,-0.044109802693128586
1761338245414168000,1.76016796875,-0.416747123003006,-0.20887868106365204,-0.12674082815647125
1761338245424233200,1.770233154296875,-0.3966138958930969,-0.14529862999916077,-0.22670631110668182
1761338245434299100,1.780299072265625,-0.3804383873939514,-0.08419506996870041,-0.3225119411945343
1761338245444365300,1.790365234375,-0.3742539882659912,-0.0654943510890007,-0.38690370321273804
1761338245454430200,1.80043017578125,-0.37582218647003174,-0.057974688708782196,-0.40342190861701965
1761338245464496000,1.81049609375,-0.38363856077194214,-0.07610415667295456,-0.40237823128700256
1761338245474561300,1.820561279296875,-0.3883570432662964,-0.09441854804754257,-0.3862476646900177
1761338245484627200,1.830627197265625,-0.4033639430999756,-0.10470953583717346,-0.3978763520717621
1761338245494693400,1.840693359375,-0.43124595284461975,-0.10955548286437988,-0.4211806356906891
1761338245504758000,1.850758056640625,-0.4846990704536438,-0.10302727669477463,-0.46233606338500977
1761338245514824200,1.86082421875,-0.5794333815574646,-0.13106480240821838,-0.5001009106636047
1761338245524889300,1.870889404296875,-0.6953559517860413,-0.1896572709083557,-0.5267080068588257
1761338245534955300,1.880955322265625,-0.8148218989372253,-0.21080195903778076,-0.5226368308067322
1761338245545021200,1.891021240234375,-0.9332404136657715,-0.17899876832962036,-0.4920184314250946
1761338245555086000,1.901086181640625,-1.0219100713729858,-0.11646349728107452,-0.45209214091300964
1761338245565152300,1.91115234375,-1.1029173135757446,-0.05552850291132927,-0.38897496461868286
1761338245575218200,1.92121826171875,-1.1962687969207764,-0.005606766324490309,-0.27044519782066345
1761338245585283300,1.931283447265625,-1.294304609298706,0.08200430870056152,-0.12523873150348663
1761338245595349000,1.941348876953125,-1.371259093284607,0.21401959657669067,-0.009406933560967445
1761338245605414100,1.9514140625,-1.416074514389038,0.3033425509929657,0.0364694781601429
1761338245615480000,1.96147998046875,-1.4546489715576172,0.3042253851890564,0.006096649449318647
1761338245625546200,1.971546142578125,-1.4849568605422974,0.2503744065761566,-0.046975892037153244
1761338245635611400,1.981611328125,-1.4777798652648926,0.16957172751426697,-0.07116392254829407
1761338245645677000,1.991677001953125,-1.4105983972549438,0.080645851790905,-0.03459179028868675
1761338245655742200,2.0017421875,-1.2845858335494995,0.018685469403862953,0.06909772008657455
1761338245665808100,2.01180810546875,-1.0050724744796753,0.08653136342763901,0.21906724572181702
1761338245675874300,2.021874267578125,-0.6977859735488892,0.12452387809753418,0.315428763628006
1761338245685939200,2.031939208984375,-0.5842160582542419,0.0735485777258873,0.27989792823791504
1761338245696005000,2.042005126953125,-0.682908296585083,-0.022050805389881134,0.048968605697155
1761338245706070300,2.0520703125,-0.9031184315681458,0.014369521290063858,-0.31030353903770447
1761338245716136200,2.06213623046875,-1.0721096992492676,0.23700305819511414,-0.6235332489013672
1761338245726202400,2.072202392578125,-1.0985705852508545,0.41645723581314087,-0.7526286244392395
1761338245736267000,2.08226708984375,-1.0478678941726685,0.46249252557754517,-0.6187049746513367
1761338245746333200,2.092333251953125,-0.9337537288665771,0.44516170024871826,-0.2971482574939728
1761338245756398000,2.102398193359375,-0.7824459671974182,0.41137996315956116,0.08105282485485077
1761338245766464300,2.11246435546875,-0.6530261635780334,0.36953452229499817,0.42293956875801086
1761338245776530200,2.1225302734375,-0.5666490197181702,0.29534193873405457,0.6964210271835327
1761338245786595000,2.132594970703125,-0.5089297890663147,0.18206971883773804,0.8559443950653076
1761338245796661200,2.1426611328125,-0.4947406053543091,0.03424626588821411,0.9378634691238403
1761338245806727200,2.15272705078125,-0.5110870599746704,-0.12845955789089203,0.9421647191047668
1761338245816792300,2.162792236328125,-0.5550928115844727,-0.25186455249786377,0.8390118479728699
1761338245826858200,2.172858154296875,-0.602138340473175,-0.2974672019481659,0.6621156334877014
1761338245836923100,2.182923095703125,-0.615894079208374,-0.31036192178726196,0.4544699788093567
1761338245846989000,2.192989013671875,-0.6298828721046448,-0.2813771367073059,0.27081891894340515
1761338245857055200,2.20305517578125,-0.6932857036590576,-0.22511695325374603,0.08797050267457962
1761338245867120400,2.213120361328125,-0.8372558951377869,-0.2022489309310913,-0.14392665028572083
1761338245877186300,2.223186279296875,-1.0596263408660889,-0.10958486050367355,-0.43552854657173157
1761338245887251200,2.233251220703125,-1.3196805715560913,0.049322500824928284,-0.7315636873245239
1761338245897317000,2.243317138671875,-1.555969476699829,0.17488069832324982,-0.9728968739509583
1761338245907383300,2.25338330078125,-1.6983675956726074,0.2005506455898285,-1.1118086576461792
1761338245917448200,2.2634482421875,-1.7229094505310059,0.18391865491867065,-1.1366037130355835
1761338245927514000,2.27351416015625,-1.6558820009231567,0.17066410183906555,-1.025767207145691
1761338245937579300,2.283579345703125,-1.5338473320007324,0.12329550087451935,-0.8229975700378418
1761338245947645200,2.293645263671875,-1.376678705215454,0.06763996183872223,-0.555108368396759
1761338245957711000,2.303711181640625,-1.2176337242126465,-0.0029958589002490044,-0.23799939453601837
1761338245967776300,2.3137763671875,-1.0456836223602295,-0.05817442387342453,0.10823630541563034
1761338245977842200,2.32384228515625,-0.8595256805419922,-0.10871881991624832,0.4501071274280548
1761338245987907000,2.333906982421875,-0.6965554356575012,-0.15256111323833466,0.7680462002754211
1761338245997973200,2.34397314453125,-0.581911027431488,-0.1625155210494995,1.0332764387130737
1761338246008039200,2.3540390625,-0.489504337310791,-0.17554236948490143,1.1810179948806763
1761338246018104000,2.36410400390625,-0.4017249345779419,-0.18184424936771393,1.1930443048477173
1761338246028170000,2.374169921875,-0.3393864631652832,-0.19459226727485657,1.0813411474227905
1761338246038236200,2.384236083984375,-0.3570781648159027,-0.21980419754981995,0.8710134625434875
1761338246048301300,2.39430126953125,-0.4810967743396759,-0.26515328884124756,0.580104410648346
1761338246058367200,2.4043671875,-0.6654820442199707,-0.26854050159454346,0.24218019843101501
1761338246068432100,2.41443212890625,-0.8784174919128418,-0.1901027113199234,-0.1361338198184967
1761338246078498000,2.424498046875,-1.1035114526748657,-0.039538342505693436,-0.49082669615745544
1761338246088564200,2.434564208984375,-1.3025310039520264,0.09147720038890839,-0.770483136177063
1761338246098629000,2.444629150390625,-1.4535987377166748,0.14587819576263428,-0.9564470648765564
1761338246108695300,2.4546953125,-1.5447419881820679,0.16020360589027405,-1.0400452613830566
1761338246118760200,2.46476025390625,-1.5806007385253906,0.1410222351551056,-1.0266711711883545
1761338246128826000,2.474826171875,-1.5679731369018555,0.09598018229007721,-0.9254175424575806
1761338246138892300,2.484892333984375,-1.5222325325012207,0.03227626532316208,-0.7774021625518799
1761338246148957200,2.494957275390625,-1.4561235904693604,-0.030221734195947647,-0.5942928194999695
1761338246159023400,2.5050234375,-1.3773901462554932,-0.055446743965148926,-0.3971692621707916
1761338246169088000,2.515087890625,-1.298449993133545,-0.049053825438022614,-0.21878938376903534
1761338246179154200,2.525154296875,-1.2391871213912964,0.009761343710124493,-0.08390478789806366
1761338246189220000,2.53522021484375,-1.1771799325942993,0.1047712117433548,0.013342139311134815
1761338246199285200,2.54528515625,-1.1156729459762573,0.18457046151161194,0.08258925378322601
1761338246209351400,2.555351318359375,-1.0861881971359253,0.22779037058353424,0.12649838626384735
1761338246219416000,2.565416015625,-1.0969362258911133,0.22833067178726196,0.21348440647125244
1761338246229482200,2.575482177734375,-1.1486302614212036,0.20052993297576904,0.34651169180870056
1761338246239548200,2.585548095703125,-1.1877238750457764,0.14054709672927856,0.5175033211708069
1761338246249613300,2.59561328125,-1.173466682434082,0.07750235497951508,0.696959912776947
1761338246259679000,2.605678955078125,-1.1071038246154785,-0.009893571026623249,0.8805071711540222
1761338246269744000,2.615744140625,-0.9916089177131653,-0.08868292719125748,1.0332684516906738
1761338246279810300,2.625810302734375,-0.8595997095108032,-0.1516021341085434,1.1391924619674683
1761338246289876200,2.635876220703125,-0.70399010181427,-0.14439721405506134,1.12306547164917
1761338246299941400,2.64594140625,-0.4792824685573578,0.06262600421905518,0.8985558152198792
1761338246310007000,2.656007080078125,-0.22027580440044403,0.4757339060306549,0.4876088500022888
1761338246320073200,2.6660732421875,0.014958467334508896,0.8712204694747925,0.010180642828345299
1761338246330138000,2.67613818359375,0.11889978498220444,1.012170672416687,-0.4320140779018402
1761338246340204300,2.686204345703125,0.0946069285273552,0.7650763988494873,-0.7781139612197876
1761338246350269200,2.696269287109375,-0.03443067893385887,0.35238492488861084,-0.99985671043396
1761338246360335000,2.706335205078125,-0.2827412784099579,-0.04423825442790985,-1.0099706649780273
1761338246370401000,2.716401123046875,-0.5366233587265015,-0.4255264699459076,-0.7696126699447632
1761338246380466200,2.726466064453125,-0.7019336223602295,-0.7361260056495667,-0.2585921585559845
1761338246390532400,2.736532470703125,-0.8903000950813293,-0.8677151799201965,0.39520910382270813
1761338246400597000,2.746596923828125,-1.123746395111084,-0.8613010048866272,0.953482985496521
1761338246410663200,2.7566630859375,-1.34238600730896,-0.7390164136886597,1.3116414546966553
1761338246420729000,2.76672900390625,-1.5012321472167969,-0.47562384605407715,1.5206624269485474
1761338246430794200,2.776794189453125,-1.568527340888977,-0.17537131905555725,1.5972453355789185
1761338246440860200,2.786860107421875,-1.5327720642089844,-0.007980609312653542,1.5356491804122925
1761338246450925000,2.796925048828125,-1.442886471748352,0.009493188932538033,1.36532723903656
1761338246460991200,2.8069912109375,-1.3368819952011108,-0.0067052096128463745,1.1327182054519653
1761338246471057200,2.81705712890625,-1.2033425569534302,0.01128071453422308,0.8365600109100342
1761338246481122300,2.827122314453125,-1.0253112316131592,0.0304268691688776,0.4885386526584625
1761338246491188200,2.837188232421875,-0.8218132257461548,0.006881861016154289,0.13041594624519348
1761338246501254100,2.847254150390625,-0.6421136856079102,-0.09957580268383026,-0.20624667406082153
1761338246511319000,2.857319091796875,-0.5197662115097046,-0.2992718815803528,-0.5320205092430115
1761338246521385200,2.86738525390625,-0.4702821969985962,-0.4756057858467102,-0.8462700247764587
1761338246531450400,2.877450439453125,-0.4646783769130707,-0.5909336805343628,-1.1588739156723022
1761338246541516300,2.887516357421875,-0.5142354369163513,-0.6572690606117249,-1.4461069107055664
1761338246551582200,2.897582275390625,-0.6397374272346497,-0.6598227620124817,-1.6323614120483398
1761338246561647000,2.907647216796875,-0.8396702408790588,-0.5855764746665955,-1.6904058456420898
1761338246571713300,2.91771337890625,-1.076613187789917,-0.47242969274520874,-1.645182728767395
1761338246581778200,2.927778076171875,-1.297325849533081,-0.35926854610443115,-1.4797520637512207
1761338246591844000,2.937843994140625,-1.4549564123153687,-0.23311328887939453,-1.1528440713882446
1761338246601910000,2.947909912109375,-1.5724865198135376,-0.0753447636961937,-0.7074825763702393
1761338246611975200,2.95797509765625,-1.6676201820373535,0.09238777309656143,-0.2698115408420563
1761338246622041300,2.968041259765625,-1.720990777015686,0.23742778599262238,0.05226503312587738
1761338246632106200,2.978106201171875,-1.7131152153015137,0.3579416871070862,0.24790270626544952
1761338246642172200,2.988172119140625,-1.6434682607650757,0.4018751382827759,0.32753556966781616
1761338246652238000,2.998238037109375,-1.5439164638519287,0.34932804107666016,0.3166922330856323
1761338246662303200,3.00830322265625,-1.4339170455932617,0.23693178594112396,0.2450232058763504
1761338246672369200,3.018369140625,-1.3234670162200928,0.0933663621544838,0.1195286437869072
1761338246682434000,3.02843408203125,-1.2177499532699585,-0.02789798565208912,-0.060315798968076706
1761338246692500200,3.038500244140625,-1.1266906261444092,-0.10944104939699173,-0.26927486062049866
1761338246702566100,3.048566162109375,-1.0752320289611816,-0.1434534639120102,-0.4578835070133209
1761338246712631300,3.05863134765625,-1.072218418121338,-0.16576597094535828,-0.5962331295013428
1761338246722697200,3.068697265625,-1.0918006896972656,-0.20230147242546082,-0.6949065327644348
1761338246732762000,3.07876220703125,-1.1321818828582764,-0.20786747336387634,-0.7393940687179565
1761338246742828000,3.088828125,-1.1932746171951294,-0.19011706113815308,-0.7401791214942932
1761338246752894200,3.098894287109375,-1.2768096923828125,-0.17081978917121887,-0.7149595022201538
1761338246762959400,3.10895947265625,-1.3845196962356567,-0.13711130619049072,-0.688723623752594
1761338246773025300,3.119025390625,-1.4863877296447754,-0.05072847753763199,-0.6691933274269104
1761338246783091000,3.129091064453125,-1.5566644668579102,0.05316880717873573,-0.6653055548667908
1761338246793156000,3.139156005859375,-1.5802198648452759,0.0498313345015049,-0.6663068532943726
1761338246803222300,3.14922216796875,-1.5585954189300537,-0.018795214593410492,-0.6338015794754028
1761338246813287200,3.159287109375,-1.5187212228775024,-0.1017332375049591,-0.5567411184310913
1761338246823353300,3.169353271484375,-1.4855512380599976,-0.21982483565807343,-0.4506362974643707
1761338246833419000,3.1794189453125,-1.4792968034744263,-0.3106953799724579,-0.32816338539123535
1761338246843484400,3.189484375,-1.4954959154129028,-0.2990962862968445,-0.20765668153762817
1761338246853550000,3.199550048828125,-1.5372806787490845,-0.2581046521663666,-0.11861787736415863
1761338246863615200,3.209615234375,-1.5975910425186157,-0.20323799550533295,-0.0796673595905304
1761338246873681400,3.219681396484375,-1.6674007177352905,-0.12703749537467957,-0.06380423903465271
1761338246883747300,3.229747314453125,-1.7348581552505493,-0.081075020134449,-0.032813023775815964
1761338246893812500,3.2398125,-1.7832053899765015,-0.10893461853265762,0.0037409919314086437
1761338246903878100,3.249878173828125,-1.7936418056488037,-0.18081948161125183,0.026708219200372696
1761338246913943300,3.259943359375,-1.7444939613342285,-0.2392313927412033,0.044289346784353256
1761338246924009200,3.27000927734375,-1.6670539379119873,-0.29552987217903137,0.06902796775102615
1761338246934075400,3.280075439453125,-1.5961179733276367,-0.3702096939086914,0.09806068241596222
1761338246944140300,3.290140380859375,-1.554379940032959,-0.43598127365112305,0.14665524661540985
1761338246954206200,3.300206298828125,-1.5681073665618896,-0.4157359302043915,0.22052253782749176
1761338246964271400,3.310271240234375,-1.6844762563705444,-0.3081539273262024,0.28434449434280396
1761338246974337300,3.320337158203125,-1.808749794960022,-0.1310797929763794,0.3298187553882599
1761338246984403500,3.330403564453125,-1.8712642192840576,0.022088229656219482,0.2955571413040161
1761338246994468000,3.340468017578125,-1.963070034980774,0.11633802950382233,0.13808363676071167
1761338247004534300,3.3505341796875,-2.007753610610962,0.20793597400188446,-0.11855264753103256
1761338247014599400,3.360599365234375,-1.943838119506836,0.22173914313316345,-0.39352720975875854
1761338247024665300,3.370665283203125,-1.8128353357315063,0.13527071475982666,-0.5746248364448547
1761338247034731300,3.380731201171875,-1.723075270652771,-0.008224934339523315,-0.6096065044403076
1761338247044796200,3.390796142578125,-1.6892610788345337,-0.021794946864247322,-0.48812130093574524
1761338247054862300,3.4008623046875,-1.7174865007400513,0.11288696527481079,-0.2327452003955841
1761338247064928300,3.41092822265625,-1.7663531303405762,0.31626400351524353,0.11321930587291718
1761338247074993400,3.420993408203125,-1.8014711141586304,0.46999391913414,0.48573482036590576
1761338247085059300,3.431059326171875,-1.764707088470459,0.4948413372039795,0.7870342135429382
1761338247095124200,3.441124267578125,-1.6906485557556152,0.3983485996723175,1.0298404693603516
1761338247105190400,3.4511904296875,-1.5482404232025146,0.22848133742809296,1.2130448818206787
1761338247115256300,3.46125634765625,-1.3520493507385254,-0.02446490153670311,1.3264802694320679
1761338247125321500,3.471321533203125,-1.1284387111663818,-0.312025249004364,1.3533567190170288
1761338247135387400,3.481387451171875,-0.9290330410003662,-0.5539271235466003,1.284758448600769
1761338247145452300,3.491452392578125,-0.7936415076255798,-0.6932029724121094,1.1293187141418457
1761338247155518200,3.501518310546875,-0.725260853767395,-0.7565609216690063,0.9149986505508423
1761338247165584400,3.51158447265625,-0.7444684505462646,-0.823846161365509,0.6269339919090271
1761338247175649300,3.521649169921875,-0.9068603515625,-0.816676914691925,0.23791112005710602
1761338247185715200,3.531715087890625,-1.2251611948013306,-0.6520613431930542,-0.26836657524108887
1761338247195780400,3.5417802734375,-1.6398087739944458,-0.3844011425971985,-0.8718069195747375
1761338247205846300,3.55184619140625,-1.9765812158584595,-0.07870195806026459,-1.450376272201538
1761338247215912400,3.561912353515625,-2.139148712158203,0.1457628458738327,-1.9218833446502686
1761338247225977300,3.571977294921875,-2.145749568939209,0.22318220138549805,-2.1869354248046875
1761338247236043300,3.582043212890625,-2.070808172225952,0.15422497689723969,-2.188122510910034
1761338247246108400,3.5921083984375,-1.974437952041626,0.027458341792225838,-1.924692988395691
1761338247256174300,3.60217431640625,-1.8852601051330566,-0.016542937606573105,-1.4156938791275024
1761338247266240300,3.612240234375,-1.8051786422729492,-0.0015700329095125198,-0.8029609322547913
1761338247276305200,3.62230517578125,-1.6997911930084229,-0.046379849314689636,-0.22728802263736725
1761338247286371300,3.632371337890625,-1.5472564697265625,-0.10837645828723907,0.22466783225536346
1761338247296436200,3.642436279296875,-1.3658654689788818,-0.12437140196561813,0.5405413508415222
1761338247306502400,3.65250244140625,-1.1717513799667358,-0.1087290495634079,0.7176339626312256
1761338247316568300,3.662568359375,-1.0027658939361572,-0.09977683424949646,0.764453649520874
1761338247326633200,3.67263330078125,-0.8639298677444458,-0.09600816667079926,0.7106803059577942
1761338247336699100,3.68269921875,-0.7409605383872986,-0.08418559283018112,0.5911597609519958
1761338247346764300,3.692764404296875,-0.6488037705421448,-0.08988247066736221,0.4297258257865906
1761338247356830500,3.70283056640625,-0.593045175075531,-0.15271230041980743,0.23905253410339355
1761338247366896400,3.712896484375,-0.5906834602355957,-0.2850498557090759,0.05121079832315445
1761338247376961300,3.722961181640625,-0.6595762372016907,-0.4649757146835327,-0.14057594537734985
1761338247387027200,3.733027099609375,-0.7671013474464417,-0.5823103189468384,-0.3234788179397583
1761338247397093400,3.74309326171875,-0.8974537253379822,-0.561790406703949,-0.48571619391441345
1761338247407158300,3.753158203125,-1.0227291584014893,-0.4398784339427948,-0.5932895541191101
1761338247417224400,3.763224365234375,-1.099019169807434,-0.32242104411125183,-0.633337140083313
1761338247427289300,3.773289306640625,-1.115305781364441,-0.22737590968608856,-0.5707024335861206
1761338247437355300,3.783355224609375,-1.0944976806640625,-0.16539962589740753,-0.4387845993041992
1761338247447421400,3.79342138671875,-1.0552499294281006,-0.14591282606124878,-0.2789115309715271
1761338247457486300,3.803486328125,-1.0006431341171265,-0.14341877400875092,-0.14008334279060364
1761338247467552500,3.813552490234375,-0.9527915120124817,-0.14471690356731415,-0.05465475842356682
1761338247477617200,3.8236171875,-0.9247044920921326,-0.1947806030511856,-0.030806418508291245
1761338247487683300,3.833683349609375,-0.9209633469581604,-0.2508471608161926,-0.07602491974830627
1761338247497749200,3.843749267578125,-0.9559229612350464,-0.28416866064071655,-0.18534554541110992
1761338247507814400,3.853814453125,-1.0513360500335693,-0.3221723139286041,-0.35918769240379333
1761338247517880300,3.86388037109375,-1.186826467514038,-0.2885933220386505,-0.5010569095611572
1761338247527945200,3.8739453125,-1.376516342163086,-0.18256618082523346,-0.55245441198349
1761338247538011400,3.884011474609375,-1.5830734968185425,-0.09366028010845184,-0.4905356168746948
1761338247548077300,3.894077392578125,-1.7304366827011108,-0.041397467255592346,-0.32997429370880127
1761338247558142500,3.904142578125,-1.7825968265533447,-0.017668433487415314,-0.11734190583229065
1761338247568208100,3.9142080078125,-1.7007583379745483,0.1051439419388771,0.06523194164037704
1761338247578273300,3.924273193359375,-1.441680669784546,0.4190693497657776,0.13213878870010376
1761338247588339500,3.93433935546875,-1.1070711612701416,0.7802633047103882,0.11298129707574844
1761338247598405400,3.9444052734375,-0.8289303779602051,0.9567201137542725,-0.007670286111533642
1761338247608470300,3.95447021484375,-0.6421741247177124,0.8730772137641907,-0.29867061972618103
1761338247618536200,3.9645361328125,-0.47277867794036865,0.5765305161476135,-0.7215944528579712
1761338247628601300,3.974601318359375,-0.32355108857154846,0.26158228516578674,-1.1013468503952026
1761338247638667300,3.984667236328125,-0.2817527651786804,-0.06792211532592773,-1.2798817157745361
1761338247648733400,3.9947333984375,-0.3441893756389618,-0.36041709780693054,-1.1856389045715332
1761338247658798300,4.00479833984375,-0.5015289187431335,-0.5531982779502869,-0.7552704215049744
1761338247668864300,4.0148642578125,-0.748320460319519,-0.711415708065033,-0.08396914601325989
1761338247678930200,4.02493017578125,-1.1597155332565308,-0.7661212682723999,0.6703051328659058
1761338247688995300,4.034995361328125,-1.7423762083053589,-0.6983108520507812,1.4847843647003174
1761338247699061500,4.0450615234375,-2.3273189067840576,-0.457044392824173,2.2513539791107178
1761338247709126100,4.055126220703125,-2.7781572341918945,-0.13184282183647156,2.791424512863159
1761338247719192300,4.0651923828125,-3.026080369949341,0.1337827444076538,3.006932497024536
1761338247729257500,4.075257568359375,-3.075530529022217,0.21240146458148956,2.825906753540039
1761338247739323400,4.085323486328125,-2.922363758087158,0.3238816559314728,2.422069549560547
1761338247749389300,4.095389404296875,-2.5906851291656494,0.5352970361709595,1.9779466390609741
1761338247759454200,4.1054541015625,-2.160491704940796,0.5102028250694275,1.5463299751281738
1761338247769520400,4.115520263671875,-1.6846708059310913,0.3328660726547241,1.140088438987732
1761338247779586300,4.12558642578125,-1.1930097341537476,0.09142816066741943,0.6955594420433044
1761338247789651500,4.1356513671875,-0.6669012308120728,-0.15578147768974304,0.18172617256641388
1761338247799717400,4.14571728515625,-0.2594389021396637,-0.4537423253059387,-0.32470080256462097
1761338247809782300,4.1557822265625,-0.04840190336108208,-0.6393447518348694,-0.76679527759552
1761338247819848200,4.16584814453125,-0.030329154804348946,-0.6624199748039246,-1.193669080734253
1761338247829914400,4.175914306640625,-0.1827935427427292,-0.5450408458709717,-1.6035268306732178
1761338247839979500,4.1859794921875,-0.46719890832901,-0.3126470446586609,-1.9093480110168457
1761338247850045400,4.19604541015625,-0.8267251253128052,-0.10295931994915009,-1.9959872961044312
1761338247860110300,4.2061103515625,-1.224233627319336,-0.020264174789190292,-1.873777151107788
1761338247870176300,4.21617626953125,-1.5306048393249512,0.07294780761003494,-1.6023199558258057
1761338247880242400,4.226242431640625,-1.6480765342712402,0.21899476647377014,-1.282281517982483
1761338247890307300,4.236307373046875,-1.627070426940918,0.34048154950141907,-0.9734352827072144
1761338247900373500,4.24637353515625,-1.5602184534072876,0.39587050676345825,-0.7082939147949219
1761338247910438400,4.2564384765625,-1.4799150228500366,0.4171013832092285,-0.48695772886276245
1761338247920504300,4.26650439453125,-1.389719843864441,0.36320164799690247,-0.3236042261123657
1761338247930570200,4.2765703125,-1.2831597328186035,0.24351541697978973,-0.18965162336826324
1761338247940635400,4.286635498046875,-1.1580311059951782,0.1265142410993576,-0.09629584103822708
1761338247950701300,4.296701416015625,-1.0244624614715576,0.0819389820098877,-0.04447292909026146
1761338247960766200,4.30676611328125,-0.9058247208595276,0.11565379798412323,-0.05856158211827278
1761338247970832400,4.316832275390625,-0.8229702711105347,0.16702933609485626,-0.12057876586914062
1761338247980898300,4.326898193359375,-0.7750391960144043,0.18595029413700104,-0.2278333157300949
1761338247990964500,4.336964599609375,-0.7146168351173401,0.22155354917049408,-0.37199243903160095
1761338248001029400,4.347029296875,-0.6170897483825684,0.25340259075164795,-0.5352979898452759
1761338248011095300,4.35709521484375,-0.517174482345581,0.23765046894550323,-0.671834409236908
1761338248021161200,4.3671611328125,-0.4497497081756592,0.20271140336990356,-0.734893798828125
1761338248031226400,4.377226318359375,-0.41705214977264404,0.23500211536884308,-0.7242201566696167
1761338248041292500,4.38729248046875,-0.39592766761779785,0.29381510615348816,-0.6676918864250183
1761338248051357200,4.397357177734375,-0.3857066333293915,0.309414803981781,-0.5865626931190491
1761338248061423400,4.40742333984375,-0.36386871337890625,0.31847089529037476,-0.5111465454101562
1761338248071489300,4.4174892578125,-0.3294983506202698,0.3021220564842224,-0.45354536175727844
1761338248081554400,4.427554443359375,-0.28386908769607544,0.23513370752334595,-0.4131055176258087
1761338248091620400,4.437620361328125,-0.24634458124637604,0.15735600888729095,-0.34860968589782715
1761338248101685200,4.447685302734375,-0.21935397386550903,0.11152194440364838,-0.25390076637268066
1761338248111751400,4.45775146484375,-0.2559686303138733,0.04969700053334236,-0.147978276014328
1761338248121817300,4.4678173828125,-0.3733370900154114,-0.04375652223825455,-0.066594198346138
1761338248131882500,4.477882568359375,-0.5108723044395447,-0.10322637856006622,-0.02479764074087143
1761338248141948400,4.487948486328125,-0.6708675622940063,-0.11528756469488144,0.006027117371559143
1761338248152013300,4.498013427734375,-0.8352676630020142,-0.09135733544826508,-0.00939269457012415
1761338248162079200,4.508079345703125,-0.9690632820129395,-0.01694514788687229,-0.05972723662853241
1761338248172145400,4.5181455078125,-1.034795880317688,0.07664856314659119,-0.13180804252624512
1761338248182210600,4.52821044921875,-1.040244221687317,0.11525215208530426,-0.15981198847293854
1761338248192276200,4.538276123046875,-0.9916605949401855,0.07908311486244202,-0.12688815593719482
1761338248202341400,4.54834130859375,-0.9156302809715271,0.004995305091142654,-0.04391923174262047
1761338248212407300,4.5584072265625,-0.8327484130859375,-0.09810758382081985,0.0804368183016777
1761338248222473500,4.568473388671875,-0.7663975954055786,-0.1398821920156479,0.17925289273262024
1761338248232538400,4.578538330078125,-0.7131138443946838,-0.06314904242753983,0.18860258162021637
1761338248242604300,4.588604248046875,-0.5059835910797119,0.07525970041751862,0.14064091444015503
1761338248252670200,4.598670166015625,-0.17120413482189178,0.39574798941612244,-0.05494362860918045
1761338248262735400,4.6087353515625,0.03797651827335358,0.639092743396759,-0.32653361558914185
1761338248272801300,4.61880126953125,0.10248535126447678,0.6259289383888245,-0.6148896217346191
1761338248282866200,4.6288662109375,0.12120284885168076,0.456474632024765,-0.924515426158905
1761338248292932400,4.638932373046875,0.10139676928520203,0.24363835155963898,-1.1482559442520142
1761338248302998300,4.648998291015625,0.0024515462573617697,-0.009941454976797104,-1.1431310176849365
1761338248313063400,4.6590634765625,-0.17193438112735748,-0.21933965384960175,-0.861040472984314
1761338248323129300,4.66912939453125,-0.31487953662872314,-0.3060377836227417,-0.38160037994384766
1761338248333194200,4.6791943359375,-0.3857572376728058,-0.264484703540802,0.17831921577453613
1761338248343260400,4.689260498046875,-0.36548474431037903,-0.1294802576303482,0.7182160019874573
1761338248353326300,4.699326416015625,-0.27309662103652954,0.023701615631580353,1.1586750745773315
1761338248363391500,4.7093916015625,-0.1267218142747879,0.09030860662460327,1.494282841682434
1761338248373457400,4.71945751953125,0.06418398022651672,0.038217008113861084,1.7276500463485718
1761338248383522300,4.729522216796875,0.2427113652229309,-0.1350511759519577,1.891645073890686
1761338248393588200,4.739588134765625,0.33435720205307007,-0.3639749586582184,1.973351001739502
1761338248403654400,4.749654296875,0.3183835446834564,-0.6105663776397705,2.0373175144195557
1761338248413719300,4.75971923828125,0.19717241823673248,-0.8865131139755249,1.9858341217041016
1761338248423785500,4.769785400390625,0.013179942965507507,-1.092029333114624,1.7299097776412964
1761338248433850400,4.779850341796875,-0.16685961186885834,-1.042887806892395,1.2927196025848389
1761338248443916300,4.789916259765625,-0.3612764775753021,-0.8133938312530518,0.7312149405479431
1761338248453982500,4.799982421875,-0.6021391153335571,-0.5377874374389648,0.11088195443153381
1761338248464047400,4.81004736328125,-0.8961340188980103,-0.27123138308525085,-0.4904334545135498
1761338248474113500,4.820113525390625,-1.1922328472137451,-0.01987472176551819,-0.9885709285736084
1761338248484178400,4.830178466796875,-1.45182204246521,0.16800570487976074,-1.3269411325454712
1761338248494244400,4.840244384765625,-1.6505975723266602,0.2563333809375763,-1.4993404150009155
1761338248504310300,4.850310302734375,-1.797279715538025,0.23550106585025787,-1.4943848848342896
1761338248514375400,4.86037548828125,-1.880345106124878,0.12496128678321838,-1.3041996955871582
1761338248524441300,4.87044140625,-1.8723140954971313,0.036916643381118774,-0.9871941804885864
1761338248534507300,4.88050732421875,-1.8038976192474365,0.021490924060344696,-0.6464194655418396
1761338248544572400,4.890572509765625,-1.6838915348052979,0.08373086154460907,-0.36452892422676086
1761338248554638300,4.900638427734375,-1.5344231128692627,0.1943473368883133,-0.18937474489212036
1761338248564703500,4.910703369140625,-1.459989070892334,0.27223387360572815,-0.1507924646139145
1761338248574769200,4.92076904296875,-1.3803284168243408,0.3087400197982788,-0.13517358899116516
1761338248584835300,4.93083544921875,-1.1958153247833252,0.43647080659866333,-0.14126211404800415
1761338248594900500,4.940900390625,-1.0112522840499878,0.33894360065460205,-0.15984559059143066
1761338248604966400,4.95096630859375,-0.9298006296157837,0.1716182678937912,-0.2438075989484787
1761338248615031300,4.96103125,-0.9178586602210999,-0.022850075736641884,-0.3565927743911743
1761338248625097200,4.97109716796875,-0.9271562695503235,-0.013481874018907547,-0.4876338839530945
1761338248635163400,4.981163330078125,-0.9262650012969971,0.042896393686532974,-0.5982866287231445
1761338248645228300,4.991228271484375,-0.9391283392906189,-0.07850300520658493,-0.5952855348587036
1761338248655294500,5.00129443359375,-0.9983328580856323,-0.1966140866279602,-0.4658800959587097
1761338248665359400,5.011359375,-1.1213101148605347,-0.2234257310628891,-0.3139856159687042
1761338248675425300,5.02142529296875,-1.254351019859314,-0.29277029633522034,-0.18789251148700714
1761338248685491200,5.0314912109375,-1.3508421182632446,-0.3355579674243927,-0.07827892899513245
1761338248695556400,5.041556396484375,-1.3806524276733398,-0.3407132625579834,0.016949066892266273
1761338248705622500,5.05162255859375,-1.3437085151672363,-0.31821539998054504,0.09110771864652634
1761338248715687200,5.061687255859375,-1.2620604038238525,-0.26756012439727783,0.1347929835319519
1761338248725753300,5.07175341796875,-1.1631945371627808,-0.25782811641693115,0.1361522525548935
1761338248735819300,5.0818193359375,-1.0496556758880615,-0.28445419669151306,0.1182752326130867
1761338248745884400,5.091884521484375,-0.9323021173477173,-0.322756826877594,0.07125819474458694
1761338248755950300,5.101950439453125,-0.8498994708061218,-0.378711998462677,0.013475513085722923
1761338248766015200,5.11201513671875,-0.827926516532898,-0.38362765312194824,-0.024254022166132927
1761338248776081400,5.122081298828125,-0.8509837985038757,-0.3255835473537445,0.009610401466488838
1761338248786147300,5.132147216796875,-0.8616316318511963,-0.24063856899738312,0.095921590924263
1761338248796212500,5.14221240234375,-0.8503134250640869,-0.18267297744750977,0.18709556758403778
1761338248806278400,5.1522783203125,-0.7922106981277466,-0.1713484227657318,0.31362101435661316
1761338248816343300,5.16234326171875,-0.7038888931274414,-0.2284276783466339,0.42896339297294617
1761338248826409200,5.1724091796875,-0.5559524297714233,-0.11009755730628967,0.4408666491508484
1761338248836475400,5.182475341796875,-0.35500001907348633,0.33106836676597595,0.3019612431526184
1761338248846540300,5.192540283203125,-0.14115777611732483,0.809134304523468,0.03434925153851509
1761338248856606200,5.202606201171875,0.024885911494493484,1.053475260734558,-0.2997160851955414
1761338248866671000,5.212671142578125,0.19305121898651123,1.0244383811950684,-0.5517464280128479
1761338248876737000,5.222737060546875,0.3130812644958496,0.6404656767845154,-0.6682924628257751
1761338248886803200,5.23280322265625,0.3007625341415405,0.16934852302074432,-0.6043992638587952
1761338248896868400,5.242868408203125,0.08894336223602295,-0.205474853515625,-0.401760995388031
1761338248906934300,5.252934326171875,-0.2002152055501938,-0.3720819354057312,-0.06391983479261398
1761338248917000200,5.263000244140625,-0.4312337338924408,-0.3546500504016876,0.32758212089538574
1761338248927065000,5.273065185546875,-0.5588678121566772,-0.30521780252456665,0.6404734253883362
1761338248937131300,5.28313134765625,-0.6084806323051453,-0.19204099476337433,0.8223413825035095
1761338248947196200,5.293196044921875,-0.5787968039512634,-0.008848002180457115,0.8873589634895325
1761338248957262300,5.303262451171875,-0.4563349187374115,0.12377665936946869,0.8936026692390442
1761338248967328000,5.313327880859375,-0.25246623158454895,0.15728801488876343,0.8304468989372253
1761338248977393200,5.32339306640625,0.00031511299312114716,0.1666083186864853,0.7261398434638977
1761338248987459000,5.333458984375,0.27532723546028137,0.13684216141700745,0.6064411401748657
1761338248997524200,5.343524169921875,0.5289795994758606,0.03422669321298599,0.4675493836402893
1761338249007590400,5.35359033203125,0.7074065804481506,-0.04724446311593056,0.31711167097091675
1761338249017656000,5.363656005859375,0.779947817325592,-0.07287728041410446,0.14710694551467896
1761338249027721200,5.37372119140625,0.7926723957061768,0.00030026398599147797,-0.0951877161860466
1761338249037787100,5.383787109375,0.7444872260093689,0.17500557005405426,-0.42550456523895264
1761338249047852300,5.393852294921875,0.5456540584564209,0.279648095369339,-0.693939208984375
1761338249057918000,5.40391796875,0.22880254685878754,0.2916816174983978,-0.8270715475082397
1761338249067984100,5.413984130859375,-0.0669340193271637,0.28417709469795227,-0.8455967903137207
1761338249078049300,5.42404931640625,-0.2773887515068054,0.25324150919914246,-0.7555026412010193
1761338249088115200,5.434115234375,-0.37064626812934875,0.1765262484550476,-0.6079789996147156
1761338249098180400,5.444180419921875,-0.357796847820282,0.05704013258218765,-0.4547770619392395
1761338249108246000,5.45424609375,-0.2862699329853058,-0.05750641971826553,-0.2803288400173187
1761338249118312200,5.464312255859375,-0.20214655995368958,-0.13574418425559998,-0.08182273805141449
1761338249128377000,5.474377197265625,-0.12634792923927307,-0.17569079995155334,0.12642209231853485
1761338249138443300,5.484443359375,-0.08620744943618774,-0.1923237144947052,0.31775805354118347
1761338249148508200,5.494508056640625,-0.08040840923786163,-0.1833834946155548,0.4438544809818268
1761338249158574000,5.504573974609375,-0.0906592458486557,-0.1431715041399002,0.5083836913108826
1761338249168640300,5.51464013671875,-0.09303638339042664,-0.1050821840763092,0.5044112801551819
1761338249178705200,5.524705078125,-0.10261412709951401,-0.08985775709152222,0.4373195469379425
1761338249188771300,5.534771240234375,-0.10516650229692459,-0.06726456433534622,0.3168394863605499
1761338249198837200,5.544837158203125,-0.09433984756469727,0.002498747780919075,0.18225529789924622
1761338249208902100,5.554902099609375,-0.08198011666536331,0.056653331965208054,0.03295794501900673
1761338249218968000,5.564968017578125,-0.05888144299387932,0.053798824548721313,-0.11637917160987854
1761338249229033200,5.575033203125,-0.032913755625486374,0.07602183520793915,-0.24468815326690674
1761338249239099400,5.585099365234375,-0.03293456509709358,0.13046690821647644,-0.37512102723121643
1761338249249165300,5.595165283203125,-0.08738848567008972,0.1809695065021515,-0.515516459941864
1761338249259230200,5.605230224609375,-0.16653771698474884,0.19443655014038086,-0.643166184425354
1761338249269296000,5.615296142578125,-0.23320142924785614,0.18466168642044067,-0.7398642301559448
1761338249279361300,5.625361328125,-0.2727777659893036,0.14658473432064056,-0.7809505462646484
1761338249289427200,5.63542724609375,-0.2759074866771698,0.09117314219474792,-0.752505898475647
1761338249299493000,5.6454931640625,-0.21958385407924652,0.045385830104351044,-0.6598622798919678
1761338249309558300,5.655558349609375,-0.1275988072156906,-0.019422726705670357,-0.556666374206543
1761338249319624200,5.665624267578125,-0.057693153619766235,-0.11600126326084137,-0.4663354754447937
1761338249329689300,5.675689453125,-0.042353879660367966,-0.17715303599834442,-0.3874737024307251
1761338249339755300,5.68575537109375,-0.09804162383079529,-0.20283055305480957,-0.3345935344696045
1761338249349821200,5.6958212890625,-0.20888851583003998,-0.18864735960960388,-0.2610391676425934
1761338249359886000,5.705885986328125,-0.34015315771102905,-0.11225644499063492,-0.12893910706043243
1761338249369952300,5.7159521484375,-0.47729209065437317,-0.044238511472940445,0.07879596948623657
1761338249380017400,5.726017333984375,-0.6062424778938293,-0.0594056211411953,0.3082084655761719
1761338249390083000,5.7360830078125,-0.67717444896698,-0.16136981546878815,0.49392053484916687
1761338249400149000,5.74614892578125,-0.659038782119751,-0.26761212944984436,0.6059107184410095
1761338249410214100,5.756214111328125,-0.6545140743255615,-0.2715541422367096,0.6139028668403625
1761338249420280300,5.7662802734375,-0.5976482629776001,-0.2772388756275177,0.599111795425415
1761338249430345200,5.77634521484375,-0.5439615845680237,-0.24139057099819183,0.6101823449134827
1761338249440411100,5.7864111328125,-0.554919958114624,-0.2093760371208191,0.6631597280502319
1761338249450477000,5.79647705078125,-0.6150608062744141,-0.21382777392864227,0.7329321503639221
1761338249460542200,5.806542236328125,-0.6770856976509094,-0.22407279908657074,0.8197565674781799
1761338249470608100,5.816608154296875,-0.7499620318412781,-0.22161470353603363,0.86651611328125
1761338249480673000,5.826673095703125,-0.7786732316017151,-0.15391257405281067,0.8025854229927063
1761338249490739200,5.8367392578125,-0.710392951965332,0.01219622790813446,0.5926266312599182
1761338249500805000,5.84680517578125,-0.6871927976608276,0.06294121593236923,0.2590784728527069
1761338249510870300,5.856870361328125,-0.7270289063453674,-0.027959123253822327,-0.1409224569797516
1761338249520936200,5.866936279296875,-0.7772005200386047,-0.09270941466093063,-0.5230756998062134
1761338249531001000,5.8770009765625,-0.855553388595581,-0.13671176135540009,-0.846926212310791
1761338249541067000,5.88706689453125,-0.953650951385498,-0.10862532258033752,-1.0284395217895508
1761338249551133200,5.89713330078125,-1.0014655590057373,0.029369831085205078,-1.0063062906265259
1761338249561198300,5.9071982421875,-0.9199469089508057,0.26143836975097656,-0.7403058409690857
1761338249571264300,5.91726416015625,-0.7909711003303528,0.4851263165473938,-0.29635530710220337
1761338249581329200,5.9273291015625,-0.7155865430831909,0.5922576785087585,0.18166404962539673
1761338249591395000,5.93739501953125,-0.6858190298080444,0.5836979746818542,0.5639451146125793
1761338249601461200,5.947461181640625,-0.6678798198699951,0.4723239541053772,0.7967851161956787
1761338249611526100,5.957526123046875,-0.653908908367157,0.24275119602680206,0.8715224266052246
1761338249621592300,5.96759228515625,-0.6581183671951294,-0.03552589565515518,0.8428522348403931
1761338249631657200,5.9776572265625,-0.7214752435684204,-0.2977558970451355,0.7343087196350098
1761338249641723100,5.98772314453125,-0.8391884565353394,-0.48668143153190613,0.5405171513557434
1761338249651789300,5.997789306640625,-1.001046061515808,-0.5517269968986511,0.2849905490875244
1761338249661854200,6.007854248046875,-1.1817526817321777,-0.531067967414856,0.007391389925032854
1761338249671920400,6.01792041015625,-1.3267638683319092,-0.4712826609611511,-0.26095113158226013
1761338249681986000,6.027986083984375,-1.4199703931808472,-0.36202090978622437,-0.4731881320476532
1761338249692051200,6.03805126953125,-1.4792925119400024,-0.21108172833919525,-0.5986326336860657
1761338249702117000,6.0481171875,-1.5163661241531372,-0.026305150240659714,-0.6568841338157654
1761338249712182300,6.058182373046875,-1.521579623222351,0.1591760367155075,-0.6774753928184509
1761338249722248200,6.068248291015625,-1.482647180557251,0.2818320393562317,-0.7063151001930237
1761338249732314000,6.078314208984375,-1.3961820602416992,0.35871538519859314,-0.7612894177436829
1761338249742379300,6.088379150390625,-1.3126801252365112,0.35613152384757996,-0.8016430139541626
1761338249752445200,6.098445068359375,-1.2515901327133179,0.2510128319263458,-0.8020459413528442
1761338249762510300,6.10851025390625,-1.1745567321777344,0.1272198110818863,-0.7404000163078308
1761338249772576000,6.118575927734375,-1.055324912071228,0.0034901415929198265,-0.6058763265609741
1761338249782642200,6.12864208984375,-0.921606183052063,-0.13116341829299927,-0.39833101630210876
1761338249792707300,6.138707275390625,-0.8390905261039734,-0.25582653284072876,-0.10367914289236069
1761338249802773200,6.148773193359375,-0.8334184288978577,-0.2933233678340912,0.21681557595729828
1761338249812838100,6.158838134765625,-0.8837031722068787,-0.22302472591400146,0.4874981939792633
1761338249822904000,6.168904052734375,-0.9733007550239563,-0.13226108253002167,0.6370249390602112
1761338249832970200,6.17897021484375,-1.070878505706787,-0.02596740424633026,0.6817583441734314
1761338249843036000,6.189035888671875,-1.1498163938522339,0.08368569612503052,0.6527008414268494
1761338249853102000,6.19910205078125,-1.2240309715270996,0.1422792226076126,0.5606739521026611
1761338249863166700,6.209166748046875,-1.286622166633606,0.12994468212127686,0.4361186623573303
1761338249873233000,6.21923291015625,-1.3280223608016968,0.06735081225633621,0.3007424771785736
1761338249883298800,6.229298828125,-1.3667064905166626,0.006900426931679249,0.16922469437122345
1761338249893364000,6.239364013671875,-1.427856683731079,-0.03084695339202881,0.061807695776224136
1761338249903429600,6.2494296875,-1.4940605163574219,-0.05962774157524109,-0.017681263387203217
1761338249913494800,6.259494873046875,-1.5392788648605347,-0.06023148074746132,-0.0705024003982544
1761338249923561000,6.26956103515625,-1.5815293788909912,-0.0813358873128891,-0.10415875166654587
1761338249933627000,6.279626953125,-1.6347324848175049,-0.11224319785833359,-0.11072929948568344
1761338249943692000,6.289692138671875,-1.687866449356079,-0.1488281786441803,-0.1104382872581482
1761338249953757700,6.2997578125,-1.723571538925171,-0.20375080406665802,-0.13118751347064972
1761338249963822800,6.30982275390625,-1.731393575668335,-0.3063361942768097,-0.18119320273399353
1761338249973888800,6.319888671875,-1.744013786315918,-0.4250466227531433,-0.24837251007556915
1761338249983955000,6.329954833984375,-1.7731215953826904,-0.4945313632488251,-0.31484100222587585
1761338249994019800,6.340019775390625,-1.8166024684906006,-0.49107858538627625,-0.36315447092056274
1761338250004085800,6.350085693359375,-1.8876614570617676,-0.4981389045715332,-0.420629620552063
1761338250014151000,6.36015087890625,-1.9512499570846558,-0.411588579416275,-0.4302510917186737
1761338250024216800,6.370216796875,-1.9687408208847046,-0.23408594727516174,-0.33390459418296814
1761338250034283000,6.380282958984375,-1.9211375713348389,-0.12741942703723907,-0.17239610850811005
1761338250044347600,6.39034765625,-1.8402502536773682,-0.07525768131017685,0.012362622655928135
1761338250054413800,6.400413818359375,-1.762696623802185,-0.023546282202005386,0.2133607119321823
1761338250064479000,6.41047900390625,-1.7199922800064087,0.021532539278268814,0.3869584798812866
1761338250074545000,6.420544921875,-1.6870380640029907,0.03407283127307892,0.4376285672187805
1761338250084610800,6.43061083984375,-1.6223646402359009,0.11504976451396942,0.35695311427116394
1761338250094675700,6.44067578125,-1.4853293895721436,0.35358962416648865,0.15743255615234375
1761338250104742000,6.450741943359375,-1.3305578231811523,0.502186119556427,-0.05204448476433754
1761338250114807800,6.460807861328125,-1.2375330924987793,0.4919790029525757,-0.23339404165744781
1761338250124873000,6.470873046875,-1.1934010982513428,0.3990064263343811,-0.383190780878067
1761338250134939000,6.48093896484375,-1.2283062934875488,0.2274746149778366,-0.5496969819068909
1761338250145003800,6.491003662109375,-1.32437264919281,0.06842072308063507,-0.7447598576545715
1761338250155070000,6.501070068359375,-1.4140596389770508,-0.0041621290147304535,-0.8175882697105408
1761338250165136000,6.511135986328125,-1.5703784227371216,-0.09741038829088211,-0.6597574353218079
1761338250175201000,6.521200927734375,-1.790463924407959,-0.18418070673942566,-0.2591719329357147
1761338250185266700,6.5312666015625,-1.9752446413040161,-0.11664959043264389,0.2567689120769501
1761338250195331800,6.541331787109375,-2.060128927230835,0.03734689578413963,0.7564018964767456
1761338250205397800,6.551397705078125,-2.065312385559082,0.14648328721523285,1.1169335842132568
1761338250215464000,6.5614638671875,-2.011929750442505,0.1925671547651291,1.2966560125350952
1761338250225528800,6.57152880859375,-1.9397029876708984,0.18699809908866882,1.3274219036102295
1761338250235594800,6.5815947265625,-1.8840354681015015,0.09939714521169662,1.1996612548828125
1761338250245660000,6.591659912109375,-1.8523880243301392,-0.01844969019293785,0.9280077219009399
1761338250255725800,6.601725830078125,-1.816153883934021,0.01545900758355856,0.5747686624526978
1761338250265792000,6.6117919921875,-1.78988778591156,0.15032489597797394,0.16763876378536224
1761338250275856600,6.621856689453125,-1.7690544128417969,0.20243656635284424,-0.2386815845966339
1761338250285922800,6.6319228515625,-1.7434170246124268,0.11110560595989227,-0.5871255397796631
1761338250295988000,6.641988037109375,-1.7172822952270508,-0.08434831351041794,-0.8527547717094421
1761338250306054000,6.652053955078125,-1.738873839378357,-0.3569834530353546,-0.9908859133720398
1761338250316119800,6.662119873046875,-1.8509875535964966,-0.6021924018859863,-0.9888232946395874
1761338250326184700,6.672184814453125,-2.0236940383911133,-0.7869678735733032,-0.8579226136207581
1761338250336251000,6.6822509765625,-2.214599132537842,-0.8942458629608154,-0.6656090617179871
1761338250346315800,6.692315673828125,-2.358330011367798,-0.8794569373130798,-0.5013217926025391
1761338250356382000,6.7023818359375,-2.450591802597046,-0.6884829998016357,-0.39167705178260803
1761338250366447900,6.71244775390625,-2.485229253768921,-0.4099106788635254,-0.34221935272216797
1761338250376512800,6.7225126953125,-2.486829996109009,-0.09673281013965607,-0.3255136013031006
1761338250386578700,6.73257861328125,-2.486589193344116,0.2125333547592163,-0.29414811730384827
1761338250396643800,6.742643798828125,-2.508042097091675,0.40417203307151794,-0.2493380308151245
1761338250406710000,6.7527099609375,-2.5398519039154053,0.438648521900177,-0.2019691914319992
1761338250416776000,6.76277587890625,-2.5687754154205322,0.3346869647502899,-0.17585502564907074
1761338250426840800,6.7728408203125,-2.5568935871124268,0.1762145459651947,-0.16286756098270416
1761338250436906800,6.78290673828125,-2.5361135005950928,0.008193315006792545,-0.16097645461559296
1761338250446972000,6.792971923828125,-2.5314300060272217,-0.16523532569408417,-0.18105733394622803
1761338250457037800,6.803037841796875,-2.5504863262176514,-0.2922755479812622,-0.23800930380821228
1761338250467104000,6.81310400390625,-2.5601956844329834,-0.33816981315612793,-0.32238829135894775
1761338250477169000,6.8231689453125,-2.5414113998413086,-0.29807671904563904,-0.42617326974868774
1761338250487234800,6.83323486328125,-2.523580312728882,-0.21215854585170746,-0.5224611759185791
1761338250497300000,6.843300048828125,-2.516033887863159,-0.12596188485622406,-0.5972720384597778
1761338250507366000,6.853365966796875,-2.526841640472412,-0.0831575095653534,-0.6429134607315063
1761338250517431800,6.863431884765625,-2.54319429397583,-0.06433428823947906,-0.6622037887573242
1761338250527496700,6.87349658203125,-2.5628325939178467,-0.08014989644289017,-0.6747786998748779
1761338250537563000,6.88356298828125,-2.5698912143707275,-0.12462761253118515,-0.6840811371803284
1761338250547628000,6.8936279296875,-2.5402328968048096,-0.15909215807914734,-0.6838933229446411
1761338250557694000,6.90369384765625,-2.460242748260498,-0.1547192633152008,-0.6784932613372803
1761338250567760000,6.913759765625,-2.3524110317230225,-0.1410316526889801,-0.6679425835609436
1761338250577824800,6.92382470703125,-2.242844581604004,-0.10656343400478363,-0.6511803865432739
1761338250587891000,6.933890869140625,-2.1375296115875244,-0.06869074702262878,-0.6403275728225708
1761338250597955800,6.943955810546875,-2.0291388034820557,-0.02478320710361004,-0.622692346572876
1761338250608021800,6.954021728515625,-1.9188956022262573,-0.002064889296889305,-0.6101213693618774
1761338250618087700,6.964087646484375,-1.8080159425735474,-0.04029722884297371,-0.5956244468688965
1761338250628152800,6.97415283203125,-1.711152195930481,-0.15259210765361786,-0.5750935077667236
1761338250638218800,6.98421875,-1.6333287954330444,-0.30062150955200195,-0.5499924421310425
1761338250648285000,6.994284912109375,-1.5786796808242798,-0.4380608797073364,-0.5133605003356934
1761338250658349800,7.004349853515625,-1.527408480644226,-0.5279260873794556,-0.5060077905654907
1761338250668415700,7.014415771484375,-1.47015380859375,-0.5744262933731079,-0.5044606924057007
1761338250678481000,7.02448095703125,-1.395334243774414,-0.5444023609161377,-0.4845338463783264
1761338250688546800,7.034546875,-1.32030189037323,-0.43331119418144226,-0.4097677767276764
1761338250698613000,7.044613037109375,-1.2545806169509888,-0.3013686239719391,-0.3221236765384674
1761338250708678000,7.054677978515625,-1.259186863899231,-0.22321288287639618,-0.24152126908302307
1761338250718743800,7.064743896484375,-1.3190124034881592,-0.17840200662612915,-0.1730729639530182
1761338250728809000,7.07480908203125,-1.3861033916473389,-0.17746596038341522,-0.1172611191868782
1761338250738875000,7.084875,-1.4262734651565552,-0.20973095297813416,-0.0666661188006401
1761338250748941000,7.094941162109375,-1.4133753776550293,-0.25211843848228455,0.026570189744234085
1761338250759005700,7.105005615234375,-1.414687991142273,-0.37889984250068665,0.23288872838020325
1761338250769071900,7.11507177734375,-1.51929771900177,-0.5462679862976074,0.4917651414871216
1761338250779137000,7.125136962890625,-1.6006767749786377,-0.5718795657157898,0.5624786615371704
1761338250789203000,7.135202880859375,-1.4273505210876465,-0.27362993359565735,0.38128960132598877
1761338250799268900,7.145268798828125,-1.0550906658172607,0.04585032910108566,0.013883881270885468
1761338250809333800,7.155333740234375,-0.7107850909233093,-0.004123932681977749,-0.3809507489204407
1761338250819400000,7.16539990234375,-0.585810124874115,-0.2864256501197815,-0.6997103095054626
1761338250829464800,7.17546484375,-0.694998562335968,-0.5261876583099365,-0.9147984385490417
1761338250839531000,7.185531005859375,-0.9097055792808533,-0.5697292685508728,-1.0240371227264404
1761338250849596700,7.1955966796875,-1.1489554643630981,-0.3354857563972473,-0.9574363827705383
1761338250859661800,7.205661865234375,-1.3403691053390503,-0.007062871940433979,-0.7158865928649902
1761338250869727700,7.215727783203125,-1.4384030103683472,0.20404161512851715,-0.32270264625549316
1761338250879793000,7.22579296875,-1.4270308017730713,0.29777318239212036,0.16536715626716614
1761338250889858800,7.23585888671875,-1.2740895748138428,0.40651997923851013,0.6335011124610901
1761338250899924700,7.2459248046875,-0.9979843497276306,0.4208233058452606,0.9909279346466064
1761338250909990000,7.255989990234375,-0.7139225006103516,0.2458193004131317,1.2418863773345947
1761338250920055800,7.266055908203125,-0.4944319725036621,-0.05503932386636734,1.4147721529006958
1761338250930120700,7.27612060546875,-0.36155712604522705,-0.38899415731430054,1.4779361486434937
1761338250940186600,7.2861865234375,-0.3101104497909546,-0.6438019871711731,1.401614785194397
1761338250950252800,7.296252685546875,-0.29196619987487793,-0.7400901913642883,1.158747673034668
1761338250960318000,7.30631787109375,-0.2825862765312195,-0.6632484197616577,0.7928417921066284
1761338250970384000,7.3163837890625,-0.3263632655143738,-0.4692544937133789,0.35417887568473816
1761338250980448800,7.32644873046875,-0.4786185920238495,-0.2745060324668884,-0.061609793454408646
1761338250990514700,7.3365146484375,-0.6714046597480774,-0.09203162789344788,-0.4054930806159973
1761338251000580900,7.346580810546875,-0.8280081152915955,0.08644384145736694,-0.6516664028167725
1761338251010645800,7.356645751953125,-0.92439866065979,0.2050192952156067,-0.7852099537849426
1761338251020712000,7.3667119140625,-0.9603694677352905,0.25462040305137634,-0.7930462956428528
1761338251030776800,7.37677685546875,-0.9394603371620178,0.27160823345184326,-0.7149972319602966
1761338251040842800,7.3868427734375,-0.884371280670166,0.266137033700943,-0.5886017680168152
1761338251050909000,7.396908935546875,-0.7932212352752686,0.2776159942150116,-0.43900853395462036
1761338251060973800,7.406973876953125,-0.6741161942481995,0.3685464560985565,-0.27746039628982544
1761338251071040000,7.4170400390625,-0.5424834489822388,0.42486095428466797,-0.12561483681201935
1761338251081104600,7.427104736328125,-0.39023375511169434,0.3522980809211731,0.0025636330246925354
1761338251091170800,7.4371708984375,-0.24341535568237305,0.23009027540683746,0.14347949624061584
1761338251101236700,7.44723681640625,-0.1059083491563797,0.1335509568452835,0.28678926825523376
1761338251111302000,7.457302001953125,0.0034345081076025963,-0.012922288849949837,0.38346827030181885
1761338251121367800,7.467367919921875,0.08912624418735504,-0.17227999866008759,0.43409469723701477
1761338251131432700,7.4774326171875,0.16091623902320862,-0.25872278213500977,0.4502321183681488
1761338251141499000,7.487498779296875,0.21976864337921143,-0.2756786048412323,0.4450557231903076
1761338251151564800,7.497564697265625,0.2391291856765747,-0.2483552247285843,0.4243503510951996
1761338251161630000,7.5076298828125,0.20721092820167542,-0.1979820728302002,0.371198445558548
1761338251171695600,7.517695556640625,0.14042425155639648,-0.10699772834777832,0.2661551535129547
1761338251181761800,7.52776171875,0.07482819259166718,-0.000014814548194408417,0.11641333997249603
1761338251191827000,7.537826904296875,0.02939494699239731,0.06865865737199783,-0.06804209202528
1761338251201892900,7.547892822265625,0.022228647023439407,0.08274119347333908,-0.25069206953048706
1761338251211957800,7.557957763671875,0.04838687181472778,0.05600199103355408,-0.40488964319229126
1761338251222023700,7.568023681640625,0.07473831623792648,-0.027055345475673676,-0.526106595993042
1761338251232089900,7.57808984375,0.0901680588722229,-0.14959345757961273,-0.623156726360321
1761338251242154800,7.58815478515625,0.1302185356616974,-0.21110127866268158,-0.6717109680175781
1761338251252221000,7.598220947265625,0.15517771244049072,-0.16984936594963074,-0.674925684928894
1761338251262285800,7.608285888671875,0.13733559846878052,-0.1471392661333084,-0.6336245536804199
1761338251272351700,7.618351806640625,0.09673125296831131,-0.16532090306282043,-0.5493659973144531
1761338251282417700,7.628417724609375,0.06989937275648117,-0.1651637703180313,-0.40998759865760803
1761338251292482800,7.63848291015625,0.0811842679977417,-0.1333789825439453,-0.2400757372379303
1761338251302549000,7.648549072265625,0.11221275478601456,-0.06487315893173218,-0.03253266215324402
1761338251312613600,7.658613525390625,0.13959674537181854,0.036312285810709,0.18638966977596283
1761338251322679800,7.6686796875,0.14436273276805878,0.1602717787027359,0.3779820203781128
1761338251332745700,7.678745849609375,0.1634981483221054,0.24375653266906738,0.5285964012145996
1761338251342811000,7.688810791015625,0.2143741101026535,0.270941823720932,0.6615286469459534
1761338251352876800,7.698876708984375,0.29993322491645813,0.27698153257369995,0.8140677213668823
1761338251362941700,7.708941650390625,0.38638290762901306,0.2711750268936157,1.004778265953064
1761338251373008000,7.7190078125,0.4544518291950226,0.2007940262556076,1.218019962310791
1761338251383073800,7.72907373046875,0.4982951879501343,0.033073730766773224,1.4630659818649292
1761338251393139000,7.739138916015625,0.5391354560852051,-0.17397509515285492,1.6669824123382568
1761338251403204900,7.749204833984375,0.5863546133041382,-0.1499382108449936,1.724716305732727
1761338251413269800,7.759269775390625,0.652428388595581,0.20738466084003448,1.5450963973999023
1761338251423335700,7.769335693359375,0.6948914527893066,0.657203733921051,1.193115234375
1761338251433401900,7.77940185546875,0.7269527912139893,0.9454758167266846,0.7284207344055176
1761338251443467000,7.789467041015625,0.8157535195350647,0.9574168920516968,0.23135024309158325
1761338251453532700,7.79953271484375,0.9057216048240662,0.7841616272926331,-0.23778653144836426
1761338251463597800,7.809597900390625,0.9085203409194946,0.5446539521217346,-0.6036377549171448
1761338251473663700,7.819663818359375,0.8522205948829651,0.20878960192203522,-0.8288127779960632
1761338251483730000,7.82972998046875,0.7554519772529602,-0.12806884944438934,-0.872833251953125
1761338251493794800,7.839794921875,0.6360359191894531,-0.3078373670578003,-0.7277809977531433
1761338251503860700,7.84986083984375,0.5261275172233582,-0.23700177669525146,-0.3876388370990753
1761338251513926000,7.85992578125,0.41468217968940735,0.026021718978881836,0.10409078747034073
1761338251523991800,7.86999169921875,0.28649383783340454,0.3660045862197876,0.6464086771011353
1761338251534057700,7.8800576171875,0.20839673280715942,0.691799521446228,1.111668348312378
1761338251544122600,7.89012255859375,0.24986587464809418,0.9415709972381592,1.4275442361831665
1761338251554188800,7.900188720703125,0.36761918663978577,1.131917119026184,1.5680046081542969
1761338251564253700,7.910253662109375,0.49666425585746765,1.229277491569519,1.5407311916351318
1761338251574319900,7.92031982421875,0.6401517391204834,1.2778908014297485,1.3564380407333374
1761338251584385800,7.9303857421875,0.7994763851165771,1.2575716972351074,1.0254563093185425
1761338251594450700,7.94045068359375,0.9700228571891785,1.1395502090454102,0.5972827076911926
1761338251604515800,7.950515869140625,1.135137915611267,0.9610283970832825,0.17075368762016296
1761338251614581800,7.960581787109375,1.2580993175506592,0.7521136999130249,-0.17348268628120422
1761338251624648000,7.97064794921875,1.314971923828125,0.5088493824005127,-0.4323669970035553
1761338251634712600,7.980712646484375,1.3373348712921143,0.23552098870277405,-0.6108039617538452
1761338251644778800,7.99077880859375,1.355416178703308,-0.03683038428425789,-0.7224607467651367
1761338251654844700,8.0008447265625,1.350800633430481,-0.31093794107437134,-0.7502326369285583
1761338251664909800,8.010909912109375,1.3168396949768066,-0.5402880311012268,-0.7119629979133606
1761338251674976000,8.02097607421875,1.25088369846344,-0.7078691124916077,-0.630987286567688
1761338251685040600,8.03104052734375,1.192091703414917,-0.7994736433029175,-0.5115330219268799
1761338251695106800,8.04110693359375,1.120847463607788,-0.7344188690185547,-0.3525182902812958
1761338251705172700,8.0511728515625,1.031575083732605,-0.5757032632827759,-0.20823781192302704
1761338251715238000,8.06123779296875,0.9470942616462708,-0.3319721221923828,-0.12430277466773987
1761338251725303800,8.0713037109375,0.9013057351112366,0.04105444997549057,-0.0833529382944107
1761338251735368700,8.08136865234375,0.892572820186615,0.40728408098220825,-0.0746973529458046
1761338251745435000,8.091434814453125,0.9159828424453735,0.5981815457344055,-0.04928813502192497
1761338251755500800,8.101500732421876,0.9331578016281128,0.5895041823387146,-0.0006262576207518578
1761338251765566000,8.11156591796875,0.9240884184837341,0.4808730185031891,0.0724218487739563
1761338251775632000,8.1216318359375,0.905146062374115,0.31553277373313904,0.12315306812524796
1761338251785696800,8.13169677734375,0.8894312977790833,0.14080889523029327,0.12529398500919342
1761338251795762700,8.1417626953125,0.8902378082275391,0.039303701370954514,0.07604716718196869
1761338251805828900,8.151828857421876,0.9327788949012756,0.03043990209698677,-0.0268389955163002
1761338251815894000,8.16189404296875,1.0093930959701538,0.05168977379798889,-0.17540597915649414
1761338251825960000,8.1719599609375,1.1212190389633179,0.05466931313276291,-0.315999835729599
1761338251836024800,8.18202490234375,1.2247999906539917,0.03145753964781761,-0.41314175724983215
1761338251846090200,8.19209033203125,1.3014020919799805,0.052792925387620926,-0.4324251711368561
1761338251856156400,8.202156494140626,1.343672752380371,0.09460951387882233,-0.3839302957057953
1761338251866221300,8.21222119140625,1.332698106765747,0.08516807854175568,-0.30854660272598267
1761338251876287200,8.222287353515625,1.2969928979873657,0.0169963501393795,-0.2286505252122879
1761338251886352400,8.232352294921874,1.2440460920333862,-0.10707047581672668,-0.16582921147346497
1761338251896418300,8.242418212890625,1.1644549369812012,-0.26078110933303833,-0.11961942166090012
1761338251906484500,8.252484375,1.0513960123062134,-0.39417803287506104,-0.07011046260595322
1761338251916549000,8.262549072265625,0.93780916929245,-0.4406227469444275,0.009381369687616825
1761338251926615300,8.272615234375,0.8002821803092957,-0.40011873841285706,0.11623750627040863
1761338251936680200,8.28268017578125,0.6311390399932861,-0.2499280720949173,0.22015677392482758
1761338251946746400,8.292746337890625,0.49033400416374207,-0.031316109001636505,0.26405152678489685
1761338251956812300,8.302812255859376,0.40850314497947693,0.21566765010356903,0.2393614798784256
1761338251966877200,8.312877197265625,0.41261613368988037,0.44691577553749084,0.17039626836776733
1761338251976943400,8.322943359375,0.4890614151954651,0.5602254271507263,0.10935792326927185
1761338251987009300,8.33300927734375,0.6311448216438293,0.5677744150161743,0.07269178330898285
1761338251997074400,8.343074462890625,0.7704695463180542,0.42812931537628174,0.11606971174478531
1761338252007140400,8.353140380859376,0.864632785320282,0.2242467701435089,0.23060667514801025
1761338252017206300,8.363206298828125,0.9185598492622375,-0.024690236896276474,0.3681142032146454
1761338252027271200,8.373271240234375,0.9867785573005676,-0.24880535900592804,0.47859758138656616
1761338252037337300,8.38333740234375,1.1565369367599487,-0.3780398368835449,0.5021244287490845
1761338252047403300,8.3934033203125,1.356926679611206,-0.46134111285209656,0.42186740040779114
1761338252057468400,8.403468505859376,1.5342206954956055,-0.5031625032424927,0.309839129447937
1761338252067534300,8.413534423828125,1.6041091680526733,-0.4857502281665802,0.2443983405828476
1761338252077599200,8.42359912109375,1.495275855064392,-0.341141015291214,0.21628226339817047
1761338252087665400,8.43366552734375,1.3782958984375,-0.09633765369653702,0.10601408034563065
1761338252097730300,8.443730224609375,1.3136718273162842,0.0588512197136879,-0.09446347504854202
1761338252107796200,8.453796142578126,1.269377589225769,-0.047255776822566986,-0.24407239258289337
1761338252117862100,8.463862060546875,1.2250943183898926,-0.3067605793476105,-0.24711452424526215
1761338252127927300,8.47392724609375,1.1726553440093994,-0.5160573124885559,-0.14191380143165588
1761338252137993200,8.4839931640625,1.1507353782653809,-0.5256368517875671,-0.049350231885910034
1761338252148059400,8.494059326171875,1.1525644063949585,-0.2992359697818756,0.00910482369363308
1761338252158124300,8.504124267578124,1.163670301437378,-0.02691602148115635,0.13154499232769012
1761338252168190200,8.514190185546875,1.1997175216674805,0.1511400043964386,0.3681623339653015
1761338252178255400,8.52425537109375,1.271954894065857,0.24731402099132538,0.6496531963348389
1761338252188321300,8.5343212890625,1.3548394441604614,0.2702568471431732,0.8641806840896606
1761338252198387500,8.544387451171875,1.451744556427002,0.2796924412250519,0.9706617593765259
1761338252208452400,8.554452392578124,1.5284124612808228,0.29325273633003235,1.04123055934906
1761338252218518300,8.564518310546875,1.5575149059295654,0.2385653406381607,1.076677918434143
1761338252228583400,8.57458349609375,1.5351994037628174,0.07685208320617676,1.103037714958191
1761338252238649300,8.5846494140625,1.4785337448120117,-0.0918978750705719,1.0110241174697876
1761338252248715500,8.594715576171875,1.4168074131011963,-0.1946740597486496,0.7368477582931519
1761338252258780200,8.6047802734375,1.3228312730789185,-0.19629797339439392,0.31693771481513977
1761338252268846300,8.614846435546875,1.1410578489303589,-0.1008119285106659,-0.18131227791309357
1761338252278911200,8.6249111328125,0.9162814021110535,0.04074715077877045,-0.6948728561401367
1761338252288977400,8.634977294921875,0.7344889640808105,0.21178919076919556,-1.1222285032272339
1761338252299043300,8.645043212890625,0.6106628179550171,0.2614242434501648,-1.2816863059997559
1761338252309108200,8.655108154296874,0.540648877620697,0.23692236840724945,-1.1854047775268555
1761338252319174400,8.66517431640625,0.5170453786849976,0.15956135094165802,-0.9473156332969666
1761338252329239300,8.6752392578125,0.5493636727333069,0.11197732388973236,-0.6087372899055481
1761338252339305500,8.685305419921875,0.6367080211639404,0.12429017573595047,-0.22191929817199707
1761338252349371100,8.69537109375,0.758227527141571,0.1137312725186348,0.1672082096338272
1761338252359436300,8.705436279296874,0.8873696327209473,0.0837930217385292,0.49836111068725586
1761338252369502200,8.715502197265625,1.0358392000198364,0.09337747097015381,0.7370269298553467
1761338252379567400,8.7255673828125,1.161085844039917,0.10858180373907089,0.878338634967804
1761338252389633500,8.735633544921875,1.2318044900894165,0.08474065363407135,0.9346631765365601
1761338252399699200,8.74569921875,1.263718843460083,0.050462305545806885,0.9282265305519104
1761338252409764400,8.755764404296874,1.28941810131073,0.006108423694968224,0.8591912388801575
1761338252419830300,8.765830322265625,1.3070203065872192,-0.03262331709265709,0.7520613670349121
1761338252429895400,8.7758955078125,1.3108422756195068,-0.05172084644436836,0.6135474443435669
1761338252439961000,8.785961181640625,1.3000997304916382,-0.058995045721530914,0.47638481855392456
1761338252450027300,8.79602734375,1.2800681591033936,-0.07970378547906876,0.3451695442199707
1761338252460092400,8.806092529296874,1.279335618019104,-0.08882812410593033,0.2327914535999298
1761338252470158300,8.816158447265625,1.2794362306594849,-0.09149554371833801,0.1308850646018982
1761338252480224300,8.826224365234374,1.266169786453247,-0.09434323757886887,0.034545887261629105
1761338252490289200,8.8362890625,1.2421683073043823,-0.0972823053598404,-0.051916033029556274
1761338252500355300,8.846355224609376,1.2105228900909424,-0.09877201914787292,-0.12293799221515656
1761338252510420200,8.856420166015624,1.1777294874191284,-0.11733425408601761,-0.18081194162368774
1761338252520486400,8.866486328125,1.1475273370742798,-0.12920603156089783,-0.18854042887687683
1761338252530552300,8.87655224609375,1.1259887218475342,-0.09995866566896439,-0.13745620846748352
1761338252540617200,8.8866171875,1.109365463256836,-0.08763788640499115,-0.0796947181224823
1761338252550683100,8.89668310546875,1.110428810119629,-0.03866342082619667,-0.04810190573334694
1761338252560748300,8.906748291015624,1.111433506011963,0.01582813449203968,-0.05889980494976044
1761338252570814500,8.916814453125,1.0958691835403442,0.06034287437796593,-0.09548977762460709
1761338252580880400,8.92688037109375,1.0411972999572754,0.08571223169565201,-0.14633336663246155
1761338252590945300,8.9369453125,0.9631746411323547,0.11081598699092865,-0.1904454231262207
1761338252601011200,8.94701123046875,0.8917109966278076,0.1389601081609726,-0.22210168838500977
1761338252611076400,8.957076416015624,0.8484529852867126,0.16363002359867096,-0.22227318584918976
1761338252621142300,8.967142333984375,0.8494254350662231,0.16360308229923248,-0.2056179940700531
1761338252631208400,8.97720849609375,0.8668131828308105,0.12845946848392487,-0.19272243976593018
1761338252641273300,8.9872734375,0.8849142789840698,0.04567793756723404,-0.18978045880794525
1761338252651339300,8.99733935546875,0.8847560882568359,-0.028493229299783707,-0.19407640397548676
1761338252661404400,9.007404296875,0.8537920117378235,-0.09400557726621628,-0.205871120095253
1761338252671470300,9.01747021484375,0.7922189831733704,-0.12032479792833328,-0.18813340365886688
1761338252681536300,9.027536376953124,0.6871944069862366,-0.12854981422424316,-0.11376626044511795
1761338252691601200,9.03760107421875,0.5556710362434387,-0.15500593185424805,0.013375179842114449
1761338252701667300,9.047667236328126,0.41456854343414307,-0.14799949526786804,0.1674221158027649
1761338252711732500,9.057732421875,0.3067757487297058,-0.09847322851419449,0.3239057660102844
1761338252721798400,9.06779833984375,0.25149160623550415,-0.04256575182080269,0.4315270185470581
1761338252731864300,9.0778642578125,0.29260361194610596,-0.0034119589254260063,0.4853481650352478
1761338252741929200,9.08792919921875,0.45091569423675537,0.04047233983874321,0.45529085397720337
1761338252751995400,9.097995361328126,0.6084877252578735,0.18585935235023499,0.3018570840358734
1761338252762060300,9.108060302734375,0.5906487703323364,0.42871737480163574,0.03169231116771698
1761338252772126200,9.118126220703125,0.4825223386287689,0.7003163695335388,-0.2873503863811493
1761338252782192000,9.128192138671874,0.47493162751197815,0.8810070157051086,-0.5945812463760376
1761338252792257300,9.13825732421875,0.5469956994056702,0.7930215001106262,-0.7876745462417603
1761338252802323500,9.148323486328126,0.5506728887557983,0.4698767364025116,-0.8660892844200134
1761338252812388400,9.158388427734375,0.4477829933166504,0.10062253475189209,-0.8335433602333069
1761338252822454300,9.168454345703125,0.3054794669151306,-0.24612823128700256,-0.695813775062561
1761338252832520200,9.178520263671874,0.1919289529323578,-0.3872920274734497,-0.44680556654930115
1761338252842584800,9.188584716796875,0.16018269956111908,-0.3003363013267517,-0.14814361929893494
1761338252852651000,9.198651123046876,0.25910046696662903,-0.0527544841170311,0.16145232319831848
1761338252862716000,9.2087158203125,0.4468473196029663,0.211139515042305,0.37544360756874084
1761338252872782000,9.218781982421875,0.644793689250946,0.3879867196083069,0.4684971272945404
1761338252882848000,9.228847900390624,0.7897600531578064,0.45064619183540344,0.5275976061820984
1761338252892913000,9.238912841796875,0.8359438180923462,0.48125097155570984,0.6060924530029297
1761338252902978800,9.248978759765626,0.7715340256690979,0.4715377986431122,0.7231176495552063
1761338252913045000,9.259044921875,0.6876702904701233,0.43275126814842224,0.8214303851127625
1761338252923110000,9.26910986328125,0.6685750484466553,0.4406231641769409,0.8414686918258667
1761338252933176000,9.279176025390624,0.6956855058670044,0.5021578669548035,0.7701918482780457
1761338252943241000,9.289240966796875,0.7379401922225952,0.5408809781074524,0.652734637260437
1761338252953307000,9.299306884765626,0.7747858166694641,0.5116139054298401,0.508838415145874
1761338252963373000,9.309373046875,0.8202559947967529,0.37767651677131653,0.3250176012516022
1761338252973438000,9.31943798828125,0.8719279766082764,0.21220874786376953,0.09849231690168381
1761338252983504000,9.32950390625,0.9401378631591797,0.048684604465961456,-0.19314557313919067
1761338252993569000,9.339569091796875,1.0158984661102295,-0.15674765408039093,-0.5295305252075195
1761338253003635000,9.349635009765626,1.0738976001739502,-0.3427150845527649,-0.8871623873710632
1761338253013700900,9.359700927734375,1.092098355293274,-0.42887765169143677,-1.237457275390625
1761338253023766000,9.36976611328125,1.0514694452285767,-0.415632039308548,-1.488688349723816
1761338253033832000,9.37983203125,0.9318666458129883,-0.35610267519950867,-1.555406928062439
1761338253043896800,9.389896728515625,0.7690092921257019,-0.30929332971572876,-1.4270095825195312
1761338253053963000,9.399962890625,0.6454061269760132,-0.09841063618659973,-1.0583158731460571
1761338253064029000,9.41002880859375,0.556253969669342,0.22115185856819153,-0.561225950717926
1761338253074093800,9.42009375,0.5046488642692566,0.4372559189796448,-0.09583961218595505
1761338253084159700,9.43015966796875,0.48308438062667847,0.523947536945343,0.23735541105270386
1761338253094225000,9.440224853515625,0.4753335118293762,0.5840744972229004,0.40723422169685364
1761338253104291000,9.450291015625,0.4747980535030365,0.6239724159240723,0.4182949662208557
1761338253114357000,9.46035693359375,0.46233418583869934,0.5810531973838806,0.3208475112915039
1761338253124422000,9.470421875,0.5002743005752563,0.48084643483161926,0.16817529499530792
1761338253134487800,9.48048779296875,0.6033450365066528,0.35936954617500305,0.011771573685109615
1761338253144553000,9.490552978515625,0.7213337421417236,0.24706555902957916,-0.13976459205150604
1761338253154619000,9.500618896484376,0.805361807346344,0.1501062512397766,-0.28957751393318176
1761338253164685000,9.51068505859375,0.8499429225921631,0.1205843836069107,-0.41324156522750854
1761338253174750000,9.52075,0.8823813199996948,0.10293775051832199,-0.5279673337936401
1761338253184815900,9.53081591796875,0.8997392058372498,0.06825891882181168,-0.62637859582901
1761338253194881000,9.540881103515625,0.9263079166412354,0.000965368002653122,-0.6713846921920776
1761338253204947000,9.550947021484374,0.9374324679374695,0.0062363529577851295,-0.651472806930542
1761338253215013000,9.56101318359375,0.9249489307403564,0.034220848232507706,-0.5916659235954285
1761338253225077800,9.571077880859375,0.8710340261459351,0.013556189835071564,-0.5193164348602295
1761338253235144000,9.58114404296875,0.6929956078529358,-0.0025474121794104576,-0.22621077299118042
1761338253245209000,9.591208984375,0.4956265389919281,-0.24054376780986786,-0.10170973837375641
1761338253255275000,9.60127490234375,0.4151332974433899,-0.3543829917907715,-0.03547025844454765
1761338253265341000,9.6113408203125,0.34249746799468994,-0.3366408944129944,-0.02708054706454277
1761338253275405800,9.62140576171875,0.1805538386106491,-0.26522666215896606,-0.031675562262535095
1761338253285472000,9.631471923828125,-0.005155627150088549,-0.25082099437713623,-0.0379171259701252
1761338253295537000,9.641536865234375,-0.12851057946681976,-0.1564854383468628,-0.03131008893251419
1761338253305603000,9.65160302734375,-0.24348711967468262,-0.03235172852873802,0.03551602363586426
1761338253315668700,9.661668701171875,-0.2834409177303314,0.08072555810213089,0.20812667906284332
