time,seconds_elapsed,z,y,x
1761340675233132000,0.083132080078125,2.090835968452692,-0.5392108487766236,0.11362900952845811
1761340675243199200,0.09319921875,2.7315578842669725,-0.9268969648726284,0.1646156118568033
1761340675253266200,0.10326611328125,3.0014181967318057,-1.2988158221900463,0.164805435340479
1761340675263333000,0.1133330078125,3.07934899315238,-1.5332611224025487,0.2238404656983912
1761340675273401000,0.123401123046875,3.326073929223418,-1.5412949373848734,0.3513105882484466
1761340675283468000,0.133468017578125,3.6054958507597443,-1.4305705632567405,0.35768121925890445
1761340675293535000,0.143534912109375,3.517175762271881,-1.139407058261335,0.3044834436871111
1761340675303602000,0.153601806640625,3.575955283498764,-0.6085724812291562,0.33098625068739057
1761340675313668900,0.1636689453125,3.8689801984518764,-0.182890907933563,0.3813913268007338
1761340675323736000,0.173736083984375,4.029146210488677,-0.14086173823848366,0.6896915522970258
1761340675333803000,0.183802978515625,4.217198008316755,-0.14082389044612645,1.1176270419992507
1761340675343870000,0.193869873046875,4.225560178470611,0.04020874933488667,1.2157212863307445
1761340675353937000,0.20393701171875,3.8126533310741184,0.5539588475100696,1.074077019412443
1761340675364004000,0.214004150390625,3.225156809490919,1.0534535527743398,1.0891938514582813
1761340675374071000,0.224071044921875,2.9505682994604108,1.267040043222904,1.0588195367868989
1761340675384138000,0.234137939453125,3.0364801577627656,1.3889330232277513,0.9529841768093407
1761340675394205200,0.244205078125,2.9456676679372786,1.4884626341246068,0.4499703575082123
1761340675404272000,0.254272216796875,2.265651852610707,1.8550613193325698,-0.15461458845473824
1761340675414339000,0.264339111328125,0.9729448686897754,2.3953306641861793,-0.7142714284107089
1761340675424406000,0.274406005859375,-1.1168488972336053,2.604180627632141,-1.1326593375667928
1761340675434473000,0.284472900390625,-4.082829285359383,2.6035534356445074,-1.0572584980152546
1761340675444540000,0.294539794921875,-7.50068191909194,2.7817770824193953,0.22370938666462897
1761340675454607000,0.304607177734375,-11.359385638201235,1.8193783037938176,2.413309972991049
1761340675464674000,0.314674072265625,-14.3532740239501,1.2197656663507221,3.8345463061913847
1761340675474741000,0.324740966796875,-16.460753668689726,1.3156716799229382,2.8122844488859173
1761340675484808000,0.334807861328125,-16.895528064501285,0.7189078560397029,-0.8909650891393422
1761340675494875000,0.344875,-16.896428228211402,-1.1563134771376848,-3.4997739610940215
1761340675504943000,0.354943115234375,-16.820337506699563,-3.617449907925725,-3.7189161859735846
1761340675515010000,0.365010009765625,-16.865817985892296,-4.813374387700855,-4.003088224646449
1761340675525077000,0.375076904296875,-16.367919902169703,-5.084205298763513,-4.669505138209462
1761340675535144200,0.385144287109375,-14.61599557057619,-5.1872214366018765,-5.040768892619013
1761340675545211100,0.395211181640625,-12.230492765182255,-5.286220740014314,-5.368665798988938
1761340675555278000,0.405278076171875,-9.652341481819748,-5.197145449244975,-5.553244367748499
1761340675565345000,0.415344970703125,-6.824954156348109,-5.093675722420215,-5.176912224033474
1761340675575412000,0.425411865234375,-3.0853508639156817,-4.047702442398667,-5.9183940231919285
1761340675585479000,0.43547900390625,-0.04781038344502449,-3.0711583801731464,-5.675872384029627
1761340675595546000,0.445546142578125,2.39263455697,-2.3990347794011235,-4.6639989420086145
1761340675605613000,0.455613037109375,3.968093483632803,-0.45100276929587124,-4.4256940437585115
1761340675615680500,0.465680419921875,4.092243010392785,-0.008661445361375808,-3.354100877051055
1761340675625747500,0.47574755859375,4.4131075339078905,-0.14380918986722827,-2.055688082703948
1761340675635814400,0.485814453125,5.0367432903647416,-0.3215959065295756,0.078573624368757
1761340675645881300,0.49588134765625,5.32334197166264,0.7256517773419618,1.803050415457785
1761340675655948300,0.5059482421875,4.920256261056661,2.469178282946348,2.571908589580655
1761340675666015500,0.516015380859375,4.497501388862728,2.146862976101041,2.8568285240113735
1761340675676082400,0.52608251953125,4.443017519003153,1.4937170475214718,2.617147661232948
1761340675686149400,0.5361494140625,4.705888703233003,1.448804577475041,2.357009409098327
1761340675696216600,0.546216552734375,5.401346417841315,1.4926198999345301,2.224201797977835
1761340675706283500,0.556283447265625,6.418073145112395,1.145830150111392,2.409982436003536
1761340675716350500,0.5663505859375,7.5577721720576285,0.9393035881116986,2.4314881653688847
1761340675726417700,0.576417724609375,8.937962209120393,0.9898235227763652,2.0772603014342486
1761340675736485400,0.5864853515625,10.330216777986287,1.1050362943649292,1.9483270475290715
1761340675746552600,0.596552490234375,11.567374893164635,0.8625786603495478,2.266131014429778
1761340675756619500,0.60661962890625,12.607148149502276,0.5485105189763009,2.8251287328898904
1761340675766686500,0.6166865234375,13.440028713941574,0.36699747526720167,3.32835502589792
1761340675776753400,0.62675341796875,13.844120386719704,0.3055336833924055,3.6813530557766554
1761340675786820400,0.6368203125,13.700871607214212,0.25126287176162004,3.9758378141492603
1761340675796887300,0.64688720703125,12.931878116273879,0.27603695527315136,4.109264287820459
1761340675806954500,0.65695458984375,11.616921306622027,0.2954525804914534,4.050047836481035
1761340675817021400,0.667021484375,10.042499906313418,0.33746636995431034,3.9628345401912926
1761340675827088400,0.67708837890625,6.567310351377725,0.1329756611637771,4.293808369788527
1761340675837155600,0.687155517578125,6.06501783208847,-0.20794410064741967,3.3553877019912
1761340675847222500,0.697222412109375,4.780122983223199,0.28537005281839517,2.764886737895012
1761340675857289500,0.70728955078125,3.835252700895071,0.3850632202465087,2.5045021097838878
1761340675867356400,0.7173564453125,3.705996206384897,-0.0050719512357376515,2.6143852107822894
1761340675877423600,0.727423583984375,4.14734471988976,0.032072492324816994,3.015070874509215
1761340675887490600,0.737490478515625,4.852315528252721,0.07027348203386645,3.2627485812604426
1761340675897557500,0.7475576171875,5.559857063886523,0.017413866074988616,3.483573352399468
1761340675907624400,0.75762451171875,6.161248839831352,-0.05855618819925002,3.418524541644752
1761340675917691400,0.76769140625,6.205975870308279,-0.023459183254372327,3.0976258235991
1761340675927758300,0.77775830078125,6.12628215586841,0.08736910790596157,2.623725870579481
1761340675937825500,0.787825439453125,6.0944017474830146,0.24626621425179762,1.988359344318509
1761340675947892500,0.797892578125,5.993616729697584,0.5041330325894058,1.3243057988859712
1761340675957959400,0.80795947265625,5.506900549724698,0.7339175013840198,0.6112889005810022
1761340675968026400,0.8180263671875,4.030609853300452,1.2117866502955554,-0.34111733020991086
1761340675978094600,0.828094482421875,1.8228040404587984,1.8002507017366587,-1.3160074877485632
1761340675988161500,0.83816162109375,-0.6302911226928234,1.9344696409597992,-2.4798566210880875
1761340675998228500,0.848228515625,-3.247710002082586,1.753607170113921,-3.1363334476560354
1761340676008295400,0.85829541015625,-6.179579446291923,0.9287374781727791,-2.7368986607730386
1761340676018362600,0.868362548828125,-11.0353150121212,-0.9516633034691214,-1.8858447262614964
1761340676028429600,0.8784296875,-18.138691557574273,-2.3710716905899343,-2.4516987403571604
1761340676038496500,0.88849658203125,-25.84672794085741,-2.1680177000716325,-4.931673727127909
1761340676048563500,0.8985634765625,-33.67553356081247,-1.2947143782205879,-7.859896339267491
1761340676058630400,0.90863037109375,-40.243088242340086,0.09236662393230945,-9.219351046815515
1761340676068697300,0.918697265625,-43.64732502317428,1.3091833408169447,-9.779608848339318
1761340676078764500,0.9287646484375,-41.82549187357426,1.6494545755915342,-10.783978782862425
1761340676088831500,0.93883154296875,-34.61117541154623,0.047065318965073676,-11.17975855436921
1761340676098898400,0.9488984375,-24.639047264575957,-1.9803429188624022,-10.294503659570216
1761340676108965400,0.95896533203125,-14.882790065729617,-3.9723689689949153,-8.89152662115991
1761340676119032300,0.9690322265625,-7.108736611181497,-5.748567617884278,-7.930818718230724
1761340676129099300,0.979099365234375,-1.5538392155289649,-5.58919889370501,-6.425273870271444
1761340676139166700,0.989166748046875,2.263193938064575,-3.923734117424488,-3.569723695632815
1761340676149233700,0.999233642578125,4.581374434813857,-2.355966914308071,-0.2958068738218397
1761340676159300600,1.009300537109375,5.282359972932935,-0.8095108678329735,2.4205500072471797
1761340676169367600,1.019367431640625,4.926408938467502,0.7324068045601249,4.297723205144703
1761340676179434500,1.0294345703125,4.168329055729508,1.6350285753540694,5.258826537132263
1761340676189501400,1.03950146484375,3.347151788565516,2.160645125477016,5.72368393651843
1761340676199568400,1.049568359375,2.8787533555716274,2.2201953388154507,5.881044243484735
1761340676209635600,1.059635498046875,2.9178584545135497,2.004173145652562,5.779896822127699
1761340676219703600,1.06970361328125,3.5562580648601054,1.7547049022227525,5.28063387979269
1761340676229770500,1.0797705078125,4.779400514167547,1.6664413662277162,4.63591967947185
1761340676239837400,1.08983740234375,6.531950284183025,1.8194265268497167,4.143880843171477
1761340676249904400,1.099904296875,8.425503100603818,1.9243138653874396,3.7597593607544897
1761340676259971300,1.109971435546875,10.055616577517986,1.6075784045010804,2.9550395996555685
1761340676270038300,1.120038330078125,11.391293519115447,1.4806126512765883,2.23465421840921
1761340676280105500,1.13010546875,12.676508685976266,1.8852274711459873,2.202272582503408
1761340676290172700,1.140172607421875,13.92898361275196,1.7582606950081885,2.160281845122576
1761340676300239600,1.150239501953125,14.815609795904159,1.211233692587912,2.0161719187431038
1761340676310306600,1.160306640625,15.336993969154356,0.890669028802216,1.7426709116883574
1761340676320373500,1.17037353515625,15.511355679804085,0.8156532430455088,1.5137987354330718
1761340676330440400,1.1804404296875,15.308871451997756,0.6690528150245547,1.368711196193099
1761340676340507400,1.19050732421875,14.584761058878899,0.6892862594317645,1.4750912575066089
1761340676350574600,1.20057470703125,13.329045542746782,0.7767970042981207,1.6774880992904304
1761340676360641500,1.2106416015625,11.869170559072494,0.8218672221895307,1.6930787593930958
1761340676370708500,1.22070849609375,10.49670030260682,0.9393413628388195,1.5421625139996409
1761340676380775400,1.230775390625,9.235609523177146,1.1244915940064937,1.4536992176488042
1761340676390842400,1.24084228515625,7.834401832526922,1.208287117742002,1.5580844518832861
1761340676400909300,1.250909423828125,6.366169939395785,0.9546260987974703,1.2906531201310456
1761340676410976500,1.2609765625,5.450232321563362,0.675113064911589,1.0324633717156946
1761340676421043500,1.27104345703125,5.13406267786622,0.6248072844542563,0.9991809145126491
1761340676431110400,1.2811103515625,5.258308066216111,0.6965947558142245,0.6803887402921914
1761340676441177300,1.29117724609375,5.5615714665889735,0.7658188064269721,0.34862843649238345
1761340676451244500,1.30124462890625,6.105132400333881,0.7391275641825049,0.07123093345575034
1761340676461311500,1.3113115234375,6.830389625400304,0.5942961916606873,-0.18585633361041545
1761340676471378700,1.321378662109375,7.583888025566935,0.4283497695915401,-0.37939953192900866
1761340676481445600,1.331445556640625,8.183934232121706,0.174885807589069,-0.5000125916585326
1761340676491513600,1.341513671875,8.39590408115387,-0.08304916234761477,-0.8495737789563834
1761340676501580500,1.35158056640625,7.857506813782453,-0.18052505558505652,-1.293709292831272
1761340676511647500,1.3616474609375,6.2330789812892675,-0.27516784428842367,-2.079160435967147
1761340676521714400,1.37171435546875,3.782097449290752,0.1533201647300273,-3.245419845318794
1761340676531781400,1.381781494140625,0.9796528418958187,0.6439554178427904,-4.920496499553322
1761340676541848300,1.391848388671875,-1.8998206446439028,1.047350486658886,-6.0043146493226285
1761340676551915500,1.40191552734375,-4.874665891748666,1.4066685864046216,-6.262943958199024
1761340676561982500,1.411982421875,-7.867367698061466,1.1445913290314376,-5.73410946894288
1761340676572049400,1.42204931640625,-11.584947959256171,-1.0495339681778102,-4.206039485442638
1761340676582116400,1.432116455078125,-17.345013707232475,-3.8680411640360948,-2.503504330918193
1761340676592183600,1.44218359375,-24.998338841640948,-3.084087712112069,-3.3632065590485927
1761340676602250500,1.45225048828125,-32.571888428544995,0.6196306855339556,-6.964088486272097
1761340676612317400,1.4623173828125,-39.16894743697643,3.7055432019203898,-9.386886126315593
1761340676622384400,1.47238427734375,-43.242653504681584,5.643175983086228,-9.430768522661923
1761340676632451300,1.482451416015625,-42.01414748251438,4.966875973412394,-9.195441763439774
1761340676642518300,1.492518310546875,-34.92152380174398,2.765518313796818,-8.922003592488169
1761340676652585200,1.502585205078125,-25.65925306613445,0.22610705892350524,-7.299990419921278
1761340676662652200,1.512652099609375,-17.632313230276107,-1.8704919665679334,-4.575458781029284
1761340676672719400,1.52271923828125,-11.608160492539405,-2.8629209956675767,-1.9174314123973248
1761340676682786600,1.53278662109375,-7.155863688537478,-2.74161399885714,0.17137648429386318
1761340676692853500,1.542853515625,-3.633779695957899,-2.183864380761981,1.2433343195952475
1761340676702920400,1.55292041015625,-0.6077390991449356,-0.5387005976995453,2.1608403557881712
1761340676712987400,1.5629873046875,1.7272253591448068,0.5201229942079633,3.121714262934029
1761340676723054300,1.573054443359375,3.2967794456779953,1.0806249066859483,4.53320427814573
1761340676733121300,1.583121337890625,4.351915106320381,1.8115835582643747,5.6138136950016015
1761340676743188500,1.5931884765625,4.965043497288227,2.1940987745285034,5.973232697838545
1761340676753255400,1.60325537109375,5.330162757593393,2.028631587343663,5.655267987418174
1761340676763322400,1.613322265625,5.754194225594401,1.7301305790670216,4.473927036529779
1761340676773389300,1.623389404296875,6.903358415499329,1.820130437335372,3.0519322861775753
1761340676783457300,1.633457275390625,9.018567777708173,1.9579399483963846,2.257151150768995
1761340676793524200,1.643524169921875,11.45740411388278,1.8090397190004586,2.0883852142997084
1761340676803591200,1.653591064453125,13.976352097648382,1.9355613817192614,2.315628766439855
1761340676813658000,1.663658203125,16.21145040656328,1.7419028499253093,2.363290389063954
1761340676823725600,1.6737255859375,17.707645242375133,1.4071630919232965,2.345961799252778
1761340676833792500,1.68379248046875,18.502230270689726,1.2162667913842946,2.466785250329971
1761340676843859500,1.693859375,18.594359103810785,1.2830937907926738,2.60415520092994
1761340676853926400,1.703926513671875,17.809770568853615,1.4356326689518988,2.7220941826120018
1761340676863993300,1.713993408203125,16.102513061982393,1.3325985570654273,2.5483155325472353
1761340676874060300,1.724060302734375,14.092614670550823,0.9084812374118715,2.022275204054266
1761340676884127500,1.73412744140625,12.307148134839535,0.8080026552271098,1.2567607874013482
1761340676894194400,1.7441943359375,10.560117420506478,0.9116787913441657,0.3182674562266096
1761340676904261400,1.754261474609375,9.037199412941932,0.9688469318516552,-0.5393258899910375
1761340676914328300,1.764328369140625,7.7206445204436775,1.0752671059798449,-1.1525266520753503
1761340676924395300,1.774395263671875,6.782514944547414,1.336438427489251,-1.204128244496882
1761340676934462200,1.784462158203125,6.350365636542439,1.433637549611926,-0.8149230290748178
1761340676944529400,1.794529296875,6.485684207570553,1.3231249185383318,-0.4503991773795336
1761340676954596400,1.804596435546875,7.079909745147824,1.0406722510039805,-0.45634895262941716
1761340676964663300,1.814663330078125,7.849968234971165,0.720658791360259,-0.6210090612150728
1761340676974730200,1.824730224609375,8.749767203429341,0.6432584485545754,-0.638288112796098
1761340676984797200,1.834797119140625,9.567522679451107,0.6730642426230014,-0.5081102291246876
1761340676994864400,1.844864501953125,10.091980853319168,0.5820101991266012,-0.3338890229241922
1761340677004931300,1.854931396484375,10.135518381750583,0.4758269755594432,-0.21890673562325536
1761340677014998500,1.86499853515625,9.728578918325901,0.5565560243964195,-0.036244156552851195
1761340677025065500,1.8750654296875,8.901706069868803,0.7096549475912004,0.21233254486471415
1761340677035132400,1.88513232421875,7.599791112619638,0.5803121265044435,0.23275950255002825
1761340677045199400,1.895199462890625,5.965508825588226,0.24326621045190838,-0.08013177706357091
1761340677055266300,1.905266357421875,4.106776562657952,-0.09773702839165925,-0.30807485577519983
1761340677065333200,1.915333251953125,2.2008576011389493,-0.25326263074409217,-0.6209139302775264
1761340677075400400,1.925400390625,0.5463619626402855,0.2523217331647873,-0.6294901815734804
1761340677085467400,1.93546728515625,-1.1207944199889897,0.9124248604711145,-0.7216882805384696
1761340677095534300,1.945534423828125,-2.5891607531547547,1.1558981743350625,-1.3765518266908823
1761340677105602300,1.955602294921875,-3.001767740821838,0.34503015627209094,-2.2100657205976546
1761340677115669200,1.965669189453125,-3.132670833495259,-1.6132022357322275,-2.4463798834219572
1761340677125736200,1.975736083984375,-5.9192117693156,-4.270505235612392,-0.8431604047827422
1761340677135803400,1.985803466796875,-13.41416478936672,-5.742255365997552,1.903549894300103
1761340677145870300,1.995870361328125,-25.76002463991642,-5.513116940021515,1.2572099924735725
1761340677155937500,2.0059375,-39.61565309360027,0.8038138983003794,-2.6403230773761868
1761340677166004500,2.01600439453125,-49.84276605546474,6.180218913239241,-7.31046914383769
1761340677176071400,2.026071533203125,-53.8271337975502,5.480958883738517,-10.643325280547142
1761340677186138400,2.036138427734375,-48.150430223393435,2.9861522385388612,-11.44643965227604
1761340677196205300,2.046205322265625,-34.11955976909399,-0.04492668123487383,-11.915202826929091
1761340677206272300,2.056272216796875,-20.479951901137827,-2.651035025526583,-11.636617356216906
1761340677216339500,2.06633935546875,-10.652415764975547,-5.135311216622591,-9.555184006881714
1761340677226406400,2.076406494140625,-3.223731745123863,-6.991506070029735,-6.7483437948763365
1761340677236473300,2.086473388671875,1.4759581034690141,-6.999839014089107,-4.173625408571958
1761340677246540300,2.096540283203125,3.0511072335302827,-4.782841594532131,-1.9797950757212937
1761340677256607200,2.106607177734375,1.5220669436931609,-1.2469602550074457,-0.5158319459505379
1761340677266674200,2.116674072265625,-1.4384914193838834,1.6570244263239204,0.8334586565881967
1761340677276741400,2.126741455078125,-4.05648196118176,3.538341299897432,2.024398187557608
1761340677286808300,2.136808349609375,-5.3848646541178224,4.965781163913011,3.281058144932985
1761340677296875300,2.146875244140625,-4.691493098133802,5.677924640384316,4.260820876944065
1761340677306942500,2.1569423828125,-2.0466268243700263,5.584637284877896,4.574831296780705
1761340677317009400,2.167009521484375,1.7125363240569829,5.3352188719391815,4.510265593367815
1761340677327076400,2.177076416015625,5.776916929534077,4.68860614452064,4.52634023759514
1761340677337143300,2.187143310546875,9.589965397405624,3.6981846558511253,4.450387170988321
1761340677347210500,2.19721044921875,13.006623268395662,3.1623984477609395,4.034159654736519
1761340677357277400,2.20727734375,15.653239016175268,3.214200238929689,3.1985569718569513
1761340677367344400,2.217344482421875,17.588464736199377,3.116363257294893,2.0774086238637564
1761340677377411300,2.227411376953125,18.970087436413763,2.9956051265388726,1.1630493612639605
1761340677387478300,2.237478271484375,20.09333275668621,3.145261142738163,0.5778260453097522
1761340677397545200,2.247545166015625,20.21198602411747,3.1676077068418262,-0.05442234893068671
1761340677407612400,2.2576123046875,19.36631612073183,2.846025390446186,-0.2609440155595541
1761340677417679400,2.267679443359375,17.85808364112377,2.438305736429244,-0.27561609951257704
1761340677427746300,2.277746337890625,16.00557478275299,2.1646759884282947,-0.2738587344512343
1761340677437813200,2.287813232421875,14.063961407518386,2.1696600604511795,-0.1910670539960265
1761340677447881500,2.297881591796875,12.061295889949799,2.4757594149023294,0.23981954059675334
1761340677457948400,2.307948486328125,10.038527495551108,2.77386996255666,0.9793636496908962
1761340677468015400,2.318015380859375,8.203867597603798,2.6376374915540217,1.5307880102872848
1761340677478082300,2.328082275390625,6.757355953371524,2.3328113719090817,1.5553465513519942
1761340677488149500,2.3381494140625,5.819167925286293,2.1160008048474785,1.2932741162844001
1761340677498216400,2.348216552734375,5.401544570761919,1.55050071875602,0.8603912333078682
1761340677508283400,2.358283447265625,5.533202281194925,0.5953740865578875,0.32778701625466344
1761340677518350300,2.368350341796875,6.10011778704226,-0.22263401251807807,-0.5025085001274943
1761340677528417300,2.378417236328125,6.947264777243137,-0.5052769419275224,-1.2516839225284755
1761340677538484200,2.388484130859375,7.916485072451829,-0.6262181741654873,-1.562996335452795
1761340677548551400,2.398551513671875,8.829261011382936,-0.8317987605519592,-1.4737565017715095
1761340677558618400,2.408618408203125,9.422672309967876,-1.1599173468485473,-1.2313814314730465
1761340677568685300,2.418685302734375,9.626008770689367,-1.469570448258519,-1.0551755542613566
1761340677578752300,2.428752197265625,9.348355612391233,-1.393045426982641,-0.7705201159857213
1761340677588819200,2.438819091796875,8.421970250302552,-1.1996136166166513,-0.23057561917230485
1761340677598886100,2.44888623046875,7.196979542779922,-0.9201236713454127,0.19725494885072112
1761340677608953000,2.458953125,5.855859533345699,-0.5072135360132902,0.5571797092527151
1761340677619020000,2.46902001953125,4.003825306749343,0.04582325104868505,0.7198923370324075
1761340677629087000,2.4790869140625,1.6476871275275944,0.5515438222575932,1.1567314102888107
1761340677639154000,2.48915380859375,-1.448022633317113,1.001241573369503,1.7775905416391788
1761340677649220900,2.499220947265625,-4.643520802125335,1.5410222579233348,1.6348410899579524
1761340677659287800,2.509287841796875,-6.333049175560474,1.2782348064541815,1.1680015768438576
1761340677669355000,2.51935498046875,-6.721454618906974,-0.3050395797325298,0.9673884036064148
1761340677679422000,2.529421875,-8.023454331830143,-2.748140478016436,1.0133337238319218
1761340677689489000,2.539489013671875,-11.835282317996024,-3.741606156687438,0.4833839668102562
1761340677699555800,2.549555908203125,-17.88351034332514,-2.4182795780971644,-0.9319026642054319
1761340677709622800,2.559622802734375,-25.695876869654654,0.5024670721385628,-3.023072394657135
1761340677719690000,2.56968994140625,-35.40295707287788,3.944996685683727,-5.493036859545112
1761340677729757200,2.579757080078125,-43.66891024751663,6.635796443104743,-8.567493989002704
1761340677739824000,2.58982421875,-45.5652301905632,7.5355650164246555,-11.74094048500061
1761340677749891000,2.59989111328125,-40.2313557189703,5.999664193168282,-13.143171088957786
1761340677759958000,2.6099580078125,-30.653244425487518,4.013175611157715,-11.92482990245223
1761340677770025000,2.62002490234375,-21.061004068887232,2.952054738625884,-9.309917452925443
1761340677780092000,2.630091796875,-12.715885587596892,1.9780532004900275,-6.784311180314421
1761340677790159000,2.6401591796875,-5.3955625737428665,-1.4327186812013386,-5.792451767796278
1761340677800226000,2.65022607421875,0.615871552196145,-9.369820425224304,-8.858302981472015
1761340677810293000,2.66029296875,4.438389274680614,-8.714998672387003,-11.24400803143978
1761340677820361000,2.67036083984375,5.038627788937092,-2.492723993706703,-6.995140627139806
1761340677830428000,2.680427978515625,5.164904390853643,-0.546769374397397,-0.40821489018797874
1761340677840494800,2.690494873046875,6.10977818031311,1.002305549339205,2.0785830744706093
1761340677850561800,2.700561767578125,7.028105323630571,3.349380278269946,3.4076556493669745
1761340677860629000,2.71062890625,7.812002369192242,4.420785228928923,5.46672460668087
1761340677870696200,2.7206962890625,8.55612620729208,4.2760812821790575,6.926237186783552
1761340677880763100,2.73076318359375,9.441206330046057,4.00469039914608,6.886446443665027
1761340677890830000,2.740830078125,10.139516511476039,3.383355320847034,6.0211658308804035
1761340677900897000,2.75089697265625,10.4164314186275,2.6310639583826063,4.966633981350064
1761340677910964000,2.7609638671875,10.501579891341924,2.080661780440807,4.120554620380699
1761340677921031000,2.771031005859375,10.587702177524566,1.440287947411835,3.5675539503782985
1761340677931098000,2.78109814453125,10.89907465007305,0.7406735515154897,3.0181735166996715
1761340677941165000,2.7911650390625,11.278251661825179,-0.025929043966624883,2.3348709347873924
1761340677951232000,2.80123193359375,11.783664358961582,-0.7686763878151774,1.8207247499667107
1761340677961299000,2.811298828125,12.275761647450922,-1.4633080268628895,1.5395117072299123
1761340677971366000,2.821365966796875,12.6064326947093,-1.9250046241305767,1.5469196453988552
1761340677981432800,2.831432861328125,12.394407900619505,-2.0611773277699945,1.895826898832619
1761340677991499800,2.841499755859375,11.432235770356655,-2.09298890870288,2.487325349533558
1761340678001567000,2.85156689453125,9.908850145280361,-1.8966398226507006,2.9646561537846923
1761340678011634000,2.861634033203125,7.95781193909645,-1.6895485394403338,3.255980986821651
1761340678021700900,2.871700927734375,6.026510699039697,-1.6330923465944827,3.495997072903812
1761340678031768000,2.88176806640625,4.477966082787513,-1.6471110812053082,3.6857396002978082
1761340678041835000,2.8918349609375,3.4591976205557584,-1.5358578608974813,3.676294311082363
1761340678051902000,2.90190185546875,3.1069518703490493,-1.437195826615393,3.652032561007142
1761340678061969200,2.91196923828125,3.352732219046354,-1.4582641874767839,3.5685014603614804
1761340678072036000,2.9220361328125,4.009806719246506,-1.3312009652271866,3.3974972434461113
1761340678082103000,2.93210302734375,4.8461038141310215,-1.195818535182625,3.217802939596772
1761340678092170000,2.942169921875,5.454915510943532,-1.287389588290453,2.8778783263027665
1761340678102237000,2.95223681640625,5.9271069064795965,-1.3299125328518449,2.3826675819680094
1761340678112303900,2.962303955078125,6.397402697527408,-1.2711813808113335,1.7960373218253254
1761340678122371000,2.97237109375,6.847147867977619,-1.1232668014518916,1.2838662364698945
1761340678132438000,2.98243798828125,7.264718031010031,-0.6854285610903054,0.9880702493682503
1761340678142505000,2.9925048828125,7.729617515972256,-0.3394679555676877,0.8932552459031343
1761340678152572000,3.002572021484375,8.462598028767108,0.023570370277576146,1.0311247435230761
1761340678162638800,3.012638916015625,9.37131797030568,0.3708079369334504,1.3478557474300266
1761340678172705800,3.022705810546875,10.146081861340999,0.7645186836138367,1.5358429555892943
1761340678182773000,3.03277294921875,10.491513255357741,1.4857704724311829,1.6738059036463497
1761340678192840000,3.04283984375,10.413304226517676,2.1460303246691823,2.046238117313385
1761340678202907100,3.0529072265625,9.059933222797513,2.6988717124566435,2.3647169147357343
1761340678212974000,3.06297412109375,7.014694053393602,3.6438498390734195,3.2400980657741427
1761340678223041000,3.073041015625,3.8536382524132726,3.395172892151773,4.050359386648237
1761340678233108000,3.08310791015625,-0.45085225490927694,2.2146844664394854,4.69817301428914
1761340678243176000,3.093176025390625,-7.042193470215797,0.7800568828769028,5.362884877499938
1761340678253243000,3.103242919921875,-19.60059950838089,-0.21839962635133414,4.787910568359494
1761340678263310000,3.11331005859375,-39.51813146152496,2.21247497369647,-0.9612440556325018
1761340678273377000,3.123376953125,-58.32505779573917,9.28625717587471,-12.146471250671148
1761340678283444000,3.13344384765625,-68.1123905163288,14.379315643179416,-19.82251441284418
1761340678293511000,3.143510986328125,-63.98976230454444,10.756540156316756,-20.202180084896085
1761340678303577900,3.153577880859375,-48.403130726742745,4.937065357038378,-18.444334546560047
1761340678313644800,3.163644775390625,-32.21922766779661,2.1165981862187384,-15.651769528144596
1761340678323712000,3.1737119140625,-20.564359200096128,-0.9015591830637305,-11.635737066251039
1761340678333779000,3.183779052734375,-12.048583707892893,-3.3306653486669062,-8.014110749423503
1761340678343846100,3.19384619140625,-6.55566375272572,-7.903995593234896,-4.925104285609722
1761340678353913000,3.2039130859375,-4.768516132059693,-15.93847050077319,-7.306200964999198
1761340678363980000,3.21397998046875,-2.5703701279669997,-14.715080214184521,-13.875465957576036
1761340678374047000,3.224046875,0.8481184655815363,-3.6824268224880097,-11.268577824550867
1761340678384114000,3.234114013671875,3.511412376439571,0.5679929988857358,-2.7398201011776924
1761340678394181000,3.24418115234375,5.803519689777493,2.0056891031734643,2.14665050239414
1761340678404248000,3.254248046875,7.848741323524713,3.9126118349075316,2.7022879506409168
1761340678414315000,3.26431494140625,9.549158170720935,5.814089599108696,2.1884334422431886
1761340678424382000,3.2743818359375,10.779869593977928,6.274151580911874,2.236887092027813
1761340678434449000,3.284448974609375,11.762750165748596,6.302063670188188,3.0000001466274258
1761340678444515800,3.294515869140625,12.529666265892981,5.860366781637072,3.491415590332448
1761340678454583000,3.3045830078125,13.469057240027189,5.585892837896942,3.9495857670396566
1761340678464650000,3.31464990234375,14.628532396066188,5.342987167853117,4.418656400206685
1761340678474717000,3.324717041015625,15.658988373482227,4.89491373000741,4.452916397204995
1761340678484783900,3.334783935546875,16.312177556681632,4.381935566052794,3.9724358967512843
1761340678494850800,3.344850830078125,16.480272023630143,3.9535599313676353,3.036897214131057
1761340678504917800,3.354917724609375,16.268754594540596,3.641004386514425,2.063106542266905
1761340678514985000,3.36498486328125,15.75392875689268,3.129459470233321,1.209425620252639
1761340678525052200,3.37505224609375,14.918883123373984,2.3889468083679675,0.3578793721795082
1761340678535119000,3.385119140625,13.880483493477104,1.7776320426933467,-0.4204020254574716
1761340678545186000,3.39518603515625,12.624813570052385,1.3817702919915318,-0.999070659071207
1761340678555253000,3.4052529296875,11.27468607829809,1.2380614937588572,-1.157136703154072
1761340678565320000,3.41531982421875,9.940373410791159,1.2799284586295485,-0.9205622819583863
1761340678575387000,3.425386962890625,8.782697997650503,1.2899198374204337,-0.652234512823075
1761340678585454000,3.4354541015625,7.900375649172068,1.364380765773356,-0.414755836264044
1761340678595521000,3.44552099609375,7.327721891933679,1.3954456199921668,-0.1834924905559048
1761340678605588000,3.455587890625,7.172741173580288,1.2648068773433565,0.08696692031323909
1761340678615655200,3.4656552734375,7.351862645977735,1.0373254978593438,0.3549065669137984
1761340678625722000,3.47572216796875,7.724280246597528,0.7716544537778943,0.4754279663044959
1761340678635789000,3.4857890625,8.12849700706005,0.4649831446576863,0.37191936877407133
1761340678645856300,3.495856201171875,8.576716575378178,0.3933615313839167,0.3847391393912956
1761340678655923200,3.505923095703125,9.02726137177348,0.3930054844878614,0.6098516343194991
1761340678665990100,3.515990234375,9.4717861772269,0.24064736972302198,0.9077937666043638
1761340678676057000,3.52605712890625,9.70851169733107,-0.02827785384878516,1.0799467151634394
1761340678686125000,3.536125,9.560192774954437,-0.3016920594029128,0.9922491424880922
1761340678696192000,3.54619189453125,9.25652722352147,-0.3566387975338846,0.8110661344509571
1761340678706259000,3.556259033203125,9.101992495369911,-0.2234719246469438,0.7234238721594214
1761340678716326000,3.566325927734375,9.095996469825506,-0.2854912315126508,0.7141235443726182
1761340678726393000,3.57639306640625,9.225330121225118,-0.14077581352069973,0.9649076196413486
1761340678736460300,3.586460205078125,8.9733275370121,0.39534291445948183,1.2965426165610552
1761340678746527200,3.59652734375,7.757514407679438,0.9296217136614024,1.2228685277368874
1761340678756594200,3.60659423828125,5.516989397540688,1.193131926447153,1.3460456292681395
1761340678766661000,3.6166611328125,2.213008642181754,1.8021376845270394,1.6276657915011048
1761340678776728000,3.62672802734375,-1.9993676450669764,2.7278163596510887,0.9996222285393624
1761340678786795300,3.636795166015625,-6.616311990433931,2.9116821039661764,-0.7732233835950494
1761340678796862200,3.6468623046875,-10.713963581871985,1.4874141479849814,-3.4326042126625773
1761340678806929200,3.65692919921875,-13.568111488497257,-1.0450321997791527,-3.9973087644621725
1761340678816996000,3.66699609375,-18.386076418858764,-3.2497564132183787,-1.6269722562789917
1761340678827063000,3.67706298828125,-28.494261388003824,-2.210054030159861,-0.07259396543726325
1761340678837130000,3.6871298828125,-41.96415917050838,4.1428877404809,-2.7894290584772823
1761340678847197000,3.697197021484375,-54.86599753782749,11.758484324997664,-7.5279779222965235
1761340678857264000,3.70726416015625,-60.05313831040859,13.841560180842876,-10.363888745963573
1761340678867331000,3.7173310546875,-54.57287150058746,9.243106016412376,-12.166818457651138
1761340678877398000,3.72739794921875,-41.80182107512951,4.2872956268936395,-13.527406553143262
1761340678887465000,3.73746484375,-27.722404908847807,0.3840349731773138,-13.264232586574554
1761340678897532000,3.747531982421875,-16.022261713659763,-6.636851505115628,-11.978846739321947
1761340678907599000,3.75759912109375,-7.983837191712856,-19.008721995234488,-16.76002536907792
1761340678917666300,3.767666259765625,-3.6791555457323786,-14.649313318288325,-19.328651868247984
1761340678927733200,3.777733154296875,-1.1178794093251228,-3.9168087020754814,-13.027033603739739
1761340678937800200,3.78780029296875,1.6250252138644457,0.5518877768570557,-2.9501620567470788
1761340678947867100,3.7978671875,4.0715380760163065,0.31295535782575606,3.718365274092555
1761340678957934000,3.80793408203125,6.020042964330315,1.0671195284247397,4.9932583689033985
1761340678968001000,3.8180009765625,7.726679124432802,3.3460686695039272,4.218059009060263
1761340678978068200,3.828068115234375,9.231063111919164,4.34221964173615,4.236139440152049
1761340678988135200,3.83813525390625,10.541980875313282,4.437213801160454,5.168124521943927
1761340678998202000,3.8482021484375,11.97900689831972,4.534129868558049,5.864577092808485
1761340679008269000,3.85826904296875,13.561765918862818,4.82803448895514,5.976612987926602
1761340679018336000,3.8683359375,15.091108991038798,5.063667537647485,5.937073589220643
1761340679028403000,3.87840283203125,16.322928083276746,4.908313309806585,5.759987422043085
1761340679038470100,3.88847021484375,17.1897600171566,4.655979886204004,5.179875165492296
1761340679048537000,3.898537109375,17.661747414553165,4.605319374024868,4.7080315604805945
1761340679058604000,3.90860400390625,18.023581661838293,4.31541872857213,4.251713733641803
1761340679068671000,3.9186708984375,18.011356971037387,3.5413843208551405,3.520644899687171
1761340679078738200,3.92873828125,17.36383765016794,2.745728448438644,2.5017197855889797
1761340679088805000,3.93880517578125,16.054578759896753,2.3637680895783006,1.5877062676869331
1761340679098872000,3.9488720703125,14.309156649804114,2.105235080683231,0.9258793853279202
1761340679108939300,3.958939208984375,12.548975361996888,1.824575287915021,0.554738088254258
1761340679119006200,3.969006103515625,10.950767427909373,1.8292368499852716,0.5657558144181967
1761340679129073200,3.9790732421875,9.645104516303538,1.8714193105459211,0.7117875026404857
1761340679139140000,3.98914013671875,8.688965236464142,1.940350223430991,0.9228807880338281
1761340679149206300,3.999206298828125,8.098422186791897,2.057217191967368,1.1033145851388573
1761340679159273200,4.009273193359375,7.827539545542002,2.087680427031219,1.1924232667211443
1761340679169340200,4.019340087890625,7.6566715222269295,1.9151557225503026,1.3140531388103962
1761340679179407000,4.029406982421875,7.536430693343282,1.7923092412129042,1.5654191786855458
1761340679189474000,4.03947412109375,7.456065363252162,1.642695310589671,1.7469813222333788
1761340679199541000,4.049541015625,7.3738769093871115,1.4115347311362623,1.8332082378342747
1761340679209608200,4.059608154296875,7.31490800306797,1.0997510474383831,1.802843202447891
1761340679219675100,4.069675048828125,7.294384270477295,0.8735796545743941,1.5545450257107614
1761340679229742000,4.0797421875,7.3559431932896375,0.8282276971321553,1.259173839892447
1761340679239809000,4.08980908203125,7.416952081003784,0.7343336079042404,0.9341150064926594
1761340679249876000,4.0998759765625,7.357180041608214,0.6023875820491462,0.5959963466420769
1761340679259943000,4.10994287109375,7.2655644187062975,0.45373182893358166,0.27775296541079875
1761340679270010000,4.120010009765625,7.168493453007936,0.20668715938888488,-0.078118574077636
1761340679280077000,4.1300771484375,7.027269457328319,0.054265916259959336,-0.15971746455170213
1761340679290144300,4.140144287109375,6.5427773831456895,-0.0633058395449072,0.15550138122662902
1761340679300212200,4.150212158203125,5.407132600027323,-0.065278454792127,0.3998091731533408
1761340679310279200,4.160279052734375,3.812085175797343,-0.011619126123189926,0.9913794469814747
1761340679320345000,4.170344970703125,1.9838328068047761,-0.13772168664708734,1.4570008895426987
1761340679330413000,4.1804130859375,0.22008184381723403,-0.42154140475094315,1.4633905905798077
1761340679340480000,4.19047998046875,-1.5258388634473083,-1.5699576988980173,1.4993562224522232
1761340679350547200,4.200547119140625,-3.84745167273283,-3.593470481923222,2.400098024718463
1761340679360614100,4.2106142578125,-9.155518918374181,-6.217029763764143,4.35547776723802
1761340679370681000,4.22068115234375,-22.290594963681695,-7.048277758565544,5.343975009846687
1761340679380748000,4.230748046875,-42.73173928751945,-0.9912962987426668,0.6850797476526349
1761340679390815000,4.24081494140625,-61.290444894146916,9.528112460082768,-8.07690944316387
1761340679400882000,4.2508818359375,-69.27996130053997,13.498811742299795,-14.048312587487697
1761340679410948900,4.260948974609375,-63.185422774934764,8.57432646537125,-14.881922635245322
1761340679421016300,4.271016357421875,-44.08029207730293,3.632672903759777,-14.574955119657515
1761340679431083300,4.281083251953125,-26.736367918872833,-0.592606192747131,-13.743305558317898
1761340679441150200,4.291150146484375,-15.036789371830224,-4.573111048859357,-11.230345416790247
1761340679451217200,4.301217041015625,-7.79947255796492,-6.16177432501018,-8.695410759341716
1761340679461284000,4.3112841796875,-4.457060072880983,-4.939165544188023,-6.752595607101917
1761340679471351000,4.32135107421875,-3.083955610165,-2.6828350621521473,-4.613877943533659
1761340679481418200,4.331418212890625,-1.891015406897664,-1.0777117957182227,-2.078283653132617
1761340679491485200,4.341485107421875,-0.2823626511633396,-0.0883306098818779,-0.28551293188780547
1761340679501552000,4.35155224609375,1.6661451597601173,0.6273857566401362,0.32051673299074174
1761340679511619000,4.361619140625,4.247747460359335,1.3945416568897664,0.1587673972852528
1761340679521686000,4.37168603515625,7.191912907040119,2.6775395860925317,-0.046629210836440324
1761340679531753000,4.3817529296875,9.965929876852035,3.9860631478264925,0.3214211344845593
1761340679541820200,4.391820068359375,12.373242362993954,5.270597054424882,1.2344459336102007
1761340679551887000,4.40188720703125,14.379640637350082,6.427950980526209,2.446224254468828
1761340679561954000,4.4119541015625,15.931685370677709,6.728424457919597,3.7374183496087787
1761340679572022300,4.422022216796875,16.7171343218565,6.353316303041577,4.718396010367572
1761340679582089200,4.432089111328125,16.85127741936445,5.723214565441012,4.961632227540016
1761340679592156200,4.44215625,16.578126833182573,5.300037668442726,4.551727192308008
1761340679602223000,4.45222314453125,16.137311988162992,5.0876434565186495,3.8187364503800865
1761340679612289800,4.462289794921875,15.575476562058924,4.672188385944068,2.9480720987305045
1761340679622357000,4.47235693359375,14.958340689015388,4.141450108893215,2.4840058497220276
1761340679632424000,4.482423828125,14.262133032822607,3.639621115462482,2.2497093103304504
1761340679642491000,4.492490966796875,13.485789763641357,3.362750924235582,2.0886482491500673
1761340679652558000,4.50255810546875,12.54268824455142,3.282649213516712,1.9103895310617982
1761340679662625000,4.512625,11.396673458588122,3.1456454658806323,1.7214137502565978
1761340679672692000,4.52269189453125,10.356909554600715,2.829294620397687,1.4280347611688076
1761340679682759200,4.53275927734375,9.503892795583605,2.4434615117572247,1.0490898046068846
1761340679692826000,4.542826171875,8.782553036221861,2.146488443700224,0.7400443137012421
1761340679702893000,4.55289306640625,8.18664875177741,1.9259895435146985,0.6629592473898083
1761340679712960000,4.5629599609375,7.677640660497546,1.7451675508096813,0.8230095240924507
1761340679723027000,4.57302685546875,7.244426353609562,1.5187483206644654,1.069910182056576
1761340679733094000,4.583093994140625,6.911946795624494,1.3079457618460057,1.3310203479632734
1761340679743161000,4.5931611328125,6.677908322647213,1.2746923115417361,1.5387591352969407
1761340679753228000,4.60322802734375,6.528989680811763,1.3584949226051568,1.7495606712020932
1761340679763295000,4.613294921875,6.555379675087332,1.4224445399463177,1.9292408003956079
1761340679773362000,4.62336181640625,6.507692625761032,1.2612018385887145,2.1212131326682866
1761340679783428900,4.633428955078125,6.441587291690706,0.956100993655622,2.1759642751619217
1761340679793495800,4.643495849609375,6.487745816275477,0.7896372697141021,1.9997569366455077
1761340679803562800,4.653562744140625,6.674449706625938,0.6032848962150513,1.7902403259843587
1761340679813630000,4.6636298828125,7.005089189702272,0.3121014444101602,1.6719658287376165
1761340679823697200,4.673697265625,7.349791100400686,0.07231785190962255,1.5787578220777212
1761340679833764000,4.68376416015625,7.696959108951687,-0.02160999345742166,1.479125043067336
1761340679843832000,4.69383203125,8.01497525729835,0.08778086704462766,1.362141316283494
1761340679853898000,4.70389794921875,8.108419264671205,0.3528898933291435,1.4076312939569353
1761340679863966000,4.713966064453125,7.644324666351079,0.4769070258811116,1.2612410015553235
1761340679874033000,4.724032958984375,6.661981854718923,0.5293285563834011,0.4916975851146504
1761340679884099800,4.734099853515625,5.378588058066367,0.6392967783819884,-0.47491548673771317
1761340679894167000,4.7441669921875,3.820140471959114,0.9134870098099112,-1.6532883085355161
1761340679904234000,4.75423388671875,1.697843781837821,0.5374143938139081,-2.2500334277182814
1761340679914301000,4.764301025390625,-2.2274708827763794,-0.5123917058361694,-1.828239217250049
1761340679924368000,4.774367919921875,-9.110026164221763,-1.4182225383371114,1.0931327983424066
1761340679934434800,4.784434814453125,-21.340045466673374,-1.9251269353359937,6.455051753419637
1761340679944501800,4.794501708984375,-39.18638957016468,1.064983685439825,8.571893100744486
1761340679954569000,4.80456884765625,-55.564561986279486,9.420465739834308,3.5908372108101845
1761340679964636200,4.81463623046875,-65.45411589493752,14.387822774761915,-1.8451868449196218
1761340679974703000,4.824703125,-65.64265927567482,11.677822642308472,-3.4872336284726857
1761340679984770000,4.83477001953125,-53.67139846143722,7.46332512512207,-5.762077672320604
1761340679994837000,4.8448369140625,-37.28078975759745,3.305996771356463,-7.599009022331237
1761340680004904000,4.854904052734375,-24.515329699492455,-0.5367771188236773,-7.803369565403461
1761340680014971100,4.86497119140625,-15.41354763200283,-2.8249516227573155,-8.350742750912904
1761340680025038000,4.8750380859375,-8.832222199276089,-3.5877281388789415,-9.382907870334387
1761340680035105000,4.88510498046875,-3.9480584113419055,-3.2283959375426172,-9.364908103263378
1761340680045172000,4.895171875,-0.22478315337598323,-2.991381955885887,-7.975912243932485
1761340680055239000,4.905239013671875,2.936404749551415,-2.73822932485491,-5.667839884221554
1761340680065305900,4.915305908203125,5.845549151733517,-1.7009087223663926,-3.2422184189289807
1761340680075373000,4.925373046875,8.577362472066282,-0.2255059146925807,-1.1979906185247002
1761340680085440000,4.93543994140625,10.575531262737512,1.1544324856966732,0.2624083890236914
1761340680095507000,4.9455068359375,11.938801144659518,2.7212907572746277,1.5628662793323396
1761340680105574000,4.955573974609375,12.727221805125474,4.134398729076981,2.983752191659808
1761340680115640800,4.965640869140625,13.115235618805885,4.7840810731992125,4.233741439099609
1761340680125707800,4.975707763671875,13.588158251225947,4.6764060036391015,4.825315585385263
1761340680135775000,4.98577490234375,14.045945273834466,4.190280775296688,4.622022671544552
1761340680145842200,4.99584228515625,14.369279402333497,3.528555818942189,4.225620676486194
1761340680155909000,5.0059091796875,14.695499899923801,2.8005647849977016,3.416726260051131
1761340680165976000,5.01597607421875,15.051628044521808,2.4759844558298587,2.429121290107071
1761340680176043000,5.02604296875,15.45515623819828,2.210165966101736,1.7760503264598548
1761340680186110000,5.03610986328125,15.588127953839301,1.860280807546526,1.569135861121118
1761340680196177000,5.046177001953125,15.261187325280904,1.6128240500696003,1.5242381502524018
1761340680206244000,5.056244140625,14.43410054181218,1.6131047667071223,1.5748118609309196
1761340680216311000,5.06631103515625,13.244375208938122,1.5305428033545612,1.5297523836292326
1761340680226378000,5.0763779296875,11.918351061826943,1.4424936407625675,1.4223650449693201
1761340680236445000,5.08644482421875,10.64329020923376,1.3912614661753178,1.4112576677605508
1761340680246511900,5.096511962890625,9.35050723746717,1.2081637836232781,1.3641478338003157
1761340680256578800,5.106578857421875,8.162173651212454,1.1359149783618747,1.2566735475093125
1761340680266646000,5.11664599609375,7.324498253712058,1.2105701141126453,1.093308227974549
1761340680276713000,5.126712890625,6.808980342146754,1.2124667415142059,0.9184143832094966
1761340680286780000,5.13677978515625,6.483874527800083,1.1358394289076328,0.9025118806786835
1761340680296846800,5.146846923828125,6.331420697575807,1.1621090116739272,1.1029518162410705
1761340680306914000,5.1569140625,6.277437178453803,1.1779456093616782,1.3113336507186293
1761340680316981000,5.16698095703125,6.219383048892021,1.1179776090025901,1.5502815230473874
1761340680327048000,5.1770478515625,6.182157772347331,1.1103580739095806,1.8362723015800118
1761340680337115100,5.187115234375,6.075016663533448,1.1568832398496567,2.066673002576828
1761340680347182000,5.19718212890625,5.937873215165734,1.217246669267118,2.0550671743266284
1761340680357249000,5.2072490234375,5.80339518661499,1.3671912931494414,1.8793486422404646
1761340680367316000,5.21731591796875,5.657502030080557,1.3722634818471968,1.6946385560557244
1761340680377383000,5.2273828125,5.46566136136353,1.211924743591994,1.4120860814087093
1761340680387449900,5.237449951171875,5.412466362270712,1.0239837126620113,1.1541996998541058
1761340680397517000,5.24751708984375,5.6752755871802565,0.8651093478709458,1.1932267651237547
1761340680407584000,5.257583984375,5.9700797867655755,0.6417708403453231,1.4276336330220103
1761340680417651000,5.26765087890625,6.213445475536584,0.42347602607533336,1.486012172232568
1761340680427718000,5.2777177734375,6.108527303469181,0.27321561424210666,1.1975728315040468
1761340680437784800,5.287784912109375,5.480759561774135,0.04146306024491787,0.4607799208141863
1761340680447851800,5.297851806640625,4.484229819357395,0.2603467803187668,-0.02913494560215622
1761340680457919000,5.3079189453125,2.3596289439469573,1.0463067497596144,0.028376966841705143
1761340680467986000,5.31798583984375,-1.0722989768892526,1.8832569017253815,0.47183063593227415
1761340680478053000,5.32805322265625,-4.795574819377064,1.8195390473134814,1.2828374779440461
1761340680488120000,5.3381201171875,-8.12157919049561,-0.15883001419268547,2.007996064941585
1761340680498187000,5.34818701171875,-12.485045033878087,-3.765072372470796,2.947496344669163
1761340680508254000,5.35825390625,-20.559161631453037,-3.5731270743355155,3.4537229885369536
1761340680518321200,5.368321044921875,-33.654710553014276,3.3749633400768038,0.5813855644222349
1761340680528388000,5.37838818359375,-46.370476898145675,10.690316164302825,-4.100548481923341
1761340680538455000,5.388455078125,-50.773890721035,13.17378717649579,-9.160561588716506
1761340680548522000,5.39852197265625,-48.007984576964375,10.771464169204235,-11.669006883168219
1761340680558589000,5.4085888671875,-41.62841914942264,7.2693655645549295,-11.669142492246626
1761340680568656000,5.41865576171875,-33.293889866685866,4.776734509828686,-10.912270816254615
1761340680578723000,5.42872314453125,-24.382329926800725,2.103656287059188,-9.902889191049336
1761340680588790000,5.4387900390625,-16.061148785936833,-0.6797725811552255,-9.422261975601314
1761340680598857000,5.44885693359375,-8.843805085042119,-2.1269548911906777,-9.326626011142134
1761340680608924000,5.458923828125,-3.043094607466459,-2.320782349810749,-8.392727789205312
1761340680618991600,5.46899169921875,1.2551894464313984,-2.441147535726428,-6.079387718224525
1761340680629058800,5.479058837890625,4.426894651719928,-2.630120832313597,-3.287731631347537
1761340680639125800,5.489125732421875,7.047761041215062,-1.6313345431417225,-1.4137979998931287
1761340680649192700,5.499192626953125,9.623870005095004,-0.17306125904303044,-0.09123027684614061
1761340680659260000,5.509260009765625,11.522648447209596,0.5556442433137446,1.599166257725656
1761340680669326800,5.519326904296875,12.488211973476409,1.1287633530415593,3.4770430738478897
1761340680679393800,5.529393798828125,12.850343157881497,1.6647535592712461,4.908534259080887
1761340680689460700,5.539460693359375,12.829675632905959,1.8801485604465007,5.817658689767122
1761340680699527700,5.549527587890625,12.713790661144255,1.7323074847146869,6.34288550992012
1761340680709594600,5.5595947265625,12.67788231241703,1.4492226567566393,6.398903749740123
1761340680719661800,5.569661865234375,12.81230948756337,1.2560416793465614,6.119262632495165
1761340680729728800,5.579728759765625,12.9860364074409,1.071008864013478,5.7866404511690135
1761340680739795700,5.589795654296875,13.151076162993908,1.000490535806492,5.5719473146528005
1761340680749862700,5.599862548828125,13.453123173314331,1.0199554800592363,5.448672817161679
1761340680759929600,5.6099296875,13.64190153185129,0.8756981080330908,5.198541872039437
1761340680769996500,5.61999658203125,13.5754881547451,0.7319687054038048,4.939940620213747
1761340680780063700,5.630063720703125,13.396568342399597,0.6103760965850203,4.777867313250899
1761340680790130700,5.640130615234375,13.061764725381135,0.32623160350620745,4.517389161637425
1761340680800198000,5.650197998046875,12.233902865886687,-0.06989804088417441,4.158597935310006
1761340680810264800,5.660264892578125,11.09020161756277,-0.32710330830682066,3.74793448292613
1761340680820331800,5.670331787109375,9.982656555247306,-0.4833251127624884,3.3093875828385353
1761340680830398700,5.680398681640625,9.00243789616227,-0.672025839485973,2.9427456430107353
1761340680840465700,5.690465576171875,8.214280855068564,-0.8063670168492942,2.7568440089538693
1761340680850532900,5.700532958984375,7.45884885649085,-0.9418322298064827,2.7184467660203575
1761340680860599800,5.710599853515625,6.721790718993544,-1.152891466799751,2.639914204314351
1761340680870666800,5.720666748046875,6.063577570152282,-1.2945201708227396,2.4199254456080497
1761340680880733700,5.730733642578125,5.577272893589734,-1.4308055410563945,2.015991155348718
1761340680890800600,5.740800537109375,5.250434556362032,-1.7064863763682543,1.5625314944200217
1761340680900867600,5.75086767578125,5.253384638339281,-1.9368708568826316,1.1847566045507787
1761340680910934800,5.760934814453125,5.595473151668906,-2.013315214137733,1.0077892414472998
1761340680921001700,5.771001708984375,6.070114862966537,-2.103746157299727,1.0337469817854463
1761340680931068700,5.781068603515625,6.590913345283269,-2.2151253420747814,1.212419249110669
1761340680941135600,5.791135498046875,7.053445516592264,-2.1579174540787935,1.504131181769073
1761340680951202600,5.80120263671875,7.353262575903535,-2.128223157560825,1.802484452138096
1761340680961269500,5.81126953125,7.428589911827444,-2.1176963567189873,1.904342505982518
1761340680971337700,5.821337646484375,7.371582660970091,-1.9724501197859643,1.7786342054732143
1761340680981404000,5.83140380859375,7.096663311550021,-1.8521796264164148,1.313438660173863
1761340680991470800,5.841470947265625,6.077154260084033,-1.6434597190909086,0.4563667805470526
1761340681001537800,5.851537841796875,3.7239912972807883,-1.1823426022116095,-0.694293712330237
1761340681011605800,5.861605712890625,-0.03831482534706592,-0.65329746587947,-2.022308083410561
1761340681021672700,5.871672607421875,-4.4484921510219575,-0.5616167783847078,-3.0830852570712564
1761340681031739600,5.88173974609375,-8.698569515633583,-1.4266304473288356,-3.4940187585681675
1761340681041806600,5.891806640625,-13.76376499350071,-3.087862554475665,-2.383437689557671
1761340681051873800,5.901873779296875,-22.15908455276489,-3.9379929444015023,-0.49463440575152634
1761340681061940700,5.911940673828125,-35.77233749775886,-1.5466379058480262,-0.7313987965613603
1761340681072007700,5.922007568359375,-50.06007726552486,4.457155642209947,-4.978095871084928
1761340681082074600,5.93207470703125,-58.89559324564934,8.744904565829039,-10.402971048551798
1761340681092141600,5.9421416015625,-58.88221003246307,8.222567621898651,-12.765207544648646
1761340681102208500,5.95220849609375,-49.47618665947914,5.782111575567722,-13.094829959636925
1761340681112275700,5.962275634765625,-36.00955752338171,3.651230012452602,-11.262310580849647
1761340681122343000,5.972343017578125,-24.097426943504807,1.686265279985964,-7.562720734375715
1761340681132409900,5.982409912109375,-15.040802699124812,0.5767898341298103,-4.256303691780567
1761340681142476800,5.992476806640625,-8.197990230002999,0.4107787493266165,-2.914177720174193
1761340681152543700,6.002543701171875,-2.6971242842674252,0.6669042586885392,-2.9307199819132683
1761340681162610700,6.012610595703125,1.7434756521999835,0.7602849915668368,-2.8005940110921856
1761340681172677600,6.022677734375,5.164138082656264,0.8203036991998552,-1.8609727353334427
1761340681182744800,6.032744873046875,7.85534992800951,1.1038906314611434,-0.4486897431131452
1761340681192811800,6.042811767578125,10.044573789978028,1.8376050114884972,0.5413169542104006
1761340681202878700,6.052878662109375,11.55456684951782,2.8017335365161298,0.82955463488698
1761340681212945700,6.062945556640625,12.6410843213737,3.602445523278415,0.9490859272617846
1761340681223012600,6.0730126953125,13.296201257765292,4.015419006170332,1.2105338737554847
1761340681233079600,6.08307958984375,13.552055841231345,4.142942393277585,1.6913856917396186
1761340681243146800,6.093146728515625,13.464418474310635,4.11811920992732,2.3310589752838013
1761340681253213700,6.103213623046875,13.145133913463352,3.823939571981132,2.8636417111575603
1761340681263280600,6.11328076171875,12.772252202463148,3.2958219988226887,3.016952742733061
1761340681273347600,6.12334765625,12.427961795175074,2.893431284743547,2.7150650146275757
1761340681283414800,6.133414794921875,12.28595103303194,2.603229025995731,2.1608760116234422
1761340681293481700,6.143481689453125,12.408310169243812,2.371791090905666,1.5627663260892033
1761340681303549000,6.153548828125,12.590830636429786,2.11191382779479,1.1368364040557295
1761340681313616000,6.163615966796875,12.896654827201365,1.9370631645843386,0.6667080054640769
1761340681323682800,6.173682861328125,13.17805769342184,1.866613663829863,0.2744600613452494
1761340681333749800,6.183749755859375,13.267788817751407,1.8386694258496163,-0.0627475115424022
1761340681343816700,6.193816650390625,13.119768001538514,1.6632070604816078,-0.3142174501834437
1761340681353883600,6.203883544921875,12.774939834111928,1.5436536293402314,-0.48241767906136807
1761340681363950800,6.213950927734375,12.230554724502563,1.6107912290677426,-0.5327462924050167
1761340681374017800,6.224017822265625,11.605530144035816,1.7799948263019323,-0.4399890982525423
1761340681384084700,6.234084716796875,10.967191323965787,1.982473208889365,-0.25531616574041543
1761340681394151700,6.244151611328125,10.29630749412179,2.116240751083195,0.019451792510226367
1761340681404218600,6.254218505859375,9.637178399479389,2.1366817738264796,0.4147934648606926
1761340681414285600,6.26428564453125,9.03377177658081,2.1043014530949296,0.988856869701296
1761340681424352800,6.274352783203125,8.402004736116528,2.036398568083346,1.583426398410648
1761340681434419700,6.284419677734375,7.7664394724130625,1.9002141740061342,2.0107623147845266
1761340681444486700,6.294486572265625,7.327673961138725,1.7428547438226638,2.087588949355483
1761340681454553900,6.304553955078125,7.12533001858592,1.5434730120763183,1.7313611437752843
1761340681464620800,6.314620849609375,6.946703636229038,1.3545369787596164,1.164646494262293
1761340681474687700,6.324687744140625,6.77952043890655,1.2006437633819877,0.5949848315119743
1761340681484754700,6.334754638671875,6.799373140367865,1.0251064330816269,0.10876323012299835
1761340681494822000,6.34482177734375,7.116146010655164,0.771249891564995,-0.30950214863196013
1761340681504888800,6.354888916015625,7.581114469200372,0.6697529261179268,-0.45178529797568917
1761340681514955800,6.364955810546875,8.05184456001222,0.823006528417766,-0.37591676784716543
1761340681525022700,6.375022705078125,8.391060148254036,0.9695159171544014,-0.2018353354435414
1761340681535089700,6.385089599609375,8.430112055703997,0.9948482190705835,0.00031732232086360455
1761340681545156600,6.395156494140625,7.8016230139970775,1.1389110914379357,-0.1707684353981167
1761340681555223800,6.405223876953125,5.13035213291049,1.4947209638670087,-0.30776933348998425
1761340681565290800,6.415290771484375,1.9370745627611874,1.545579775097221,0.28572869353033603
1761340681575357700,6.425357666015625,-0.7453601018965244,0.9643241937302053,0.918470643441379
1761340681585424600,6.435424560546875,-4.444751795449853,0.09970014515817165,1.781531388219446
1761340681595491600,6.44549169921875,-8.029132961988449,-1.579493150614947,2.1586010524287818
1761340681605558500,6.45555859375,-14.162440486449002,-3.909287658920884,4.862655135959386
1761340681615625500,6.46562548828125,-28.549482339966296,-4.445499398946762,7.631475121650099
1761340681625692400,6.4756923828125,-47.780792608880994,0.9274795870661735,4.419622614890336
1761340681635759400,6.48575927734375,-61.75453656985759,8.604136497223378,-3.819262520080805
1761340681645826300,6.495826416015625,-65.09605181384086,10.345575675159692,-10.024006802767515
1761340681655893200,6.505893310546875,-56.00664758188724,5.72719106785655,-10.914131933951378
1761340681665960200,6.515960205078125,-39.371051725554466,1.1748364643651992,-9.968276147717237
1761340681676027400,6.52602734375,-24.14734978905916,-1.9701846590720116,-9.169536337810754
1761340681686094300,6.53609423828125,-13.732489565271138,-4.938588036561012,-8.141587374779581
1761340681696161300,6.546161376953125,-7.260701196584105,-6.778725489136576,-7.241990650895238
1761340681706228200,6.556228271484375,-3.085790424376726,-6.752299254503845,-6.8820075844347475
1761340681716295200,6.566295166015625,-0.1882815149307251,-5.59082152647078,-6.636248278525471
1761340681726362400,6.5763623046875,1.959917678210139,-4.185899491472542,-5.773541315621137
1761340681736429600,6.5864296875,3.684489307975769,-3.1898779908388852,-4.459663825638592
1761340681746496500,6.59649658203125,5.2310985722512005,-2.194504871111363,-3.1833240391507744
1761340681756563500,6.6065634765625,6.620449236369133,-0.7848743661612272,-2.1302594856940207
1761340681766630400,6.61663037109375,8.004694686302543,0.7327927351377904,-1.1202197619061915
1761340681776697300,6.626697265625,9.317460123389958,2.0380796530380842,-0.14147307506985962
1761340681786764300,6.636764404296875,10.337875183784961,3.017883593842387,0.7874184246208519
1761340681796831500,6.64683154296875,11.116894394177198,3.5622499987512826,1.5834144157119094
1761340681806898400,6.6568984375,11.870634201884268,3.761778591622412,2.0955030834808945
1761340681816965400,6.66696533203125,12.569601970440148,3.690609252160787,2.2606239414460956
1761340681827032300,6.6770322265625,13.203431788653134,3.566741464951634,2.057449831679463
1761340681837099300,6.687099365234375,13.792182109689712,3.5453199067384,1.6289061469510198
1761340681847166200,6.697166259765625,14.252275655674934,3.399953988948464,1.235189445453882
1761340681857233400,6.7072333984375,14.565506907832622,2.909746459728479,0.8272756571043283
1761340681867300400,6.71730029296875,14.779473483639954,2.563188399769366,0.37814178695287554
1761340681877367300,6.7273671875,14.896449173247813,2.487866032281518,-0.01721504643410444
1761340681887434200,6.737434326171875,14.703271702969074,2.3157529773414134,-0.3262590029697865
1761340681897501400,6.74750146484375,14.328964927601813,1.9734991904474795,-0.5041789906229823
1761340681907568400,6.757568359375,13.883810592073202,1.7490385470241308,-0.5774883377879858
1761340681917635300,6.76763525390625,13.366615102684497,1.6929788061499595,-0.47486927297580983
1761340681927702500,6.77770263671875,12.756888629114627,1.7636356660448014,-0.19083993070926517
1761340681937769500,6.78776953125,11.983428221893309,1.8584967006087303,0.138739795914758
1761340681947836400,6.79783642578125,10.942238084495067,1.8075845517560838,0.3948607569657266
1761340681957903400,6.8079033203125,9.829428818041086,1.720515778503567,0.6202306241884827
1761340681967970300,6.81797021484375,8.914884115871786,1.5724620829343794,0.8502689216136932
1761340681978037200,6.828037353515625,8.154773604089021,1.2903762028858066,1.0870253483127803
1761340681988104400,6.8381044921875,7.570925668141245,0.9604293782487511,1.2208937935978172
1761340681998171400,6.84817138671875,7.10311643321216,0.668628379067406,1.2564544979311525
1761340682008238300,6.85823828125,6.714094319272041,0.3662214493934065,1.2600886166498064
1761340682018305300,6.86830517578125,6.353482307258248,-0.025955256120115518,1.2372642059013246
1761340682028372200,6.878372314453125,6.023308103606104,-0.3786068106487393,0.9681571229565888
1761340682038439200,6.888439208984375,5.812817094954848,-0.4970610483765602,0.5324968111559748
1761340682048506400,6.89850634765625,5.738360112124681,-0.5302922137837857,0.0741140146113932
1761340682058573300,6.9085732421875,5.75072684174478,-0.5961391891788691,-0.23223114956067872
1761340682068640300,6.91864013671875,5.8870595582515,-0.7806802754722535,-0.2969823838746175
1761340682078707500,6.92870751953125,6.044043433120846,-0.9136807788163424,-0.31758561144229025
1761340682088774400,6.9387744140625,5.833741225039959,-0.8240577910363673,-0.45056945591252295
1761340682098841300,6.94884130859375,5.110834362491965,-0.4399344089232385,-0.9864129106152802
1761340682108908300,6.958908203125,4.412946205866336,-0.03178308549076318,-1.4027901375360785
1761340682118975500,6.9689755859375,3.482714105221629,0.22263876175843178,-1.916881085038185
1761340682129042400,6.97904248046875,2.1529186228781936,0.9213817816477269,-2.5164737026065587
1761340682139109400,6.989109375,0.026963410249352452,1.5720871121421456,-2.572044198659062
1761340682149176300,6.99917626953125,-2.8232781365871427,0.7710861523706466,-1.8292597924694418
1761340682159243300,7.0092431640625,-8.335150629505515,-2.251590301771462,0.3115169225204736
1761340682169310200,7.019310302734375,-21.776059048891067,-4.917559861579537,4.18819783154279
1761340682179377400,7.02937744140625,-44.8185198431015,-0.1222174627188593,5.546434103211761
1761340682189444400,7.0394443359375,-65.27237167282104,12.451384756338596,-0.3699135819096118
1761340682199511300,7.04951123046875,-69.29585561976432,20.02174986798763,-5.548417970505357
1761340682209578200,7.059578125,-65.9032671911478,14.344162496733665,-3.4391470584347843
1761340682219645200,7.069645263671875,-48.59826283822059,8.842102372777461,-2.9722146063402293
1761340682229712100,7.079712158203125,-28.813211602330206,5.248661116948724,-4.727221414119005
1761340682239779300,7.089779296875,-16.110564266490936,-0.001041654540039599,-4.778588905523717
1761340682249846500,7.099846435546875,-8.61884657509923,-3.576870060256123,-4.137625874429941
1761340682259913500,7.10991357421875,-4.146843784630298,-4.490362915284932,-3.842823720671236
1761340682269980400,7.11998046875,-1.063741576424241,-3.704959264552593,-3.709884445995092
1761340682280047400,7.13004736328125,1.3555617917627096,-2.083206204226613,-2.556388364365697
1761340682290114300,7.1401142578125,3.4277515119343995,-1.1738912194043398,-1.0725681492194532
1761340682300181500,7.150181396484375,5.230739091289043,-0.7418159995488822,-0.6028192514646799
1761340682310248400,7.16024853515625,6.922857481217384,0.5648091812178492,-1.1363960398770867
1761340682320315400,7.1703154296875,8.283914947786927,2.028856628271192,-1.6691154077425598
1761340682330382300,7.18038232421875,9.25180954734981,2.9193861024722456,-1.5341161317966878
1761340682340449300,7.19044921875,10.12278749499321,3.6228684258431194,-0.7224025662876665
1761340682350516200,7.20051611328125,10.905628309500218,4.050007796731591,0.05906856730133295
1761340682360583400,7.21058349609375,11.699961993402242,4.16457584067583,0.4072568588107824
1761340682370650400,7.220650390625,12.81141516907215,4.382347069463133,0.49233661367055026
1761340682380717300,7.23071728515625,14.469367085504532,4.927090490990877,0.7049152787834405
1761340682390784300,7.2407841796875,16.35194842605591,5.2135506406009196,1.2768044813901185
1761340682400851200,7.250851318359375,18.097704882669447,5.055003754198551,1.861991410856694
1761340682410917400,7.26091748046875,19.111282205998897,4.429760562545061,2.183882793201506
1761340682420985300,7.2709853515625,19.529234061825274,3.7444849269941445,2.0047170432709156
1761340682431051300,7.28105126953125,19.30958476420641,3.2066736428171394,1.2407482486248016
1761340682441118200,7.2911181640625,18.270763109505175,2.6724521998256443,0.026296708235237744
1761340682451185400,7.301185302734375,16.573814230680465,2.2748180326238274,-0.951782399804145
1761340682461252400,7.31125244140625,14.512523505663872,2.0385095688879487,-1.2024661565035581
1761340682471319600,7.321319580078125,12.461308768981695,1.75318952922374,-0.9143226569164544
1761340682481386500,7.331386474609375,10.524188028991222,1.3730506867021322,-0.535706457384862
1761340682491453400,7.341453369140625,8.756457640978693,0.9927379489183425,-0.2659157578238286
1761340682501520400,7.351520263671875,7.201971359717845,0.7724385168276727,-0.16030034247357397
1761340682511587300,7.36158740234375,5.818545409473776,0.5863473515480756,-0.025587299590557812
1761340682521654300,7.371654296875,4.544520914191008,0.2507927700318396,0.21644774336488917
1761340682531721500,7.381721435546875,3.739161393883824,-0.22929383573345838,0.6337352717973291
1761340682541788400,7.391788330078125,3.498497365286946,-0.7417259101126342,0.8989119564905762
1761340682551855400,7.40185546875,3.89340561465621,-0.9925270095814018,0.8756872943781315
1761340682561922300,7.41192236328125,4.576470880681276,-1.249434828427434,0.6452123591013252
1761340682571989200,7.4219892578125,5.068461201664805,-1.685970973214507,0.4225468554664403
1761340682582056200,7.43205615234375,5.3483542478442185,-2.0720175784751773,0.31636648144349455
1761340682592123400,7.442123291015625,5.453371204110979,-2.276403109858185,0.220643971212022
1761340682602190300,7.4521904296875,5.138923561900854,-2.541058108764887,0.07054551304143387
1761340682612257300,7.46225732421875,4.462880157336593,-2.6047172187268735,-0.18523873143503441
1761340682622324200,7.47232421875,3.46051864002645,-2.5365681038692593,-0.6653273647606373
1761340682632391200,7.48239111328125,1.999202225372195,-2.732970089152455,-1.379082075820863
1761340682642458000,7.4924580078125,-0.2599889067918062,-3.2363752458587287,-1.795433802974224
1761340682652525300,7.502525390625,-4.041557363772392,-3.2037063174441456,-1.901770609667897
1761340682662592300,7.51259228515625,-9.517337383568286,-1.711411703941226,-1.2636334496498107
1761340682672659200,7.5226591796875,-15.235768806385993,1.0947894064430146,0.7429607126045972
1761340682682726100,7.53272607421875,-19.51342508279681,2.4263810514882205,3.1122455928429957
1761340682692793000,7.54279296875,-20.285397297286988,0.9161059601366519,3.9707437058806416
1761340682702860000,7.552860107421875,-17.4862938170135,-2.1903508201718327,2.845466002997756
1761340682712927000,7.562927001953125,-12.865268339812754,-5.9804532967418425,0.4521785350769758
1761340682722994200,7.572994140625,-8.168118238830566,-7.550684259623289,-1.4842156442046164
1761340682733061000,7.58306103515625,-5.599982153525948,-6.156084004414081,-1.8929862685792147
1761340682743128000,7.593128173828125,-7.430259306344389,-2.865287140277028,-1.2610178603239357
1761340682753195000,7.603195068359375,-12.304146030414104,2.091422828429937,-0.8263770277641713
1761340682763262000,7.613261962890625,-16.015670644831655,7.300215460848808,-0.8890776679575443
1761340682773329200,7.6233291015625,-18.151779002684354,9.379735085517167,-0.3718218266837299
1761340682783396400,7.633396240234375,-18.62221274089813,8.05492382132709,2.2055914977930486
1761340682793463300,7.64346337890625,-16.82496458197832,6.202073017650842,4.622835156971216
1761340682803530200,7.6535302734375,-13.427002059108018,5.016398421472311,4.617079369923472
1761340682813597200,7.66359716796875,-9.651579265275597,3.872252351990342,3.178812991467118
1761340682823664000,7.6736640625,-5.911385605734586,2.504643856342137,2.0110176047198474
1761340682833731000,7.68373095703125,-2.3863269812583923,1.419817698574066,1.1414904404066502
1761340682843798300,7.69379833984375,0.6390776557385921,0.8066776902336626,0.15711941088251768
1761340682853865200,7.703865234375,3.12789412061274,0.43273090728521346,-0.9781718095578252
1761340682863932200,7.71393212890625,5.242884287112951,0.09033405865877867,-2.056250246631354
1761340682873999000,7.7239990234375,7.1260443043351165,-0.20569778302535413,-2.7214231514826417
1761340682884066000,7.734066162109375,8.682505685061216,-0.3122434101641178,-3.020336247691512
1761340682894133000,7.744133056640625,9.69540145586729,-0.1599460856758058,-2.8633842292651535
1761340682904200200,7.7542001953125,10.240202745062112,0.10334010909572243,-2.1113798670485613
1761340682914267100,7.76426708984375,10.51870755175352,0.2577024032898247,-0.998358784474805
1761340682924334000,7.774333984375,10.67042605344057,0.2540742759205401,0.13275352457938716
1761340682934401000,7.784401123046875,10.664919857239722,0.138783470659703,1.0677953087944536
1761340682944468200,7.79446826171875,10.525560486388207,0.07441168238371611,1.7984646951027214
1761340682954535200,7.80453515625,10.340662184154986,0.20242124557271599,2.2829300274088977
1761340682964602000,7.81460205078125,10.203320582866668,0.5582749571435153,2.3762561074905095
1761340682974669300,7.82466943359375,9.215710644486546,0.9720676474638282,2.0653313787095247
1761340682984736300,7.834736328125,8.022216314467787,-0.06579305325075983,0.23467340987995267
1761340682994803200,7.84480322265625,7.4353247730404135,0.10384075209423899,0.18161416599601507
1761340683004870100,7.8548701171875,6.649290130928159,-0.06346300286799669,-1.094066572061181
1761340683014937000,7.86493701171875,7.118207034838199,-0.7957077487342059,-2.19792797742784
1761340683025004000,7.875004150390625,7.990295574072003,-0.6175574594564736,-1.3836156275972724
1761340683035071200,7.8850712890625,8.07562466405034,-0.7485092135772109,-0.33616730658710003
1761340683045138200,7.89513818359375,6.423373005086183,-0.7593767906807363,0.8075080766431987
1761340683055205000,7.905205078125,3.324807270288467,-0.07806640549898147,1.7301995526500045
1761340683065272000,7.91527197265625,-0.6590922697633504,0.5943553014367818,2.3605241392210123
1761340683075339000,7.925339111328125,-4.5707817291289565,0.8442898472040891,3.0352427249222993
1761340683085406000,7.935406005859375,-7.464761879926919,0.8469997637499124,3.3948712788566944
1761340683095473200,7.94547314453125,-7.230402504432201,0.1756689207907766,3.2647517377763986
1761340683105540000,7.9555400390625,-5.465850161933899,-0.78832165707089,2.7973829400911927
1761340683115607000,7.96560693359375,-4.191277969640493,-1.6011527553677558,1.629531146981567
1761340683125674200,7.97567431640625,-3.3091526050388813,-1.6173863895490765,0.3130743080303073
1761340683135741200,7.9857412109375,-2.7991397206306456,-0.7826571285031736,-0.6187975226454436
1761340683145808100,7.99580810546875,-3.4633220070093866,0.49889104028269643,-1.6492429786674678
1761340683155874300,8.005874267578125,-6.319825536850095,1.9202593292996286,-2.7615491179049014
1761340683165941200,8.015941162109375,-9.60142261096537,3.092595428216457,-3.6543829235255716
1761340683176008200,8.02600830078125,-11.247227578008173,3.444813705894351,-3.9394253152921794
1761340683186075100,8.0360751953125,-10.396357767891883,3.032085429935157,-3.1011867309510706
1761340683196142000,8.04614208984375,-7.670873066058754,1.8613212565101682,-1.9366823485732076
1761340683206209300,8.056209228515625,-4.524598654624819,0.3561149563228711,-1.319431909239292
1761340683216276200,8.066276123046874,-1.637370900696516,-0.19436836056374013,-0.8070769917495548
1761340683226343200,8.07634326171875,0.8518138129681349,-0.27470755156660454,-0.15617942661866543
1761340683236410000,8.08641015625,2.2947931914210318,-0.6098245271168649,0.01169774431735277
1761340683246477000,8.09647705078125,4.047134287121891,-0.6974860055655241,0.6991836032636464
1761340683256544000,8.1065439453125,5.531022599068284,-0.7585887821082026,1.162454464110732
1761340683266611200,8.116611083984376,6.045352762153744,-0.7905718471504748,0.7603821683309971
1761340683276678100,8.12667822265625,6.45262364948988,-0.48167497093528505,0.8845143055647611
1761340683286745000,8.1367451171875,6.635811640673875,-0.6906417656939476,0.8082295227855444
1761340683296812000,8.14681201171875,6.126706518760323,-0.8655410172864795,0.40652182253450153
1761340683306879000,8.15687890625,5.22485178681612,-1.106460993405804,-0.26340923662930726
1761340683316946000,8.16694580078125,4.042349390932918,-1.3271062432594596,-0.5051255507580935
1761340683327013400,8.177013427734375,2.8488801953554153,-1.4894080982811748,-0.16813859835118056
1761340683337080300,8.187080322265626,1.9056150101363658,-1.6967625624723732,0.3646490124449134
1761340683347147300,8.197147216796875,1.5876339331030844,-1.816485943353176,0.9011755175083875
1761340683357214200,8.207214111328126,1.888182229298353,-1.5020477996237576,1.4099889629989861
1761340683367281200,8.21728125,2.214138522994518,-1.0300457891799508,2.014997175875306
1761340683377348000,8.22734814453125,1.5282967779934404,-0.698625530989468,2.433681437629461
1761340683387415300,8.237415283203125,-0.8767764047890901,-0.3910443770153448,1.946260616518557
1761340683397482200,8.247482177734375,-4.336944916203618,0.021113177250651642,0.5076841491997242
1761340683407549200,8.257549072265626,-7.282971480581164,0.5197079836662858,-1.0699000990539789
1761340683417616100,8.2676162109375,-8.905801814749836,0.7553374521620572,-1.973919753947109
1761340683427683000,8.27768310546875,-8.880082267081738,0.766414141971618,-2.072022693041712
1761340683437750000,8.28775,-7.394142283302545,0.640514848934859,-1.686107166814804
1761340683447817000,8.29781689453125,-5.0666445076316595,0.5283160183399915,-0.8959862783022224
1761340683457884200,8.30788427734375,-2.7451345741987225,0.49098253218047316,0.07585311336368322
1761340683467951000,8.317951171875,-0.7740905218183994,0.36312362950854,0.8689074249796569
1761340683478018000,8.32801806640625,1.0364087483406066,0.2900624118857085,1.2754681182198226
1761340683488084000,8.338083984375,2.4788228941261767,0.10187684987643733,1.3177277356699109
1761340683498152200,8.348152099609376,3.092239454385638,-0.18336254403330385,1.0056956301689148
1761340683508218000,8.358218017578125,2.9305805734425783,-0.24598104063486678,0.46688218321204183
1761340683518285000,8.36828515625,2.5107699380069968,-0.09343017977690324,-0.15902064139395952
1761340683528352300,8.378352294921875,1.868517743885517,-0.06538133064471185,-0.5288337586037815
1761340683538419200,8.388419189453124,1.0719850886344908,-0.17417203329652547,-0.7274547351107001
1761340683548486100,8.398486083984375,0.6177034437984228,-0.0674495152208954,-0.9468408517487347
1761340683558553300,8.40855322265625,0.6322346579760313,0.29960697849085555,-0.8546779702275991
1761340683568620300,8.418620361328125,0.6670826839953661,0.2965911743336357,-0.30568843556270003
1761340683578687200,8.428687255859375,0.9359873031705618,-0.037023945286311206,0.03622355215623974
1761340683588754200,8.438754150390626,1.0732587618321179,-0.1664173640491441,0.1971792532660067
1761340683598821000,8.448821044921875,0.7765478518426417,0.046728269030433145,0.2983797199845314
1761340683608888000,8.45888818359375,0.03585165010392666,0.025081213231943546,0.2324653784416616
1761340683618955300,8.468955322265625,-0.8992384119659662,-0.21127565622292457,-0.0830069306410849
1761340683629022500,8.4790224609375,-1.6996359259516,-0.41819614944364875,-0.6988755602277815
1761340683639089400,8.48908935546875,-2.135893253797293,-0.36771855608336623,-1.2676536450766027
1761340683649156400,8.49915625,-2.323521273255348,-0.3084300624210387,-1.4253677339166402
1761340683659223300,8.509223388671876,-2.2680443007051942,-0.06778959736283868,-1.1938918049037457
1761340683669290200,8.519290283203125,-1.9739181465119122,0.3514762636715546,-0.7329274674333631
1761340683679357200,8.529357177734376,-1.6352999396413563,0.4346734927203506,-0.18047946287766098
1761340683689424400,8.53942431640625,-1.297063425564766,0.3156815679192543,0.2275467728704214
1761340683699491300,8.5494912109375,-0.7843933046460151,0.23953036665813995,0.25777239978611466
1761340683709558300,8.559558349609375,-0.20460019704699514,0.35337157589886337,-0.05676803527399897
1761340683719625200,8.569625244140624,0.36383214310407636,0.34368115281593054,-0.3920052214041352
1761340683729692400,8.5796923828125,0.7979588886618614,0.09406427642935887,-0.410355409348011
1761340683739759400,8.58975927734375,1.055272438764572,-0.13163040230097248,-0.16902049575224518
1761340683749826300,8.599826416015626,1.19390232629776,-0.09088367363186553,-0.07637173041030765
1761340683759893500,8.6098935546875,1.420250829294324,0.142734381976258,-0.2003885707013309
1761340683769960400,8.61996044921875,1.5058242494225502,0.11659280950380489,-0.2843643463745713
1761340683780027400,8.63002734375,1.228663843077421,-0.08066168268918991,-0.22991057939231394
1761340683790094300,8.64009423828125,0.7890601274132728,-0.17635175195578484,-0.20927330342456696
1761340683800161300,8.650161376953125,0.3794453072994947,0.0263110746873077,-0.0718821639060974
1761340683810228200,8.660228271484375,-0.021069676035642623,0.0559091716886498,0.08248159159272908
1761340683820295400,8.67029541015625,-0.3663005790442228,-0.04126569277560338,0.12607114247232676
1761340683830362400,8.6803623046875,-0.5016664963454007,0.05369675633618608,0.11683978826850652
1761340683840429300,8.69042919921875,-0.34969781928956506,0.19380252510821447,0.2029648509301245
1761340683850496300,8.700496337890625,-0.1516992124646902,0.07495048370184376,0.23103593016043303
1761340683860563200,8.710563232421874,-0.1641477751493454,-0.1078224786741659,0.13447481368035077
1761340683870630100,8.720630126953125,-0.2983154225766659,-0.12641211966341362,-0.02492109076678753
1761340683880697300,8.730697265625,-0.4711000931680202,-0.07581461711735464,-0.2353352347895503
1761340683890764300,8.740764404296876,-0.4376175102829933,-0.041453552631055934,-0.4349462452471256
1761340683900831500,8.75083154296875,-0.14300971005260943,-0.03748530658720992,-0.35790815988257524
1761340683910898400,8.7608984375,0.1446025322020054,-0.06368367814766243,-0.09445201537162065
1761340683920965400,8.77096533203125,0.3952145388394594,-0.010393794712470844,0.06150456227660179
1761340683931032300,8.7810322265625,0.5569347945809364,0.04030804499089718,0.007917348995804787
1761340683941099500,8.791099609375,0.43034255084395406,-0.03333753012483939,-0.14627543385028838
1761340683951166500,8.80116650390625,0.029276363366842268,-0.0920510551771149,-0.21209785932600497
1761340683961233400,8.8112333984375,-0.3659615563482046,-0.1720510956197977,-0.2840847987808287
1761340683971300400,8.82130029296875,-0.6166314306527376,-0.23709428035132585,-0.42594037036225196
1761340683981367300,8.8313671875,-0.7123813768804073,-0.21593283437900243,-0.5648660259716213
1761340683991434200,8.841434326171875,-0.7196428923159838,-0.1599299747912213,-0.5599423058338463
1761340684001501400,8.85150146484375,-0.7917723089814186,-0.14143793982439673,-0.4579100644662976
1761340684011568400,8.861568359375,-0.7430337047755717,-0.18744700033534317,-0.25324586227238177
1761340684021635300,8.87163525390625,-0.3800590552836656,-0.16142373874662444,0.21097353147119283
1761340684031702300,8.881702392578125,0.22631343168318271,0.06197272777762264,0.6338852016620338
1761340684041769200,8.891769287109375,0.7990607124239206,0.09801370817488059,0.6575897562459111
1761340684051836200,8.901836181640626,0.6168553025364876,-0.06180381008465774,0.23667773543968795
1761340684061903400,8.9119033203125,0.5966273380219936,0.18000704132663084,-0.4674550146639347
1761340684071970600,8.921970458984376,0.6054635554283857,0.18468865980422122,-0.29439298843592404
1761340684082037500,8.93203759765625,0.36406770542562006,-0.29678222166001794,-0.22015198644399642
