time,seconds_elapsed,z,y,x
1761340675233132000,0.083132080078125,-0.00551177840679884,0.582126796245575,0.5981201529502869
1761340675243199200,0.09319921875,-0.09981191158294678,0.5622087121009827,0.5966455936431885
1761340675253266200,0.10326611328125,-0.17152026295661926,0.4560469090938568,0.629042387008667
1761340675263333000,0.1133330078125,-0.20490139722824097,0.2589263916015625,0.6756032705307007
1761340675273401000,0.123401123046875,-0.2335767298936844,0.04172803461551666,0.6807416081428528
1761340675283468000,0.133468017578125,-0.2488965541124344,-0.020967302843928337,0.7083061337471008
1761340675293535000,0.143534912109375,-0.2692568898200989,0.016040118411183357,0.7451497316360474
1761340675303602000,0.153601806640625,-0.25271785259246826,-0.00795043632388115,0.7567659020423889
1761340675313668900,0.1636689453125,-0.1474994271993637,-0.012540929950773716,0.7868021726608276
1761340675323736000,0.173736083984375,0.02250692807137966,-0.013789686374366283,0.823009729385376
1761340675333803000,0.183802978515625,0.22107255458831787,0.04788391664624214,0.8708635568618774
1761340675343870000,0.193869873046875,0.4592081308364868,0.19401901960372925,0.9512507915496826
1761340675353937000,0.20393701171875,0.726387083530426,0.3108815848827362,1.06820547580719
1761340675364004000,0.214004150390625,0.9246389269828796,0.29596176743507385,1.2131565809249878
1761340675374071000,0.224071044921875,0.9991385340690613,0.18667131662368774,1.3637359142303467
1761340675384138000,0.234137939453125,0.9287799596786499,0.006835510954260826,1.4660351276397705
1761340675394205200,0.244205078125,0.8692459464073181,0.015550359152257442,1.504723072052002
1761340675404272000,0.254272216796875,0.923272430896759,0.10068628937005997,1.472150206565857
1761340675414339000,0.264339111328125,1.0288084745407104,0.01916607655584812,1.4332704544067383
1761340675424406000,0.274406005859375,1.058264136314392,0.021888891234993935,1.511073112487793
1761340675434473000,0.284472900390625,0.958526611328125,0.0048062363639473915,1.6733733415603638
1761340675444540000,0.294539794921875,0.8224182724952698,-0.1488480418920517,1.932381272315979
1761340675454607000,0.304607177734375,1.1216821670532227,-0.4676860570907593,2.1537532806396484
1761340675464674000,0.314674072265625,1.631294846534729,-0.2924082577228546,2.2763590812683105
1761340675474741000,0.324740966796875,1.863372802734375,-0.015129865147173405,2.12711763381958
1761340675484808000,0.334807861328125,1.7604565620422363,0.24468253552913666,1.849161982536316
1761340675494875000,0.344875,1.6975429058074951,0.18675905466079712,1.4648221731185913
1761340675504943000,0.354943115234375,1.612359881401062,-0.0462222620844841,1.1701809167861938
1761340675515010000,0.365010009765625,1.4591072797775269,-0.3099602162837982,0.9822689294815063
1761340675525077000,0.375076904296875,1.3106062412261963,-0.40526676177978516,0.7519156336784363
1761340675535144200,0.385144287109375,1.1781060695648193,-0.30286699533462524,0.42625805735588074
1761340675545211100,0.395211181640625,1.0017201900482178,-0.0688939318060875,0.036016546189785004
1761340675555278000,0.405278076171875,0.7732223868370056,0.11540868133306503,-0.3745623230934143
1761340675565345000,0.415344970703125,0.3946731686592102,-0.3130481243133545,-0.8499488234519958
1761340675575412000,0.425411865234375,-0.1399277150630951,-0.9409829378128052,-1.2976361513137817
1761340675585479000,0.43547900390625,-0.3637203574180603,-2.0207507610321045,-1.9307821989059448
1761340675595546000,0.445546142578125,-0.39364781975746155,-2.725862503051758,-2.609450578689575
1761340675605613000,0.455613037109375,-0.552289605140686,-2.03005051612854,-3.0609779357910156
1761340675615680500,0.465680419921875,-0.8919191956520081,-0.6083671450614929,-3.2184088230133057
1761340675625747500,0.47574755859375,-1.2258830070495605,0.6213014125823975,-3.144421339035034
1761340675635814400,0.485814453125,-1.1526187658309937,0.8470437526702881,-3.011963129043579
1761340675645881300,0.49588134765625,-0.8981694579124451,0.8550041913986206,-2.763855457305908
1761340675655948300,0.5059482421875,-0.7374874949455261,0.9379633069038391,-2.306422710418701
1761340675666015500,0.516015380859375,-0.6289929747581482,0.7798855304718018,-1.7589490413665771
1761340675676082400,0.52608251953125,-0.5943268537521362,0.6269411444664001,-1.1308976411819458
1761340675686149400,0.5361494140625,-0.5648917555809021,0.5017770528793335,-0.5315365195274353
1761340675696216600,0.546216552734375,-0.5273830890655518,0.35983696579933167,0.005955771543085575
1761340675706283500,0.556283447265625,-0.5131503939628601,0.27260032296180725,0.41952791810035706
1761340675716350500,0.5663505859375,-0.5197151303291321,0.21013878285884857,0.6897734999656677
1761340675726417700,0.576417724609375,-0.5647749900817871,0.2004198431968689,0.7770242691040039
1761340675736485400,0.5864853515625,-0.5990659594535828,0.21895624697208405,0.7066285014152527
1761340675746552600,0.596552490234375,-0.5792954564094543,0.21285495162010193,0.5033510327339172
1761340675756619500,0.60661962890625,-0.5215849876403809,0.1298292577266693,0.19518576562404633
1761340675766686500,0.6166865234375,-0.42805635929107666,-0.027484478428959846,-0.191471129655838
1761340675776753400,0.62675341796875,-0.3093407154083252,-0.19786007702350616,-0.6358624696731567
1761340675786820400,0.6368203125,-0.15560200810432434,-0.29697123169898987,-1.097601056098938
1761340675796887300,0.64688720703125,-0.011021992191672325,-0.2693740427494049,-1.4800305366516113
1761340675806954500,0.65695458984375,0.1304459273815155,-0.16594594717025757,-1.7646253108978271
1761340675817021400,0.667021484375,0.30637940764427185,0.3245755732059479,-1.7897764444351196
1761340675827088400,0.67708837890625,0.47688427567481995,0.1980261504650116,-1.6977479457855225
1761340675837155600,0.687155517578125,0.5074379444122314,0.36375853419303894,-1.3381149768829346
1761340675847222500,0.697222412109375,0.5438380837440491,0.1893603652715683,-0.9472532868385315
1761340675857289500,0.70728955078125,0.6057505011558533,0.11975108087062836,-0.46599677205085754
1761340675867356400,0.7173564453125,0.7008095979690552,0.01528752502053976,-0.06741823256015778
1761340675877423600,0.727423583984375,0.8244065046310425,-0.0674026608467102,0.2270909994840622
1761340675887490600,0.737490478515625,0.9525189399719238,-0.10636976361274719,0.4254229664802551
1761340675897557500,0.7475576171875,1.058542013168335,-0.12105491012334824,0.5112265944480896
1761340675907624400,0.75762451171875,1.1391135454177856,-0.01873093470931053,0.5622101426124573
1761340675917691400,0.76769140625,1.184391975402832,0.1717810481786728,0.5932403802871704
1761340675927758300,0.77775830078125,1.185145378112793,0.3869114816188812,0.6114079356193542
1761340675937825500,0.787825439453125,1.1739534139633179,0.6103655695915222,0.597318172454834
1761340675947892500,0.797892578125,1.1139694452285767,0.8026367425918579,0.5450248718261719
1761340675957959400,0.80795947265625,1.0276657342910767,1.0056486129760742,0.46365833282470703
1761340675968026400,0.8180263671875,0.9793540835380554,1.2162104845046997,0.37841108441352844
1761340675978094600,0.828094482421875,0.8887004256248474,1.3947538137435913,0.23848475515842438
1761340675988161500,0.83816162109375,0.7521399259567261,1.301522970199585,0.02739567682147026
1761340675998228500,0.848228515625,0.6651788353919983,0.8151035308837891,-0.3350973129272461
1761340676008295400,0.85829541015625,0.6689975261688232,0.06026003882288933,-0.8089718818664551
1761340676018362600,0.868362548828125,0.7317529320716858,-0.7798448204994202,-1.1796419620513916
1761340676028429600,0.8784296875,0.6221436262130737,-1.4833883047103882,-1.3442882299423218
1761340676038496500,0.88849658203125,0.28612542152404785,-2.031648635864258,-1.2117353677749634
1761340676048563500,0.8985634765625,0.16539770364761353,-2.0880014896392822,-0.8417837023735046
1761340676058630400,0.90863037109375,0.2759377658367157,-1.3596093654632568,-0.20244042575359344
1761340676068697300,0.918697265625,0.3897540867328644,-0.3435569405555725,0.6012600660324097
1761340676078764500,0.9287646484375,0.23395498096942902,0.45712822675704956,1.3082544803619385
1761340676088831500,0.93883154296875,-0.12958914041519165,0.7687036991119385,1.6691029071807861
1761340676098898400,0.9488984375,-0.6511939167976379,0.6828956007957458,1.6111952066421509
1761340676108965400,0.95896533203125,-1.350403904914856,0.3951823115348816,1.2108222246170044
1761340676119032300,0.9690322265625,-2.1181046962738037,0.2693629562854767,0.5704085826873779
1761340676129099300,0.979099365234375,-2.7197225093841553,0.4014240801334381,-0.1926743984222412
1761340676139166700,0.989166748046875,-3.064636707305908,0.5742613077163696,-0.9073505401611328
1761340676149233700,0.999233642578125,-3.1494479179382324,0.6324029564857483,-1.4641804695129395
1761340676159300600,1.009300537109375,-3.003283739089966,0.8068630695343018,-1.8485500812530518
1761340676169367600,1.019367431640625,-2.7433815002441406,1.0485059022903442,-2.0493760108947754
1761340676179434500,1.0294345703125,-2.3950865268707275,1.2857884168624878,-1.9896808862686157
1761340676189501400,1.03950146484375,-1.9693448543548584,1.3465931415557861,-1.6298279762268066
1761340676199568400,1.049568359375,-1.5043457746505737,1.2162184715270996,-1.0083818435668945
1761340676209635600,1.059635498046875,-1.0489580631256104,0.8841648697853088,-0.22223028540611267
1761340676219703600,1.06970361328125,-0.6504279375076294,0.436998575925827,0.604918360710144
1761340676229770500,1.0797705078125,-0.3131261169910431,0.029496043920516968,1.3183358907699585
1761340676239837400,1.08983740234375,-0.030532313510775566,-0.23910340666770935,1.8236980438232422
1761340676249904400,1.099904296875,0.15064705908298492,-0.39187857508659363,2.126538038253784
1761340676259971300,1.109971435546875,0.22370879352092743,-0.3833175301551819,2.259032964706421
1761340676270038300,1.120038330078125,0.2830544412136078,-0.300110787153244,2.214555501937866
1761340676280105500,1.13010546875,0.32064709067344666,-0.16857309639453888,1.9878638982772827
1761340676290172700,1.140172607421875,0.35430705547332764,-0.038103241473436356,1.6115992069244385
1761340676300239600,1.150239501953125,0.35291293263435364,0.054333560168743134,1.138872742652893
1761340676310306600,1.160306640625,0.3174031376838684,0.11951549351215363,0.6164242625236511
1761340676320373500,1.17037353515625,0.2580198645591736,0.1628209352493286,0.07350795716047287
1761340676330440400,1.1804404296875,0.20994023978710175,0.22577513754367828,-0.44946232438087463
1761340676340507400,1.19050732421875,0.22139164805412292,0.30900925397872925,-0.8772568106651306
1761340676350574600,1.20057470703125,0.2704375088214874,0.39555665850639343,-1.182287573814392
1761340676360641500,1.2106416015625,0.34840044379234314,0.5092901587486267,-1.3635010719299316
1761340676370708500,1.22070849609375,0.450021892786026,0.5904963612556458,-1.40809965133667
1761340676380775400,1.230775390625,0.5687358379364014,0.6017829179763794,-1.2700297832489014
1761340676390842400,1.24084228515625,0.7156903743743896,0.48142749071121216,-0.9207450151443481
1761340676400909300,1.250909423828125,0.8518174886703491,0.17369772493839264,-0.4395962357521057
1761340676410976500,1.2609765625,0.9926877617835999,-0.1891752928495407,0.10254000872373581
1761340676421043500,1.27104345703125,1.11334228515625,-0.4426954686641693,0.5762711763381958
1761340676431110400,1.2811103515625,1.2262287139892578,-0.5362805724143982,0.9294819235801697
1761340676441177300,1.29117724609375,1.3003120422363281,-0.4981399178504944,1.1563595533370972
1761340676451244500,1.30124462890625,1.3256546258926392,-0.39968445897102356,1.2629212141036987
1761340676461311500,1.3113115234375,1.3135051727294922,-0.27168264985084534,1.2197585105895996
1761340676471378700,1.321378662109375,1.2850271463394165,-0.09030833095312119,1.0425852537155151
1761340676481445600,1.331445556640625,1.22831130027771,0.08576425909996033,0.7580875754356384
1761340676491513600,1.341513671875,1.1466315984725952,0.3409193158149719,0.4036533236503601
1761340676501580500,1.35158056640625,1.0469894409179688,0.7211201786994934,0.0554945170879364
1761340676511647500,1.3616474609375,0.9019268155097961,1.175062894821167,-0.20710861682891846
1761340676521714400,1.37171435546875,0.7575258612632751,1.6511553525924683,-0.396206796169281
1761340676531781400,1.381781494140625,0.6425593495368958,2.0857300758361816,-0.554386556148529
1761340676541848300,1.391848388671875,0.5902895927429199,2.252190351486206,-0.739051103591919
1761340676551915500,1.40191552734375,0.5736013650894165,1.7232472896575928,-0.9339354038238525
1761340676561982500,1.411982421875,0.4635361433029175,0.06941518932580948,-1.0969258546829224
1761340676572049400,1.42204931640625,0.29917648434638977,-2.3630266189575195,-1.2147494554519653
1761340676582116400,1.432116455078125,0.08368320763111115,-4.226905822753906,-1.2801284790039062
1761340676592183600,1.44218359375,-0.35660868883132935,-4.92754602432251,-1.3116377592086792
1761340676602250500,1.45225048828125,-0.7849991917610168,-4.3647990226745605,-1.255913496017456
1761340676612317400,1.4623173828125,-0.8900028467178345,-2.454484224319458,-0.9862992763519287
1761340676622384400,1.47238427734375,-0.9569897055625916,-0.14751332998275757,-0.4759868085384369
1761340676632451300,1.482451416015625,-1.2891324758529663,1.3467679023742676,-0.035200364887714386
1761340676642518300,1.492518310546875,-1.7889968156814575,1.994086742401123,0.11705829203128815
1761340676652585200,1.502585205078125,-2.2863051891326904,1.9527701139450073,0.06027516350150108
1761340676662652200,1.512652099609375,-2.686051845550537,1.594994068145752,-0.07431899011135101
1761340676672719400,1.52271923828125,-2.9788246154785156,1.332453727722168,-0.23043322563171387
1761340676682786600,1.53278662109375,-3.220414876937866,1.2508859634399414,-0.3986820876598358
1761340676692853500,1.542853515625,-3.385101795196533,1.2424812316894531,-0.5528599619865417
1761340676702920400,1.55292041015625,-3.4842917919158936,1.2776765823364258,-0.6684615015983582
1761340676712987400,1.5629873046875,-3.4052045345306396,1.3094449043273926,-0.7281916737556458
1761340676723054300,1.573054443359375,-3.10477876663208,1.3292415142059326,-0.7015159130096436
1761340676733121300,1.583121337890625,-2.6568973064422607,1.3191273212432861,-0.5161008238792419
1761340676743188500,1.5931884765625,-2.1617958545684814,1.1224541664123535,-0.08581418544054031
1761340676753255400,1.60325537109375,-1.7551325559616089,0.7022896409034729,0.5888779759407043
1761340676763322400,1.613322265625,-1.5231425762176514,0.2515764832496643,1.3414310216903687
1761340676773389300,1.623389404296875,-1.3536618947982788,-0.12942704558372498,1.9459319114685059
1761340676783457300,1.633457275390625,-1.2158393859863281,-0.35463032126426697,2.3001410961151123
1761340676793524200,1.643524169921875,-1.0417309999465942,-0.4387736916542053,2.339794397354126
1761340676803591200,1.653591064453125,-0.8370835781097412,-0.42785370349884033,2.080491304397583
1761340676813658000,1.663658203125,-0.6218713521957397,-0.389882355928421,1.5908119678497314
1761340676823725600,1.6737255859375,-0.3770221471786499,-0.3082033395767212,0.973588764667511
1761340676833792500,1.68379248046875,-0.0854683369398117,-0.19733940064907074,0.25693634152412415
1761340676843859500,1.693859375,0.2377379983663559,-0.026234731078147888,-0.4808952510356903
1761340676853926400,1.703926513671875,0.5716781616210938,0.11257348954677582,-1.0693877935409546
1761340676863993300,1.713993408203125,0.8351614475250244,0.12171371281147003,-1.4149912595748901
1761340676874060300,1.724060302734375,1.0221567153930664,0.000810469500720501,-1.5482587814331055
1761340676884127500,1.73412744140625,1.1291977167129517,-0.16564634442329407,-1.4700714349746704
1761340676894194400,1.7441943359375,1.1575710773468018,-0.3512582778930664,-1.2230249643325806
1761340676904261400,1.754261474609375,1.1149628162384033,-0.500637412071228,-0.8605114817619324
1761340676914328300,1.764328369140625,1.0793142318725586,-0.6015334129333496,-0.4687967002391815
1761340676924395300,1.774395263671875,1.0957611799240112,-0.6128984689712524,-0.08790872246026993
1761340676934462200,1.784462158203125,1.1593950986862183,-0.602472722530365,0.26533058285713196
1761340676944529400,1.794529296875,1.2004451751708984,-0.6842228174209595,0.5558056831359863
1761340676954596400,1.804596435546875,1.1776151657104492,-0.7973679304122925,0.7626097798347473
1761340676964663300,1.814663330078125,1.1343019008636475,-0.8342024683952332,0.8334008455276489
1761340676974730200,1.824730224609375,1.0987313985824585,-0.786017894744873,0.7763519883155823
1761340676984797200,1.834797119140625,1.079553484916687,-0.653471052646637,0.5859793424606323
1761340676994864400,1.844864501953125,1.0574164390563965,-0.47537776827812195,0.30048102140426636
1761340677004931300,1.854931396484375,1.0412278175354004,-0.20697031915187836,-0.04195384681224823
1761340677014998500,1.86499853515625,1.014585018157959,0.08373953402042389,-0.3662930428981781
1761340677025065500,1.8750654296875,0.9726632237434387,0.29036158323287964,-0.5607094168663025
1761340677035132400,1.88513232421875,0.894340455532074,0.36668723821640015,-0.5599349737167358
1761340677045199400,1.895199462890625,0.7671610713005066,0.31232306361198425,-0.40807515382766724
1761340677055266300,1.905266357421875,0.6364688277244568,0.2566494047641754,-0.1171671450138092
1761340677065333200,1.915333251953125,0.5769396424293518,0.28533607721328735,0.20897772908210754
1761340677075400400,1.925400390625,0.5998422503471375,0.5214410424232483,0.46033167839050293
1761340677085467400,1.93546728515625,0.7192248702049255,0.8891102075576782,0.5836423635482788
1761340677095534300,1.945534423828125,0.7453176975250244,0.9961836934089661,0.4951498210430145
1761340677105602300,1.955602294921875,0.5281174182891846,0.2938214838504791,-0.007999406196177006
1761340677115669200,1.965669189453125,0.2973177433013916,-1.2844375371932983,-1.0107269287109375
1761340677125736200,1.975736083984375,0.5176591873168945,-2.992018461227417,-2.2534711360931396
1761340677135803400,1.985803466796875,1.135901927947998,-3.788330554962158,-3.195155382156372
1761340677145870300,1.995870361328125,1.6526224613189697,-3.5899410247802734,-3.252016067504883
1761340677155937500,2.0059375,1.9734489917755127,-2.8181400299072266,-2.2190608978271484
1761340677166004500,2.01600439453125,1.9524182081222534,-1.7852572202682495,0.03241921588778496
1761340677176071400,2.026071533203125,1.69466233253479,-1.131590723991394,2.6166396141052246
1761340677186138400,2.036138427734375,1.1503801345825195,-0.8669313788414001,4.091529369354248
1761340677196205300,2.046205322265625,0.27958351373672485,-0.5479257106781006,4.300856113433838
1761340677206272300,2.056272216796875,-0.6788406372070312,-0.337002158164978,3.543672800064087
1761340677216339500,2.06633935546875,-1.4963006973266602,-0.23436231911182404,2.1072115898132324
1761340677226406400,2.076406494140625,-2.1500802040100098,-0.034941840916872025,0.42318063974380493
1761340677236473300,2.086473388671875,-2.580693483352661,0.3061060309410095,-1.211728811264038
1761340677246540300,2.096540283203125,-2.7186532020568848,0.8462662100791931,-2.39501690864563
1761340677256607200,2.106607177734375,-2.7241458892822266,1.4610284566879272,-2.9044711589813232
1761340677266674200,2.116674072265625,-2.6225757598876953,1.888061761856079,-2.6864166259765625
1761340677276741400,2.126741455078125,-2.3823928833007812,2.0937881469726562,-1.8970087766647339
1761340677286808300,2.136808349609375,-1.992365837097168,2.094421625137329,-0.7633094191551208
1761340677296875300,2.146875244140625,-1.5378795862197876,1.8881351947784424,0.40821945667266846
1761340677306942500,2.1569423828125,-1.0582118034362793,1.433405876159668,1.428393006324768
1761340677317009400,2.167009521484375,-0.5547441244125366,0.819982647895813,2.1955432891845703
1761340677327076400,2.177076416015625,-0.0470050685107708,0.12760743498802185,2.7392725944519043
1761340677337143300,2.187143310546875,0.39032912254333496,-0.5714814066886902,3.040757179260254
1761340677347210500,2.19721044921875,0.7288259863853455,-1.070239782333374,3.079960346221924
1761340677357277400,2.20727734375,0.9143215417861938,-1.270270586013794,2.839143991470337
1761340677367344400,2.217344482421875,0.9548563957214355,-1.2151329517364502,2.343574285507202
1761340677377411300,2.227411376953125,0.9048739671707153,-0.9944532513618469,1.550188660621643
1761340677387478300,2.237478271484375,0.78481525182724,-0.6886116862297058,0.6346626877784729
1761340677397545200,2.247545166015625,0.624103307723999,-0.41794317960739136,-0.25209859013557434
1761340677407612400,2.2576123046875,0.42496079206466675,-0.2022114247083664,-1.0277377367019653
1761340677417679400,2.267679443359375,0.18824972212314606,-0.06225911155343056,-1.6499184370040894
1761340677427746300,2.277746337890625,-0.04012217000126839,0.10522127896547318,-2.1327760219573975
1761340677437813200,2.287813232421875,-0.1898842304944992,0.3281576931476593,-2.4580183029174805
1761340677447881500,2.297881591796875,-0.19373923540115356,0.4789239764213562,-2.544189929962158
1761340677457948400,2.307948486328125,-0.0894959345459938,0.4111896753311157,-2.3480803966522217
1761340677468015400,2.318015380859375,0.08532766252756119,0.09932815283536911,-1.9218673706054688
1761340677478082300,2.328082275390625,0.27735647559165955,-0.25794821977615356,-1.357005000114441
1761340677488149500,2.3381494140625,0.45489513874053955,-0.5919052362442017,-0.7838970422744751
1761340677498216400,2.348216552734375,0.5772399306297302,-0.8885864019393921,-0.2589547038078308
1761340677508283400,2.358283447265625,0.6150683760643005,-1.0893473625183105,0.1448727548122406
1761340677518350300,2.368350341796875,0.5524028539657593,-1.102484941482544,0.36327141523361206
1761340677528417300,2.378417236328125,0.4263390898704529,-0.9909915924072266,0.4142434597015381
1761340677538484200,2.388484130859375,0.27702683210372925,-0.8008978366851807,0.2984084486961365
1761340677548551400,2.398551513671875,0.10599023848772049,-0.5887799859046936,0.06700365990400314
1761340677558618400,2.408618408203125,-0.10228493809700012,-0.390271931886673,-0.22055435180664062
1761340677568685300,2.418685302734375,-0.31556159257888794,-0.19675756990909576,-0.5488747954368591
1761340677578752300,2.428752197265625,-0.49791353940963745,0.017675621435046196,-0.8299418687820435
1761340677588819200,2.438819091796875,-0.6151453256607056,0.23959511518478394,-1.0277587175369263
1761340677598886100,2.44888623046875,-0.6978143453598022,0.4922105669975281,-1.1475133895874023
1761340677608953000,2.458953125,-0.7665055394172668,0.8040556311607361,-1.151422142982483
1761340677619020000,2.46902001953125,-0.7500951290130615,1.0602750778198242,-1.041677474975586
1761340677629087000,2.4790869140625,-0.5778093338012695,1.1918525695800781,-0.7831497192382812
1761340677639154000,2.48915380859375,-0.2828599810600281,1.1964794397354126,-0.296199232339859
1761340677649220900,2.499220947265625,-0.039106376469135284,0.9717097282409668,0.1812523603439331
1761340677659287800,2.509287841796875,0.03066418319940567,0.34101352095603943,0.24885804951190948
1761340677669355000,2.51935498046875,-0.021514534950256348,-0.7070277333259583,-0.19368761777877808
1761340677679422000,2.529421875,-0.13272787630558014,-1.744074821472168,-0.9403700828552246
1761340677689489000,2.539489013671875,-0.23639868199825287,-2.5619447231292725,-1.7392300367355347
1761340677699555800,2.549555908203125,-0.2692791521549225,-3.1642229557037354,-2.368645429611206
1761340677709622800,2.559622802734375,-0.16187848150730133,-3.1486287117004395,-2.5738890171051025
1761340677719690000,2.56968994140625,0.04973176121711731,-1.977427363395691,-2.0293731689453125
1761340677729757200,2.579757080078125,0.09336574375629425,-0.36726221442222595,-0.8933821320533752
1761340677739824000,2.58982421875,-0.22059352695941925,0.8265636563301086,0.2411191463470459
1761340677749891000,2.59989111328125,-0.6416540145874023,1.4384158849716187,0.9142040610313416
1761340677759958000,2.6099580078125,-0.9600711464881897,1.6932364702224731,1.1810898780822754
1761340677770025000,2.62002490234375,-1.1314849853515625,1.735345482826233,1.2048708200454712
1761340677780092000,2.630091796875,-1.2588165998458862,1.5552107095718384,0.8999908566474915
1761340677790159000,2.6401591796875,-1.7403696775436401,1.2315551042556763,0.3429742753505707
1761340677800226000,2.65022607421875,-2.402275323867798,1.0806182622909546,-0.2819806933403015
1761340677810293000,2.66029296875,-2.882474184036255,1.328869342803955,-0.5624455213546753
1761340677820361000,2.67036083984375,-2.914541721343994,1.2487678527832031,-0.5757206082344055
1761340677830428000,2.680427978515625,-2.7179925441741943,0.7017742991447449,-0.3236328363418579
1761340677840494800,2.690494873046875,-2.3992226123809814,0.14741815626621246,-0.028564443811774254
1761340677850561800,2.700561767578125,-1.8970550298690796,-0.16055408120155334,0.17598183453083038
1761340677860629000,2.71062890625,-1.2016980648040771,-0.24227264523506165,0.27428069710731506
1761340677870696200,2.7206962890625,-0.5135257244110107,-0.23384948074817657,0.3121902346611023
1761340677880763100,2.73076318359375,0.019033510237932205,-0.2470446527004242,0.3103063106536865
1761340677890830000,2.740830078125,0.37519675493240356,-0.2611353397369385,0.30677685141563416
1761340677900897000,2.75089697265625,0.6082870364189148,-0.24536728858947754,0.295612096786499
1761340677910964000,2.7609638671875,0.7659195065498352,-0.14491772651672363,0.3059052526950836
1761340677921031000,2.771031005859375,0.8528077602386475,-0.03110433742403984,0.318084180355072
1761340677931098000,2.78109814453125,0.8313621878623962,0.03528791666030884,0.33020520210266113
1761340677941165000,2.7911650390625,0.7066705822944641,0.02283577248454094,0.3080495595932007
1761340677951232000,2.80123193359375,0.5081616640090942,-0.05269589275121689,0.22106260061264038
1761340677961299000,2.811298828125,0.2554277181625366,-0.14420557022094727,0.006119671277701855
1761340677971366000,2.821365966796875,0.024251190945506096,-0.13398656249046326,-0.33360692858695984
1761340677981432800,2.831432861328125,-0.12641261518001556,0.023445405066013336,-0.7107886075973511
1761340677991499800,2.841499755859375,-0.19169721007347107,0.23225019872188568,-1.013364315032959
1761340678001567000,2.85156689453125,-0.22226789593696594,0.3786156475543976,-1.1302142143249512
1761340678011634000,2.861634033203125,-0.20093369483947754,0.41781407594680786,-1.0155893564224243
1761340678021700900,2.871700927734375,-0.13152185082435608,0.3929116427898407,-0.7416754961013794
1761340678031768000,2.88176806640625,-0.0393328033387661,0.38105908036231995,-0.37775376439094543
1761340678041835000,2.8918349609375,0.06115172803401947,0.357365220785141,0.038527876138687134
1761340678051902000,2.90190185546875,0.17045685648918152,0.2698075473308563,0.43332117795944214
1761340678061969200,2.91196923828125,0.2807295620441437,0.16369974613189697,0.7572041749954224
1761340678072036000,2.9220361328125,0.3839135766029358,0.07106516510248184,0.9788896441459656
1761340678082103000,2.93210302734375,0.4637833833694458,0.014300688169896603,1.1099168062210083
1761340678092170000,2.942169921875,0.4986504316329956,0.030035506933927536,1.171002984046936
1761340678102237000,2.95223681640625,0.4814320206642151,0.1233510747551918,1.168472409248352
1761340678112303900,2.962303955078125,0.4168388843536377,0.271306574344635,1.1455286741256714
1761340678122371000,2.97237109375,0.34440356492996216,0.46639084815979004,1.1354751586914062
1761340678132438000,2.98243798828125,0.2737540006637573,0.731601357460022,1.1323366165161133
1761340678142505000,2.9925048828125,0.20969776809215546,0.9603764414787292,1.1547127962112427
1761340678152572000,3.002572021484375,0.15149423480033875,1.0677759647369385,1.1920607089996338
1761340678162638800,3.012638916015625,0.12260744720697403,1.0688250064849854,1.1983084678649902
1761340678172705800,3.022705810546875,0.09790380299091339,1.1756834983825684,1.1165530681610107
1761340678182773000,3.03277294921875,0.14438875019550323,1.3041833639144897,0.8885462284088135
1761340678192840000,3.04283984375,0.23101447522640228,1.6060693264007568,0.4939810633659363
1761340678202907100,3.0529072265625,0.49437767267227173,1.867021083831787,-0.049495015293359756
1761340678212974000,3.06297412109375,0.8874992728233337,1.8269542455673218,-0.6413480639457703
1761340678223041000,3.073041015625,1.2809560298919678,0.901894211769104,-1.3322803974151611
1761340678233108000,3.08310791015625,1.7258135080337524,-1.1999093294143677,-2.283967971801758
1761340678243176000,3.093176025390625,2.3796308040618896,-3.8550119400024414,-3.315873622894287
1761340678253243000,3.103242919921875,2.9588160514831543,-5.609019756317139,-3.4717249870300293
1761340678263310000,3.11331005859375,2.9131405353546143,-5.227691650390625,-2.306412696838379
1761340678273377000,3.123376953125,2.415276050567627,-3.150536060333252,-0.22694557905197144
1761340678283444000,3.13344384765625,1.984815001487732,-0.7252327799797058,1.8117226362228394
1761340678293511000,3.143510986328125,1.2882168292999268,1.0082024335861206,2.744657278060913
1761340678303577900,3.153577880859375,0.48169639706611633,2.0015594959259033,2.6271395683288574
1761340678313644800,3.163644775390625,-0.12659332156181335,2.496990442276001,2.0730550289154053
1761340678323712000,3.1737119140625,-0.48059746623039246,2.614170551300049,1.3595432043075562
1761340678333779000,3.183779052734375,-0.38958731293678284,2.051476240158081,0.905214786529541
1761340678343846100,3.19384619140625,-0.41945305466651917,0.8630865216255188,1.1762195825576782
1761340678353913000,3.2039130859375,-1.4189355373382568,-0.8823029398918152,1.8235986232757568
1761340678363980000,3.21397998046875,-2.3331751823425293,-1.2645273208618164,1.985787272453308
1761340678374047000,3.224046875,-2.494896650314331,-0.3924786448478699,1.6940163373947144
1761340678384114000,3.234114013671875,-2.2697865962982178,0.5308573842048645,1.1877167224884033
1761340678394181000,3.24418115234375,-2.034813165664673,1.2267273664474487,0.65000319480896
1761340678404248000,3.254248046875,-1.9199631214141846,1.930850625038147,0.19937048852443695
1761340678414315000,3.26431494140625,-1.8606383800506592,2.5213427543640137,-0.10054581612348557
1761340678424382000,3.2743818359375,-1.736026406288147,2.7758333683013916,-0.17342588305473328
1761340678434449000,3.284448974609375,-1.5176670551300049,2.5869462490081787,0.010687730275094509
1761340678444515800,3.294515869140625,-1.2310328483581543,2.0192313194274902,0.3199012279510498
1761340678454583000,3.3045830078125,-0.8404686450958252,1.3300997018814087,0.6138767600059509
1761340678464650000,3.31464990234375,-0.39252176880836487,0.6587769389152527,0.7473490834236145
1761340678474717000,3.324717041015625,0.043611325323581696,0.12642937898635864,0.7125154137611389
1761340678484783900,3.334783935546875,0.37787532806396484,-0.21383418142795563,0.5333102345466614
1761340678494850800,3.344850830078125,0.6063533425331116,-0.31881991028785706,0.2232542783021927
1761340678504917800,3.354917724609375,0.7299072742462158,-0.3016297221183777,-0.1462678462266922
1761340678514985000,3.36498486328125,0.7336170077323914,-0.26336801052093506,-0.48700910806655884
1761340678525052200,3.37505224609375,0.6436876654624939,-0.259597510099411,-0.7788977026939392
1761340678535119000,3.385119140625,0.4826771914958954,-0.2275971621274948,-1.0204929113388062
1761340678545186000,3.39518603515625,0.31330546736717224,-0.1715323030948639,-1.1899685859680176
1761340678555253000,3.4052529296875,0.20317164063453674,-0.10650039464235306,-1.2604217529296875
1761340678565320000,3.41531982421875,0.17306940257549286,-0.05872195214033127,-1.2153470516204834
1761340678575387000,3.425386962890625,0.18375125527381897,-0.07940889894962311,-1.0496647357940674
1761340678585454000,3.4354541015625,0.22427016496658325,-0.16986875236034393,-0.7765176892280579
1761340678595521000,3.44552099609375,0.28044387698173523,-0.3393130898475647,-0.4495922923088074
1761340678605588000,3.455587890625,0.3495102822780609,-0.5771008729934692,-0.13061031699180603
1761340678615655200,3.4656552734375,0.42479485273361206,-0.87055504322052,0.16359171271324158
1761340678625722000,3.47572216796875,0.4802069664001465,-1.1550192832946777,0.4046858251094818
1761340678635789000,3.4857890625,0.5155691504478455,-1.3593121767044067,0.5619714260101318
1761340678645856300,3.495856201171875,0.5664728283882141,-1.446252465248108,0.6241570115089417
1761340678655923200,3.505923095703125,0.6316292881965637,-1.4551410675048828,0.594231903553009
1761340678665990100,3.515990234375,0.6914904713630676,-1.3929210901260376,0.5023499727249146
1761340678676057000,3.52605712890625,0.7163536548614502,-1.2812960147857666,0.38146287202835083
1761340678686125000,3.536125,0.715989351272583,-1.1224781274795532,0.29658740758895874
1761340678696192000,3.54619189453125,0.6895352005958557,-0.8852826952934265,0.21161973476409912
1761340678706259000,3.556259033203125,0.626742959022522,-0.6073945760726929,0.08794759958982468
1761340678716326000,3.566325927734375,0.5659847259521484,-0.39595019817352295,-0.09886199980974197
1761340678726393000,3.57639306640625,0.5232545733451843,-0.12366914749145508,-0.41415947675704956
1761340678736460300,3.586460205078125,0.45211368799209595,0.2893702983856201,-0.8087170720100403
1761340678746527200,3.59652734375,0.43315038084983826,0.7248136401176453,-1.239016056060791
1761340678756594200,3.60659423828125,0.5973429679870605,1.1452254056930542,-1.6205644607543945
1761340678766661000,3.6166611328125,0.940185546875,1.6986134052276611,-1.8296133279800415
1761340678776728000,3.62672802734375,1.2834465503692627,2.1369540691375732,-1.7833713293075562
1761340678786795300,3.636795166015625,1.334666132926941,1.9683973789215088,-1.5044242143630981
1761340678796862200,3.6468623046875,1.0019590854644775,0.347639262676239,-1.4727927446365356
1761340678806929200,3.65692919921875,0.6791722178459167,-2.7519495487213135,-1.9439879655838013
1761340678816996000,3.66699609375,0.715737521648407,-5.416000843048096,-2.5592873096466064
1761340678827063000,3.67706298828125,1.101239562034607,-6.226307392120361,-2.8569931983947754
1761340678837130000,3.6871298828125,1.632728099822998,-4.662151336669922,-2.359163999557495
1761340678847197000,3.697197021484375,2.1999104022979736,-1.9906023740768433,-0.9340114593505859
1761340678857264000,3.70726416015625,2.457387924194336,-0.0727134495973587,0.8077951073646545
1761340678867331000,3.7173310546875,2.1604788303375244,0.8151002526283264,2.059284210205078
1761340678877398000,3.72739794921875,1.6463475227355957,1.079491376876831,2.6060101985931396
1761340678887465000,3.73746484375,1.0877768993377686,0.9275290966033936,2.387655019760132
1761340678897532000,3.747531982421875,-0.012463819235563278,0.045013219118118286,1.9515355825424194
1761340678907599000,3.75759912109375,-1.4975415468215942,-0.6694945096969604,1.7157806158065796
1761340678917666300,3.767666259765625,-2.646174430847168,-0.18611998856067657,1.5433752536773682
1761340678927733200,3.777733154296875,-2.923837184906006,1.0036389827728271,1.0560399293899536
1761340678937800200,3.78780029296875,-2.6735079288482666,2.1843221187591553,0.542829155921936
1761340678947867100,3.7978671875,-2.333491802215576,2.5437774658203125,0.2772957384586334
1761340678957934000,3.80793408203125,-2.2190732955932617,2.6732888221740723,0.2722102999687195
1761340678968001000,3.8180009765625,-2.1243040561676025,2.6267049312591553,0.4716552197933197
1761340678978068200,3.828068115234375,-1.900628924369812,2.309486150741577,0.8344972133636475
1761340678988135200,3.83813525390625,-1.5663915872573853,1.7133270502090454,1.2794989347457886
1761340678998202000,3.8482021484375,-1.1748497486114502,0.9772558808326721,1.70803964138031
1761340679008269000,3.85826904296875,-0.7444319725036621,0.2702566981315613,2.011451482772827
1761340679018336000,3.8683359375,-0.31166040897369385,-0.29438409209251404,2.1462948322296143
1761340679028403000,3.87840283203125,0.11142668128013611,-0.7770910859107971,2.0830891132354736
1761340679038470100,3.88847021484375,0.5175725817680359,-0.7766560912132263,1.7577770948410034
1761340679048537000,3.898537109375,0.8663095235824585,-0.4988836348056793,1.1537734270095825
1761340679058604000,3.90860400390625,1.1127007007598877,-0.1690668910741806,0.43552350997924805
1761340679068671000,3.9186708984375,1.204218864440918,0.01722043752670288,-0.2546860873699188
1761340679078738200,3.92873828125,1.1661251783370972,0.09225193411111832,-0.7985862493515015
1761340679088805000,3.93880517578125,1.0373528003692627,0.08547418564558029,-1.1349387168884277
1761340679098872000,3.9488720703125,0.8657541871070862,0.011360934935510159,-1.3024147748947144
1761340679108939300,3.958939208984375,0.7088676691055298,-0.0032883156090974808,-1.3490594625473022
1761340679119006200,3.969006103515625,0.5871086120605469,-0.00568259134888649,-1.2954707145690918
1761340679129073200,3.9790732421875,0.5295273661613464,-0.04725826531648636,-1.1483584642410278
1761340679139140000,3.98914013671875,0.5172076225280762,-0.10416708886623383,-0.953576385974884
1761340679149206300,3.999206298828125,0.520054042339325,-0.1572159230709076,-0.7557187080383301
1761340679159273200,4.009273193359375,0.5447431802749634,-0.20140406489372253,-0.5974689722061157
1761340679169340200,4.019340087890625,0.6070875525474548,-0.23030629754066467,-0.469719260931015
1761340679179407000,4.029406982421875,0.6950066685676575,-0.2687261998653412,-0.35323143005371094
1761340679189474000,4.03947412109375,0.7874444127082825,-0.3207460045814514,-0.2439853549003601
1761340679199541000,4.049541015625,0.8695515990257263,-0.3964429497718811,-0.12732157111167908
1761340679209608200,4.059608154296875,0.9279853105545044,-0.4873310327529907,-0.006119246128946543
1761340679219675100,4.069675048828125,0.9449512958526611,-0.5613531470298767,0.09929528832435608
1761340679229742000,4.0797421875,0.9184666872024536,-0.5940924286842346,0.16636647284030914
1761340679239809000,4.08980908203125,0.8533086180686951,-0.4832300841808319,0.1725085824728012
1761340679249876000,4.0998759765625,0.7349846363067627,-0.26710283756256104,0.13546667993068695
1761340679259943000,4.10994287109375,0.5199209451675415,-0.012232229113578796,0.0860365480184555
1761340679270010000,4.120010009765625,0.2688067555427551,0.22931194305419922,0.01855337619781494
1761340679280077000,4.1300771484375,0.05255226045846939,0.5311194062232971,-0.07456212490797043
1761340679290144300,4.140144287109375,-0.09631098806858063,0.9141866564750671,-0.1599276065826416
1761340679300212200,4.150212158203125,-0.15647920966148376,1.4809391498565674,-0.24222099781036377
1761340679310279200,4.160279052734375,-0.08102786540985107,2.1318023204803467,-0.2772149443626404
1761340679320345000,4.170344970703125,0.08111513406038284,2.6117103099823,-0.3650597929954529
1761340679330413000,4.1804130859375,0.19501960277557373,2.748420476913452,-0.6560460925102234
1761340679340480000,4.19047998046875,0.29401254653930664,1.867879033088684,-1.2903430461883545
1761340679350547200,4.200547119140625,0.5383616089820862,-0.7156567573547363,-2.3570234775543213
1761340679360614100,4.2106142578125,1.0806937217712402,-3.8637218475341797,-3.398641347885132
1761340679370681000,4.22068115234375,1.781187891960144,-5.278079986572266,-3.4554460048675537
1761340679380748000,4.230748046875,2.0752382278442383,-4.339882850646973,-1.9927340745925903
1761340679390815000,4.24081494140625,2.1003406047821045,-2.4530880451202393,0.8833709955215454
1761340679400882000,4.2508818359375,2.044133424758911,-0.8942080140113831,3.6638236045837402
1761340679410948900,4.260948974609375,1.6613165140151978,-0.044902510941028595,4.872560024261475
1761340679421016300,4.271016357421875,0.9648059010505676,0.3316972255706787,4.717506408691406
1761340679431083300,4.281083251953125,0.25642284750938416,0.44472736120224,3.742368698120117
1761340679441150200,4.291150146484375,-0.2965139150619507,0.3945842981338501,2.510557174682617
1761340679451217200,4.301217041015625,-0.7658641338348389,0.33161839842796326,1.5563461780548096
1761340679461284000,4.3112841796875,-1.1150174140930176,0.27570417523384094,1.0903818607330322
1761340679471351000,4.32135107421875,-1.2718960046768188,0.15074758231639862,1.0099372863769531
1761340679481418200,4.331418212890625,-1.2377045154571533,-0.18569019436836243,1.201631784439087
1761340679491485200,4.341485107421875,-1.144179105758667,-0.6463959813117981,1.5539666414260864
1761340679501552000,4.35155224609375,-1.1368818283081055,-1.0281566381454468,1.8832319974899292
1761340679511619000,4.361619140625,-1.2258085012435913,-1.098527193069458,2.039630889892578
1761340679521686000,4.37168603515625,-1.3819323778152466,-0.8425987958908081,1.9294523000717163
1761340679531753000,4.3817529296875,-1.4816656112670898,-0.3506985306739807,1.5953994989395142
1761340679541820200,4.391820068359375,-1.4738705158233643,0.24890533089637756,1.0894818305969238
1761340679551887000,4.40188720703125,-1.3098728656768799,0.8659676909446716,0.47436830401420593
1761340679561954000,4.4119541015625,-1.0468838214874268,1.2953227758407593,-0.07060802727937698
1761340679572022300,4.422022216796875,-0.7403907775878906,1.368045687675476,-0.458159476518631
1761340679582089200,4.432089111328125,-0.4511798024177551,1.225619912147522,-0.7012115716934204
1761340679592156200,4.44215625,-0.21656489372253418,1.0150247812271118,-0.8284320831298828
1761340679602223000,4.45222314453125,-0.09004237502813339,0.7636069655418396,-0.9018727540969849
1761340679612289800,4.462289794921875,-0.0515194833278656,0.5073472261428833,-0.9518805146217346
1761340679622357000,4.47235693359375,-0.052088089287281036,0.25679564476013184,-0.9914710521697998
1761340679632424000,4.482423828125,-0.06210263818502426,0.0585898719727993,-1.051892638206482
1761340679642491000,4.492490966796875,-0.06078488379716873,-0.0004988173022866249,-1.163608193397522
1761340679652558000,4.50255810546875,-0.05363163352012634,0.058239325881004333,-1.2708566188812256
1761340679662625000,4.512625,-0.04380505904555321,0.18200606107711792,-1.3604423999786377
1761340679672692000,4.52269189453125,-0.058421023190021515,0.317237913608551,-1.4124864339828491
1761340679682759200,4.53275927734375,-0.11195709556341171,0.4109250605106354,-1.4180940389633179
1761340679692826000,4.542826171875,-0.1799183040857315,0.41237011551856995,-1.3686628341674805
1761340679702893000,4.55289306640625,-0.23437480628490448,0.3244905173778534,-1.2606031894683838
1761340679712960000,4.5629599609375,-0.2571914494037628,0.1631181389093399,-1.0993287563323975
1761340679723027000,4.57302685546875,-0.25432610511779785,-0.03218069672584534,-0.9092174768447876
1761340679733094000,4.583093994140625,-0.21200956404209137,-0.2295781821012497,-0.7158048748970032
1761340679743161000,4.5931611328125,-0.14665532112121582,-0.3035818338394165,-0.5697062611579895
1761340679753228000,4.60322802734375,-0.059188853949308395,-0.262226402759552,-0.48646679520606995
1761340679763295000,4.613294921875,0.04594910144805908,-0.1705624759197235,-0.44348230957984924
1761340679773362000,4.62336181640625,0.1436234563589096,-0.06637988984584808,-0.39668789505958557
1761340679783428900,4.633428955078125,0.2166699320077896,-0.006126681808382273,-0.31961506605148315
1761340679793495800,4.643495849609375,0.23259377479553223,0.009957212954759598,-0.21843862533569336
1761340679803562800,4.653562744140625,0.20638886094093323,-0.028170760720968246,-0.10142619162797928
1761340679813630000,4.6636298828125,0.1590503603219986,-0.09515246003866196,0.013562445528805256
1761340679823697200,4.673697265625,0.09268932044506073,-0.16237017512321472,0.10349193215370178
1761340679833764000,4.68376416015625,0.015939945355057716,-0.18227410316467285,0.12414874136447906
1761340679843832000,4.69383203125,-0.03089899569749832,-0.04144718125462532,0.012523612938821316
1761340679853898000,4.70389794921875,-0.06882986426353455,0.3212926685810089,-0.24750344455242157
1761340679863966000,4.713966064453125,-0.15226668119430542,0.9656357765197754,-0.6367679238319397
1761340679874033000,4.724032958984375,-0.32609865069389343,1.9376075267791748,-1.1595711708068848
1761340679884099800,4.734099853515625,-0.544264018535614,2.924258232116699,-1.7551603317260742
1761340679894167000,4.7441669921875,-0.806384265422821,3.337897539138794,-2.362884283065796
1761340679904234000,4.75423388671875,-1.0623048543930054,2.836514472961426,-2.9604246616363525
1761340679914301000,4.764301025390625,-1.1762622594833374,0.947782576084137,-3.6244356632232666
1761340679924368000,4.774367919921875,-0.8907371759414673,-1.8562501668930054,-4.216629505157471
1761340679934434800,4.784434814453125,0.16289588809013367,-3.6369094848632812,-4.1633219718933105
1761340679944501800,4.794501708984375,1.084257960319519,-3.430663585662842,-3.1840274333953857
1761340679954569000,4.80456884765625,1.5663354396820068,-2.534822463989258,-1.3336821794509888
1761340679964636200,4.81463623046875,2.128368854522705,-1.5896906852722168,1.1389226913452148
1761340679974703000,4.824703125,2.332822322845459,-0.9939553737640381,2.997532844543457
1761340679984770000,4.83477001953125,2.135749578475952,-0.6545813679695129,3.583618640899658
1761340679994837000,4.8448369140625,1.8592411279678345,-0.3058302700519562,3.3401260375976562
1761340680004904000,4.854904052734375,1.4780783653259277,0.07775693386793137,2.86622953414917
1761340680014971100,4.86497119140625,0.8641512989997864,0.3854353725910187,2.4717137813568115
1761340680025038000,4.8750380859375,0.05397137999534607,0.47787413001060486,2.242727518081665
1761340680035105000,4.88510498046875,-0.8154798746109009,0.3535361886024475,2.1930301189422607
1761340680045172000,4.895171875,-1.5073416233062744,0.052422717213630676,2.2263433933258057
1761340680055239000,4.905239013671875,-1.9468227624893188,-0.3049367368221283,2.208500385284424
1761340680065305900,4.915305908203125,-2.2022972106933594,-0.5708562135696411,2.020382881164551
1761340680075373000,4.925373046875,-2.343109607696533,-0.7407869696617126,1.754724144935608
1761340680085440000,4.93543994140625,-2.298506259918213,-0.7030858993530273,1.3922226428985596
1761340680095507000,4.9455068359375,-2.0643153190612793,-0.34919974207878113,0.9839497208595276
1761340680105574000,4.955573974609375,-1.6015942096710205,0.1665572226047516,0.6156685948371887
1761340680115640800,4.965640869140625,-1.0113192796707153,0.6479813456535339,0.3623582720756531
1761340680125707800,4.975707763671875,-0.47752511501312256,0.7632509469985962,0.30737996101379395
1761340680135775000,4.98577490234375,0.014596419408917427,0.5663429498672485,0.37432438135147095
1761340680145842200,4.99584228515625,0.3805645704269409,0.2680829167366028,0.5038266181945801
1761340680155909000,5.0059091796875,0.59611976146698,-0.06991749256849289,0.5979853868484497
1761340680165976000,5.01597607421875,0.6822819113731384,-0.46290966868400574,0.6012523174285889
1761340680176043000,5.02604296875,0.6921369433403015,-0.8318477869033813,0.48352891206741333
1761340680186110000,5.03610986328125,0.677182137966156,-1.0193982124328613,0.24219068884849548
1761340680196177000,5.046177001953125,0.667775571346283,-0.9835212230682373,-0.07746400684118271
1761340680206244000,5.056244140625,0.6471633315086365,-0.8168831467628479,-0.40038052201271057
1761340680216311000,5.06631103515625,0.6242332458496094,-0.5742252469062805,-0.6600868701934814
1761340680226378000,5.0763779296875,0.5976546406745911,-0.29284167289733887,-0.8479384779930115
1761340680236445000,5.08644482421875,0.5569325089454651,-0.042642489075660706,-0.941520094871521
1761340680246511900,5.096511962890625,0.5098384022712708,0.1320667713880539,-0.911994457244873
1761340680256578800,5.106578857421875,0.4626240134239197,0.247963547706604,-0.7824380993843079
1761340680266646000,5.11664599609375,0.3846977651119232,0.27525362372398376,-0.6026104092597961
1761340680276713000,5.126712890625,0.293783038854599,0.24758124351501465,-0.43002980947494507
1761340680286780000,5.13677978515625,0.23297518491744995,0.21419143676757812,-0.27035024762153625
1761340680296846800,5.146846923828125,0.20590122044086456,0.15946373343467712,-0.1272175908088684
1761340680306914000,5.1569140625,0.1868240237236023,0.08670862019062042,-0.007682887837290764
1761340680316981000,5.16698095703125,0.18694493174552917,-0.006193887442350388,0.0980328917503357
1761340680327048000,5.1770478515625,0.2190670222043991,-0.09479514509439468,0.20494511723518372
1761340680337115100,5.187115234375,0.24920682609081268,-0.15616236627101898,0.31587111949920654
1761340680347182000,5.19718212890625,0.2604964077472687,-0.13341890275478363,0.40113136172294617
1761340680357249000,5.2072490234375,0.24820192158222198,-0.010610159486532211,0.44916361570358276
1761340680367316000,5.21731591796875,0.19514869153499603,0.17206677794456482,0.5074704885482788
1761340680377383000,5.2273828125,0.0953075960278511,0.3059159219264984,0.6141535043716431
1761340680387449900,5.237449951171875,-0.025756921619176865,0.3468491733074188,0.7323050498962402
1761340680397517000,5.24751708984375,-0.11227263510227203,0.3620438277721405,0.795981764793396
1761340680407584000,5.257583984375,-0.16956326365470886,0.3983796238899231,0.7613059878349304
1761340680417651000,5.26765087890625,-0.25874292850494385,0.5070661306381226,0.5758852958679199
1761340680427718000,5.2777177734375,-0.44824695587158203,0.7999605536460876,0.24333468079566956
1761340680437784800,5.287784912109375,-0.6945387721061707,1.2432844638824463,-0.28632330894470215
1761340680447851800,5.297851806640625,-0.8395949602127075,1.8540112972259521,-0.944318950176239
1761340680457919000,5.3079189453125,-0.7066501975059509,2.5356202125549316,-1.5675047636032104
1761340680467986000,5.31798583984375,-0.3331485986709595,2.7250256538391113,-2.01956844329834
1761340680478053000,5.32805322265625,-0.05072729289531708,1.4776628017425537,-2.4618985652923584
1761340680488120000,5.3381201171875,-0.1400795727968216,-1.2111090421676636,-3.221452474594116
1761340680498187000,5.34818701171875,-0.2521411180496216,-4.034944534301758,-4.275534152984619
1761340680508254000,5.35825390625,0.014508005231618881,-5.3685736656188965,-5.090365886688232
1761340680518321200,5.368321044921875,0.3816623091697693,-4.930131435394287,-4.751111030578613
1761340680528388000,5.37838818359375,0.5942071676254272,-4.199629783630371,-3.201300859451294
1761340680538455000,5.388455078125,0.6431936025619507,-3.2930057048797607,-1.4861044883728027
1761340680548522000,5.39852197265625,0.6344159841537476,-1.9975807666778564,-0.16810831427574158
1761340680558589000,5.4085888671875,0.651343047618866,-0.7687715291976929,0.7307578325271606
1761340680568656000,5.41865576171875,0.6004291772842407,-0.08282029628753662,1.33296537399292
1761340680578723000,5.42872314453125,0.33999869227409363,-0.038015272468328476,1.7329753637313843
1761340680588790000,5.4387900390625,-0.17757856845855713,-0.27954161167144775,1.935151219367981
1761340680598857000,5.44885693359375,-0.867591381072998,-0.48330938816070557,1.9606605768203735
1761340680608924000,5.458923828125,-1.5066639184951782,-0.5429688692092896,1.837725043296814
1761340680618991600,5.46899169921875,-1.934200644493103,-0.4625435471534729,1.6119272708892822
1761340680629058800,5.479058837890625,-2.155017852783203,-0.1638139933347702,1.3148372173309326
1761340680639125800,5.489125732421875,-2.34497332572937,0.12255465239286423,0.9272503852844238
1761340680649192700,5.499192626953125,-2.4542689323425293,0.38711807131767273,0.4954421818256378
1761340680659260000,5.509260009765625,-2.3842384815216064,0.6900864839553833,0.08639556914567947
1761340680669326800,5.519326904296875,-2.174797534942627,0.9409391283988953,-0.19544902443885803
1761340680679393800,5.529393798828125,-1.8873683214187622,1.060631513595581,-0.30959051847457886
1761340680689460700,5.539460693359375,-1.5577239990234375,1.0389739274978638,-0.2666769325733185
1761340680699527700,5.549527587890625,-1.2272800207138062,0.8857932090759277,-0.11441440880298615
1761340680709594600,5.5595947265625,-0.9391676783561707,0.6316158771514893,0.0687357559800148
1761340680719661800,5.569661865234375,-0.703120768070221,0.38316187262535095,0.2182123214006424
1761340680729728800,5.579728759765625,-0.5081784129142761,0.2009688913822174,0.29387813806533813
1761340680739795700,5.589795654296875,-0.31888091564178467,0.08379939198493958,0.2764837145805359
1761340680749862700,5.599862548828125,-0.1544332355260849,0.014150180853903294,0.1683456003665924
1761340680759929600,5.6099296875,-0.009154610335826874,-0.014235122129321098,-0.00509862694889307
1761340680769996500,5.61999658203125,0.13458719849586487,-0.007168368902057409,-0.21133725345134735
1761340680780063700,5.630063720703125,0.26671966910362244,-0.02758842334151268,-0.4690031409263611
1761340680790130700,5.640130615234375,0.36454227566719055,-0.021660814061760902,-0.7240331172943115
1761340680800198000,5.650197998046875,0.4403981566429138,0.056133054196834564,-0.9261156320571899
1761340680810264800,5.660264892578125,0.5004675388336182,0.1824740171432495,-1.0653572082519531
1761340680820331800,5.670331787109375,0.5297361612319946,0.3379099369049072,-1.1452491283416748
1761340680830398700,5.680398681640625,0.5585850477218628,0.4624801278114319,-1.1590702533721924
1761340680840465700,5.690465576171875,0.6067302227020264,0.5152051448822021,-1.096637487411499
1761340680850532900,5.700532958984375,0.6856390833854675,0.531558096408844,-0.9685308933258057
1761340680860599800,5.710599853515625,0.7809035181999207,0.5051373839378357,-0.7625740170478821
1761340680870666800,5.720666748046875,0.8398905396461487,0.4441514015197754,-0.49996402859687805
1761340680880733700,5.730733642578125,0.8508931398391724,0.35153597593307495,-0.18498371541500092
1761340680890800600,5.740800537109375,0.8289017081260681,0.2559410035610199,0.1478976011276245
1761340680900867600,5.75086767578125,0.7865715622901917,0.17505308985710144,0.45652440190315247
1761340680910934800,5.760934814453125,0.7434585690498352,0.09230969101190567,0.6950138211250305
1761340680921001700,5.771001708984375,0.7237338423728943,0.026308301836252213,0.8613636493682861
1761340680931068700,5.781068603515625,0.7273545265197754,-0.021364709362387657,0.9542253017425537
1761340680941135600,5.791135498046875,0.7451143264770508,-0.04804052785038948,0.9981650710105896
1761340680951202600,5.80120263671875,0.7664855122566223,-0.07211051136255264,0.9949448704719543
1761340680961269500,5.81126953125,0.7904800176620483,-0.014261860400438309,0.9198415875434875
1761340680971337700,5.821337646484375,0.7699664235115051,0.18104086816310883,0.7393425703048706
1761340680981404000,5.83140380859375,0.6997199654579163,0.5432656407356262,0.44681859016418457
1761340680991470800,5.841470947265625,0.6595435738563538,1.0560489892959595,0.1550096720457077
1761340681001537800,5.851537841796875,0.6640832424163818,1.6433519124984741,-0.0784829631447792
1761340681011605800,5.861605712890625,0.5928732752799988,2.166240692138672,-0.15615572035312653
1761340681021672700,5.871672607421875,0.34566614031791687,1.759271264076233,-0.1467912495136261
1761340681031739600,5.88173974609375,-0.06743782758712769,-0.19499069452285767,-0.3053596317768097
1761340681041806600,5.891806640625,-0.1476394534111023,-3.0902843475341797,-0.7983530759811401
1761340681051873800,5.901873779296875,0.3898983597755432,-4.608235836029053,-1.1911338567733765
1761340681061940700,5.911940673828125,1.030090570449829,-3.894470453262329,-0.8601402044296265
1761340681072007700,5.922007568359375,1.2619494199752808,-2.3822572231292725,0.3221890926361084
1761340681082074600,5.93207470703125,1.2668002843856812,-0.788580596446991,1.842724323272705
1761340681092141600,5.9421416015625,0.9910855293273926,0.5141247510910034,3.00109601020813
1761340681102208500,5.95220849609375,0.5486018657684326,1.320779800415039,3.4328787326812744
1761340681112275700,5.962275634765625,0.24892228841781616,1.7077395915985107,3.323871612548828
1761340681122343000,5.972343017578125,0.19914355874061584,1.8372483253479004,3.0130274295806885
1761340681132409900,5.982409912109375,0.2260679304599762,1.855592131614685,2.7421021461486816
1761340681142476800,5.992476806640625,0.07329702377319336,1.626060962677002,2.53114652633667
1761340681152543700,6.002543701171875,-0.2747558653354645,1.189708948135376,2.3162951469421387
1761340681162610700,6.012610595703125,-0.6891594529151917,0.7375982999801636,2.0708088874816895
1761340681172677600,6.022677734375,-1.015844702720642,0.41105949878692627,1.748144268989563
1761340681182744800,6.032744873046875,-1.2024461030960083,0.3160719871520996,1.3050062656402588
1761340681192811800,6.042811767578125,-1.3554980754852295,0.4967285394668579,0.7861091494560242
1761340681202878700,6.052878662109375,-1.475632667541504,0.8081908226013184,0.2664084732532501
1761340681212945700,6.062945556640625,-1.5371778011322021,1.133588433265686,-0.1932666301727295
1761340681223012600,6.0730126953125,-1.4935107231140137,1.350143551826477,-0.5215483903884888
1761340681233079600,6.08307958984375,-1.3197880983352661,1.3835384845733643,-0.6943231225013733
1761340681243146800,6.093146728515625,-1.0494717359542847,1.2158892154693604,-0.6955772042274475
1761340681253213700,6.103213623046875,-0.7330299615859985,0.8367499113082886,-0.5349407196044922
1761340681263280600,6.11328076171875,-0.4082907438278198,0.38173744082450867,-0.2499992400407791
1761340681273347600,6.12334765625,-0.14465688169002533,-0.0568009689450264,0.07053277641534805
1761340681283414800,6.133414794921875,0.04259369894862175,-0.42027559876441956,0.3521615266799927
1761340681293481700,6.143481689453125,0.17864015698432922,-0.6789717078208923,0.5556588768959045
1761340681303549000,6.153548828125,0.2769789695739746,-0.853847861289978,0.6231183409690857
1761340681313616000,6.163615966796875,0.32662999629974365,-0.8926966190338135,0.5651841759681702
1761340681323682800,6.173682861328125,0.30510979890823364,-0.8629006147384644,0.39850762486457825
1761340681333749800,6.183749755859375,0.2199518382549286,-0.7744285464286804,0.16016924381256104
1761340681343816700,6.193816650390625,0.09165593236684799,-0.6417826414108276,-0.11695796996355057
1761340681353883600,6.203883544921875,-0.05381779000163078,-0.4642787277698517,-0.38821375370025635
1761340681363950800,6.213950927734375,-0.18416966497898102,-0.25395238399505615,-0.6194919943809509
1761340681374017800,6.224017822265625,-0.2743379473686218,-0.0843958854675293,-0.7952509522438049
1761340681384084700,6.234084716796875,-0.3116152584552765,0.02299368754029274,-0.8864583373069763
1761340681394151700,6.244151611328125,-0.3023432493209839,0.0443631187081337,-0.9045342206954956
1761340681404218600,6.254218505859375,-0.22317786514759064,-0.014123624190688133,-0.851533055305481
1761340681414285600,6.26428564453125,-0.06572455167770386,-0.16113513708114624,-0.7246140837669373
1761340681424352800,6.274352783203125,0.14038147032260895,-0.34149879217147827,-0.5363661646842957
1761340681434419700,6.284419677734375,0.3644813597202301,-0.5281447172164917,-0.29749614000320435
1761340681444486700,6.294486572265625,0.5369024276733398,-0.7109984159469604,-0.06250360608100891
1761340681454553900,6.304553955078125,0.6290835738182068,-0.8440657258033752,0.12643040716648102
1761340681464620800,6.314620849609375,0.653718888759613,-0.8189665079116821,0.2722232937812805
1761340681474687700,6.324687744140625,0.6042633652687073,-0.6720993518829346,0.3942265212535858
1761340681484754700,6.334754638671875,0.46741020679473877,-0.5363141298294067,0.48027220368385315
1761340681494822000,6.34482177734375,0.2792854905128479,-0.4094804525375366,0.5049759149551392
1761340681504888800,6.354888916015625,0.10100975632667542,-0.215321347117424,0.43713265657424927
1761340681514955800,6.364955810546875,-0.05044763907790184,0.07926452159881592,0.2404935508966446
1761340681525022700,6.375022705078125,-0.1841052919626236,0.4449695348739624,-0.08145785331726074
1761340681535089700,6.385089599609375,-0.30184558033943176,0.8657511472702026,-0.43494096398353577
1761340681545156600,6.395156494140625,-0.36813777685165405,1.5778486728668213,-0.7799447178840637
1761340681555223800,6.405223876953125,-0.3102208971977234,2.215932846069336,-1.0034831762313843
1761340681565290800,6.415290771484375,-0.12797598540782928,2.740717649459839,-1.0340609550476074
1761340681575357700,6.425357666015625,0.08719614148139954,2.4831366539001465,-1.029496669769287
1761340681585424600,6.435424560546875,0.20098982751369476,1.069243311882019,-1.2818257808685303
1761340681595491600,6.44549169921875,0.33797767758369446,-1.8938767910003662,-2.2344114780426025
1761340681605558500,6.45555859375,0.9706659317016602,-4.266483306884766,-3.258114814758301
1761340681615625500,6.46562548828125,1.96368408203125,-4.616028308868408,-3.3725364208221436
1761340681625692400,6.4756923828125,2.654618978500366,-3.1075527667999268,-2.1747710704803467
1761340681635759400,6.48575927734375,2.8911800384521484,-1.1979997158050537,-0.10232634842395782
1761340681645826300,6.495826416015625,2.8887979984283447,0.13263292610645294,1.9179513454437256
1761340681655893200,6.505893310546875,2.749608039855957,0.8296008706092834,2.9402241706848145
1761340681665960200,6.515960205078125,2.422809362411499,1.1788948774337769,2.9365789890289307
1761340681676027400,6.52602734375,1.993188738822937,1.321084976196289,2.3480336666107178
1761340681686094300,6.53609423828125,1.5393245220184326,1.344640851020813,1.5932649374008179
1761340681696161300,6.546161376953125,0.9927706122398376,1.3231500387191772,0.9571155309677124
1761340681706228200,6.556228271484375,0.3609577417373657,1.23956298828125,0.5333794355392456
1761340681716295200,6.566295166015625,-0.2713793218135834,1.094582200050354,0.301327109336853
1761340681726362400,6.5763623046875,-0.8515127301216125,0.9209781289100647,0.23257388174533844
1761340681736429600,6.5864296875,-1.3311434984207153,0.7067595720291138,0.2752191126346588
1761340681746496500,6.59649658203125,-1.6896049976348877,0.5270553231239319,0.36181527376174927
1761340681756563500,6.6065634765625,-1.941387414932251,0.50613933801651,0.40095338225364685
1761340681766630400,6.61663037109375,-2.06416916847229,0.6018868684768677,0.3672396242618561
1761340681776697300,6.626697265625,-2.02994704246521,0.730694055557251,0.327430784702301
1761340681786764300,6.636764404296875,-1.8334320783615112,0.8876128196716309,0.30350252985954285
1761340681796831500,6.64683154296875,-1.5409343242645264,1.0151963233947754,0.2812657654285431
1761340681806898400,6.6568984375,-1.2039717435836792,1.053401231765747,0.27131807804107666
1761340681816965400,6.66696533203125,-0.8681213855743408,0.9299781322479248,0.29876965284347534
1761340681827032300,6.6770322265625,-0.5664854049682617,0.6518192291259766,0.3404068350791931
1761340681837099300,6.687099365234375,-0.30889463424682617,0.3361283838748932,0.3593812882900238
1761340681847166200,6.697166259765625,-0.14858432114124298,0.015399379655718803,0.3412214517593384
1761340681857233400,6.7072333984375,-0.08290403336286545,-0.26989179849624634,0.2623612880706787
1761340681867300400,6.71730029296875,-0.09001413732767105,-0.4905323088169098,0.09391342848539352
1761340681877367300,6.7273671875,-0.16152380406856537,-0.5735869407653809,-0.14803828299045563
1761340681887434200,6.737434326171875,-0.27964457869529724,-0.5201607346534729,-0.4286251962184906
1761340681897501400,6.74750146484375,-0.4197782278060913,-0.37901175022125244,-0.7206588983535767
1761340681907568400,6.757568359375,-0.5485391020774841,-0.18455570936203003,-1.034904956817627
1761340681917635300,6.76763525390625,-0.6477537751197815,0.01404320728033781,-1.3244643211364746
1761340681927702500,6.77770263671875,-0.6877664923667908,0.1606459617614746,-1.5549424886703491
1761340681937769500,6.78776953125,-0.6835582256317139,0.2789832055568695,-1.7127931118011475
1761340681947836400,6.79783642578125,-0.6359515190124512,0.39658841490745544,-1.7846834659576416
1761340681957903400,6.8079033203125,-0.539415180683136,0.44024255871772766,-1.7575757503509521
1761340681967970300,6.81797021484375,-0.41002392768859863,0.3517656922340393,-1.6215591430664062
1761340681978037200,6.828037353515625,-0.2521964907646179,0.14904280006885529,-1.4017218351364136
1761340681988104400,6.8381044921875,-0.09390111267566681,-0.12568703293800354,-1.1280041933059692
1761340681998171400,6.84817138671875,0.05079023540019989,-0.44838210940361023,-0.8234481811523438
1761340682008238300,6.85823828125,0.18396799266338348,-0.7679470181465149,-0.5190422534942627
1761340682018305300,6.86830517578125,0.29659342765808105,-1.0008981227874756,-0.24046792089939117
1761340682028372200,6.878372314453125,0.3651525378227234,-1.055282473564148,-0.023192066699266434
1761340682038439200,6.888439208984375,0.37933921813964844,-0.9574034810066223,0.13317608833312988
1761340682048506400,6.89850634765625,0.344441682100296,-0.7430270314216614,0.24038749933242798
1761340682058573300,6.9085732421875,0.2937908470630646,-0.5176687836647034,0.32354557514190674
1761340682068640300,6.91864013671875,0.2187882512807846,-0.32539603114128113,0.38333991169929504
1761340682078707500,6.92870751953125,0.09252840280532837,-0.11195572465658188,0.4416959285736084
1761340682088774400,6.9387744140625,-0.052690040320158005,0.22023366391658783,0.5164532661437988
1761340682098841300,6.94884130859375,-0.15209385752677917,0.6212229132652283,0.44721078872680664
1761340682108908300,6.958908203125,-0.23496556282043457,1.191502571105957,0.1948786824941635
1761340682118975500,6.9689755859375,-0.2864319384098053,1.8982324600219727,-0.27050065994262695
1761340682129042400,6.97904248046875,-0.24862784147262573,2.589359998703003,-0.8845718502998352
1761340682139109400,6.989109375,-0.1443641036748886,2.424189805984497,-1.7431609630584717
1761340682149176300,6.99917626953125,-0.22611461579799652,0.3512623906135559,-2.988863468170166
1761340682159243300,7.0092431640625,-0.3242338299751282,-2.972426414489746,-4.319118022918701
1761340682169310200,7.019310302734375,0.0635884702205658,-4.642586708068848,-4.585954666137695
1761340682179377400,7.02937744140625,0.6372408270835876,-3.250316619873047,-3.0428848266601562
1761340682189444400,7.0394443359375,0.9981857538223267,-1.0323971509933472,-0.37324821949005127
1761340682199511300,7.04951123046875,1.530653715133667,0.8230636715888977,2.304936408996582
1761340682209578200,7.059578125,1.8849250078201294,1.8013262748718262,3.8384437561035156
1761340682219645200,7.069645263671875,1.800592303276062,2.146611213684082,4.033688068389893
1761340682229712100,7.079712158203125,1.4537185430526733,1.84516179561615,3.4940872192382812
1761340682239779300,7.089779296875,1.0759062767028809,1.1885504722595215,2.8378186225891113
1761340682249846500,7.099846435546875,0.6512766480445862,0.45442160964012146,2.314784526824951
1761340682259913500,7.10991357421875,0.1616401970386505,-0.1133032739162445,1.9061030149459839
1761340682269980400,7.11998046875,-0.25368109345436096,-0.3773852288722992,1.5323840379714966
1761340682280047400,7.13004736328125,-0.49874916672706604,-0.455709308385849,1.2232029438018799
1761340682290114300,7.1401142578125,-0.6867846250534058,-0.41025716066360474,0.9657764434814453
1761340682300181500,7.150181396484375,-0.931611180305481,-0.12475556135177612,0.7082928419113159
1761340682310248400,7.16024853515625,-1.2551056146621704,0.3663228154182434,0.4795917570590973
1761340682320315400,7.1703154296875,-1.5582859516143799,0.8234149217605591,0.37315964698791504
1761340682330382300,7.18038232421875,-1.69754958152771,1.0673927068710327,0.4490240514278412
1761340682340449300,7.19044921875,-1.6605185270309448,0.9280021786689758,0.7490565776824951
1761340682350516200,7.20051611328125,-1.4612261056900024,0.3790690004825592,1.2639989852905273
1761340682360583400,7.21058349609375,-1.1869772672653198,-0.35834836959838867,1.8802502155303955
1761340682370650400,7.220650390625,-0.8425256609916687,-1.073861837387085,2.3647677898406982
1761340682380717300,7.23071728515625,-0.44540688395500183,-1.478880763053894,2.5320725440979004
1761340682390784300,7.2407841796875,-0.008852977305650711,-1.56773042678833,2.307464122772217
1761340682400851200,7.250851318359375,0.39346423745155334,-1.378115177154541,1.7835115194320679
1761340682410917400,7.26091748046875,0.697041928768158,-1.1316114664077759,1.013444423675537
1761340682420985300,7.2709853515625,0.8367109298706055,-0.8431369662284851,0.14486418664455414
1761340682431051300,7.28105126953125,0.7473429441452026,-0.5316344499588013,-0.7274728417396545
1761340682441118200,7.2911181640625,0.4751776456832886,-0.18492217361927032,-1.4916437864303589
1761340682451185400,7.301185302734375,0.1532701849937439,0.19710242748260498,-2.085217237472534
1761340682461252400,7.31125244140625,-0.12797105312347412,0.4850936830043793,-2.4954731464385986
1761340682471319600,7.321319580078125,-0.33007514476776123,0.6695926785469055,-2.7011094093322754
1761340682481386500,7.331386474609375,-0.46086591482162476,0.776486873626709,-2.7135791778564453
1761340682491453400,7.341453369140625,-0.5198836922645569,0.7793111801147461,-2.5487329959869385
1761340682501520400,7.351520263671875,-0.5402276515960693,0.7110905647277832,-2.239387035369873
1761340682511587300,7.36158740234375,-0.5237792134284973,0.5200859904289246,-1.7850520610809326
1761340682521654300,7.371654296875,-0.42895200848579407,0.27233728766441345,-1.2511543035507202
1761340682531721500,7.381721435546875,-0.2770034968852997,0.09110517799854279,-0.714921236038208
1761340682541788400,7.391788330078125,-0.12941959500312805,-0.06961517781019211,-0.2764872610569
1761340682551855400,7.40185546875,-0.04176245629787445,-0.2685772776603699,0.03142901510000229
1761340682561922300,7.41192236328125,-0.022130023688077927,-0.4601365625858307,0.22668057680130005
1761340682571989200,7.4219892578125,-0.03157465532422066,-0.5739656686782837,0.33939459919929504
1761340682582056200,7.43205615234375,-0.09185225516557693,-0.6073114275932312,0.33579039573669434
1761340682592123400,7.442123291015625,-0.2195843905210495,-0.5184584856033325,0.2148919403553009
1761340682602190300,7.4521904296875,-0.3481108844280243,-0.2462007701396942,0.01438905019313097
1761340682612257300,7.46225732421875,-0.4976564347743988,0.1804799884557724,-0.2546594738960266
1761340682622324200,7.47232421875,-0.739983856678009,0.5192582011222839,-0.5436794757843018
1761340682632391200,7.48239111328125,-1.0470540523529053,0.6909846663475037,-0.8081201910972595
1761340682642458000,7.4924580078125,-1.3667982816696167,0.837350070476532,-0.990135133266449
1761340682652525300,7.502525390625,-1.6010137796401978,1.322542667388916,-0.9492460489273071
1761340682662592300,7.51259228515625,-1.4188170433044434,2.1635940074920654,-0.48549503087997437
1761340682672659200,7.5226591796875,-0.7361003160476685,2.807753801345825,0.4933130741119385
1761340682682726100,7.53272607421875,0.11257530003786087,2.6018412113189697,1.8006588220596313
1761340682692793000,7.54279296875,0.6139183044433594,1.5327427387237549,2.896223306655884
1761340682702860000,7.552860107421875,0.37198659777641296,0.10149750858545303,3.3534865379333496
1761340682712927000,7.562927001953125,-0.44116491079330444,-1.6346760988235474,2.770643472671509
1761340682722994200,7.572994140625,-1.3387415409088135,-2.9848244190216064,1.156215786933899
1761340682733061000,7.58306103515625,-1.8985041379928589,-3.160338878631592,-0.8610666394233704
1761340682743128000,7.593128173828125,-2.083261251449585,-1.9173495769500732,-2.5153393745422363
1761340682753195000,7.603195068359375,-1.9709680080413818,-0.09558307379484177,-3.314861297607422
1761340682763262000,7.613261962890625,-1.79731023311615,1.5143189430236816,-3.2554337978363037
1761340682773329200,7.6233291015625,-1.4513099193572998,2.204738140106201,-2.5929481983184814
1761340682783396400,7.633396240234375,-0.8381015062332153,1.949242353439331,-1.5710185766220093
1761340682793463300,7.64346337890625,-0.21769893169403076,1.068315863609314,-0.4776344299316406
1761340682803530200,7.6535302734375,0.19980978965759277,-0.09059076011180878,0.5379690527915955
1761340682813597200,7.66359716796875,0.4307340681552887,-1.1727830171585083,1.3481488227844238
1761340682823664000,7.6736640625,0.5795008540153503,-1.9055366516113281,1.8651928901672363
1761340682833731000,7.68373095703125,0.6702086329460144,-2.248652696609497,2.0894200801849365
1761340682843798300,7.69379833984375,0.6867039203643799,-2.1620943546295166,2.091181755065918
1761340682853865200,7.703865234375,0.5937324166297913,-1.7669223546981812,1.8961049318313599
1761340682863932200,7.71393212890625,0.38568615913391113,-1.2141488790512085,1.5075970888137817
1761340682873999000,7.7239990234375,0.10401371121406555,-0.63938307762146,1.0383366346359253
1761340682884066000,7.734066162109375,-0.1922539919614792,-0.14076147973537445,0.5962510108947754
1761340682894133000,7.744133056640625,-0.43232062458992004,0.19341276586055756,0.25452086329460144
1761340682904200200,7.7542001953125,-0.5744518041610718,0.28153640031814575,0.06783773750066757
1761340682914267100,7.76426708984375,-0.6274758577346802,0.08213275671005249,0.0438903272151947
1761340682924334000,7.774333984375,-0.6064704060554504,-0.3746020793914795,0.1287185400724411
1761340682934401000,7.784401123046875,-0.5219078660011292,-0.9778722524642944,0.2831147611141205
1761340682944468200,7.79446826171875,-0.3768776059150696,-1.568879246711731,0.445914626121521
1761340682954535200,7.80453515625,-0.2007734328508377,-2.0228285789489746,0.5862722396850586
1761340682964602000,7.81460205078125,0.024214958772063255,-1.759376049041748,0.4998565912246704
1761340682974669300,7.82466943359375,0.12809821963310242,-1.218740701675415,0.11789749562740326
1761340682984736300,7.834736328125,0.12565739452838898,-0.935888946056366,0.12023412436246872
1761340682994803200,7.84480322265625,0.0029983159620314837,-0.39372044801712036,0.06022963672876358
1761340683004870100,7.8548701171875,-0.17548590898513794,0.053758591413497925,-0.2849803864955902
1761340683014937000,7.86493701171875,-0.3383941650390625,0.3072132170200348,-0.6591417193412781
1761340683025004000,7.875004150390625,-0.4714449942111969,0.27505919337272644,-1.121579647064209
1761340683035071200,7.8850712890625,-0.5002401471138,0.16952158510684967,-1.6245585680007935
1761340683045138200,7.89513818359375,-0.399397075176239,-0.023365914821624756,-2.0675575733184814
1761340683055205000,7.905205078125,-0.1981009989976883,-0.22500821948051453,-2.2138633728027344
1761340683065272000,7.91527197265625,0.12491074204444885,-0.12244287133216858,-1.8712667226791382
1761340683075339000,7.925339111328125,0.5559812188148499,0.047806624323129654,-1.0778965950012207
1761340683085406000,7.935406005859375,0.9524463415145874,-0.31538400053977966,-0.22265902161598206
1761340683095473200,7.94547314453125,1.2264331579208374,-0.9478362798690796,0.42216020822525024
1761340683105540000,7.9555400390625,1.3457494974136353,-1.6833115816116333,0.7744883298873901
1761340683115607000,7.96560693359375,1.2622207403182983,-2.7596168518066406,0.6901471018791199
1761340683125674200,7.97567431640625,1.0511597394943237,-3.9604833126068115,0.1384318470954895
1761340683135741200,7.9857412109375,0.8344920873641968,-4.567789077758789,-0.7110917568206787
1761340683145808100,7.99580810546875,0.715574324131012,-4.1727070808410645,-1.4958696365356445
1761340683155874300,8.005874267578125,0.6152908205986023,-2.703444719314575,-1.9542614221572876
1761340683165941200,8.015941162109375,0.4475562870502472,-0.7391883134841919,-2.012075424194336
1761340683176008200,8.02600830078125,0.22723937034606934,0.9637066721916199,-1.8111810684204102
1761340683186075100,8.0360751953125,0.04633314907550812,2.0005786418914795,-1.4528522491455078
1761340683196142000,8.04614208984375,-0.11107831448316574,2.3914787769317627,-0.9273266792297363
1761340683206209300,8.056209228515625,-0.232778400182724,2.2201695442199707,-0.32267820835113525
1761340683216276200,8.066276123046874,-0.2660418152809143,1.7158066034317017,0.21372637152671814
1761340683226343200,8.07634326171875,-0.18717613816261292,1.2312344312667847,0.5689136981964111
1761340683236410000,8.08641015625,-0.1316753327846527,0.36639732122421265,0.930345356464386
1761340683246477000,8.09647705078125,-0.016938112676143646,0.011848216876387596,1.0172475576400757
1761340683256544000,8.1065439453125,0.1462169885635376,-0.2464302033185959,0.9830299615859985
1761340683266611200,8.116611083984376,0.2626991868019104,-0.2327718883752823,0.8118978142738342
1761340683276678100,8.12667822265625,0.3588224947452545,0.03490322828292847,0.4429354965686798
1761340683286745000,8.1367451171875,0.42028704285621643,0.44087985157966614,0.03399263322353363
1761340683296812000,8.14681201171875,0.39176511764526367,0.8009506464004517,-0.28405216336250305
1761340683306879000,8.15687890625,0.3137977719306946,0.9925757646560669,-0.4298543632030487
1761340683316946000,8.16694580078125,0.2459404468536377,1.0411978960037231,-0.4012293815612793
1761340683327013400,8.177013427734375,0.21982550621032715,0.9754400253295898,-0.20255044102668762
1761340683337080300,8.187080322265626,0.26359111070632935,0.7210042476654053,0.039215583354234695
1761340683347147300,8.197147216796875,0.38369083404541016,0.28843358159065247,0.17526909708976746
1761340683357214200,8.207214111328126,0.5785894989967346,-0.28733569383621216,0.03943243622779846
1761340683367281200,8.21728125,0.8058270812034607,-0.8277223110198975,-0.38730162382125854
1761340683377348000,8.22734814453125,0.9976828098297119,-1.1516436338424683,-0.8691481351852417
1761340683387415300,8.237415283203125,1.032461404800415,-1.1121469736099243,-1.1496968269348145
1761340683397482200,8.247482177734375,0.8819738626480103,-0.8101431727409363,-1.1293712854385376
1761340683407549200,8.257549072265626,0.6057519912719727,-0.3618580400943756,-0.828693687915802
1761340683417616100,8.2676162109375,0.31370019912719727,0.10438181459903717,-0.3574891984462738
1761340683427683000,8.27768310546875,0.07011807709932327,0.42951664328575134,0.10994793474674225
1761340683437750000,8.28775,-0.10555680841207504,0.5639796853065491,0.4547109007835388
1761340683447817000,8.29781689453125,-0.20287278294563293,0.5441643595695496,0.6224565505981445
1761340683457884200,8.30788427734375,-0.20618389546871185,0.4400043785572052,0.667779803276062
1761340683467951000,8.317951171875,-0.1306535005569458,0.2677629590034485,0.6024758815765381
1761340683478018000,8.32801806640625,-0.022068165242671967,0.04501589760184288,0.41776758432388306
1761340683488084000,8.338083984375,0.0744938924908638,-0.1534402072429657,0.20344673097133636
1761340683498152200,8.348152099609376,0.15788252651691437,-0.24336421489715576,0.025766219943761826
1761340683508218000,8.358218017578125,0.18847033381462097,-0.264035701751709,-0.09860695898532867
1761340683518285000,8.36828515625,0.15877635776996613,-0.2682642638683319,-0.16409914195537567
1761340683528352300,8.378352294921875,0.13270913064479828,-0.1536257266998291,-0.18258163332939148
1761340683538419200,8.388419189453124,0.10575208067893982,0.054253432899713516,-0.14991609752178192
1761340683548486100,8.398486083984375,0.07599525153636932,0.1595311164855957,-0.10418377071619034
1761340683558553300,8.40855322265625,0.09014862030744553,0.18962882459163666,-0.07376088201999664
1761340683568620300,8.418620361328125,0.15856097638607025,0.18576830625534058,-0.07395263016223907
1761340683578687200,8.428687255859375,0.2365885078907013,0.0988478884100914,-0.06472247838973999
1761340683588754200,8.438754150390626,0.32036224007606506,-0.0020747287198901176,-0.09119562804698944
1761340683598821000,8.448821044921875,0.3996255099773407,-0.01902318000793457,-0.11900026351213455
1761340683608888000,8.45888818359375,0.4525803327560425,0.05302971228957176,-0.12905342876911163
1761340683618955300,8.468955322265625,0.4599110186100006,0.18197663128376007,-0.09612664580345154
1761340683629022500,8.4790224609375,0.39147311449050903,0.2766653299331665,-0.02536485530436039
1761340683639089400,8.48908935546875,0.2895123362541199,0.32760635018348694,0.03902839124202728
1761340683649156400,8.49915625,0.1907506138086319,0.3841812014579773,0.07987383008003235
1761340683659223300,8.509223388671876,0.12202606350183487,0.38054966926574707,0.09060078114271164
1761340683669290200,8.519290283203125,0.07439489662647247,0.2527778744697571,0.11776848137378693
1761340683679357200,8.529357177734376,0.049917325377464294,0.03886257857084274,0.17737075686454773
1761340683689424400,8.53942431640625,0.0434277318418026,-0.1501060128211975,0.24071191251277924
1761340683699491300,8.5494912109375,0.042484574019908905,-0.24250109493732452,0.27766889333724976
1761340683709558300,8.559558349609375,0.036579545587301254,-0.2709476351737976,0.2709129750728607
1761340683719625200,8.569625244140624,0.02271018549799919,-0.2642230987548828,0.2255498170852661
1761340683729692400,8.5796923828125,0.042015440762043,-0.21282964944839478,0.16078972816467285
1761340683739759400,8.58975927734375,0.09237449616193771,-0.08951865136623383,0.07975383847951889
1761340683749826300,8.599826416015626,0.12550900876522064,0.05576450750231743,-0.02115333080291748
1761340683759893500,8.6098935546875,0.1391737163066864,0.15153899788856506,-0.1316792368888855
1761340683769960400,8.61996044921875,0.14552509784698486,0.20470023155212402,-0.2144063413143158
1761340683780027400,8.63002734375,0.1346127688884735,0.21237272024154663,-0.23797550797462463
1761340683790094300,8.64009423828125,0.12260990589857101,0.21002432703971863,-0.22971118986606598
1761340683800161300,8.650161376953125,0.12602314352989197,0.19077110290527344,-0.19305767118930817
1761340683810228200,8.660228271484375,0.13027913868427277,0.16271178424358368,-0.12969015538692474
1761340683820295400,8.67029541015625,0.1342410147190094,0.12769505381584167,-0.04792596027255058
1761340683830362400,8.6803623046875,0.14652004837989807,0.06980299204587936,0.0207993071526289
1761340683840429300,8.69042919921875,0.15927693247795105,-0.004658744670450687,0.05879974365234375
1761340683850496300,8.700496337890625,0.16859905421733856,-0.0721682757139206,0.08810516446828842
1761340683860563200,8.710563232421874,0.16703402996063232,-0.09864826500415802,0.11040478199720383
1761340683870630100,8.720630126953125,0.15971806645393372,-0.0616215355694294,0.1346946656703949
1761340683880697300,8.730697265625,0.1389281004667282,-0.005662260111421347,0.15409786999225616
1761340683890764300,8.740764404296876,0.12118318676948547,0.011972659267485142,0.1469409018754959
1761340683900831500,8.75083154296875,0.10786701738834381,0.004193153232336044,0.10710994154214859
1761340683910898400,8.7608984375,0.11278107762336731,0.007713319733738899,0.03178403154015541
1761340683920965400,8.77096533203125,0.09697122126817703,0.005841520614922047,-0.05587157979607582
1761340683931032300,8.7810322265625,0.05466185137629509,-0.018750375136733055,-0.13165102899074554
1761340683941099500,8.791099609375,0.003073558211326599,-0.03575921058654785,-0.15272338688373566
1761340683951166500,8.80116650390625,-0.0405583418905735,-0.04740654677152634,-0.11664340645074844
1761340683961233400,8.8112333984375,-0.0701681450009346,-0.041196104139089584,-0.04745370149612427
1761340683971300400,8.82130029296875,-0.10409601777791977,0.0018477700650691986,0.023489180952310562
1761340683981367300,8.8313671875,-0.1284947544336319,0.05299610644578934,0.07829269766807556
1761340683991434200,8.841434326171875,-0.14459222555160522,0.10200492292642593,0.11743451654911041
1761340684001501400,8.85150146484375,-0.14275991916656494,0.11546745151281357,0.1488121896982193
1761340684011568400,8.861568359375,-0.11624548584222794,0.06089209020137787,0.15426155924797058
1761340684021635300,8.87163525390625,-0.05007971450686455,0.004633855074644089,0.11606401205062866
1761340684031702300,8.881702392578125,0.013380484655499458,-0.08679592609405518,0.04397410526871681
1761340684041769200,8.891769287109375,0.08975217491388321,-0.16684871912002563,0.18458296358585358
1761340684051836200,8.901836181640626,0.08236243575811386,-0.3256836235523224,0.1085827425122261
1761340684061903400,8.9119033203125,0.0735119879245758,-0.2111242711544037,0.0526319220662117
1761340684071970600,8.921970458984376,0.14077916741371155,-0.08682361990213394,-0.039110247045755386
1761340684082037500,8.93203759765625,0.13215607404708862,0.017079895362257957,-0.0683044046163559
