acc_time,acc_seconds_elapsed,acc_z,acc_y,acc_x,gyro_time,gyro_seconds_elapsed,gyro_z,gyro_y,gyro_x,activity,session
1761341787856001800,0.073001708984375,-0.0678489628672599,0.0017547529791481,0.0056826578794512,1761341787856001800,0.073001708984375,-0.0006897938437759,-0.0030273273587226,0.0007127081044018,Still,Still_7
1761341787866068000,0.08306787109375,-0.0706903237730264,-0.0032500878371298,0.0137531242108903,1761341787866068000,0.08306787109375,-0.0025438866578042,0.0023980643600225,-0.0021097096614539,Still,Still_7
1761341787876134000,0.0931337890625,-0.0808656808286905,0.0026939883243292,0.0069090852687135,1761341787876134000,0.0931337890625,0.0012590233236551,0.000626134686172,0.0015600440092384,Still,Still_7
1761341787886200800,0.103200927734375,-0.0738356360614299,0.0025360395499505,0.0151900799451395,1761341787886200800,0.103200927734375,0.0003716582432389,-0.0005706902593374,0.0011019795201718,Still,Still_7
1761341787896267000,0.11326708984375,-0.059320203974843,0.0007090433184988,0.0229116004081675,1761341787896267000,0.11326708984375,-0.00160649465397,0.0004114732146263,-0.0012496397830545,Still,Still_7
1761341787906333000,0.1233330078125,-0.071138652062416,-0.0025555114354006,0.0110618027676828,1761341787906333000,0.1233330078125,0.0011666547507047,0.0037779761478304,-7.14575871825e-05,Still,Still_7
1761341787916399000,0.133399169921875,-0.0663502487421035,0.0005651413357816,0.0094136382684344,1761341787916399000,0.133399169921875,-0.0001942641101777,-0.0003907773643732,-0.00011873152107,Still,Still_7
1761341787926466000,0.143466064453125,-0.0687467884898185,-0.0039735615397803,0.0085125247102463,1761341787926466000,0.143466064453125,-0.0008440753445029,-0.0026467414572834,-8.25123861432e-05,Still,Still_7
1761341787936532000,0.153531982421875,-0.0645540129750967,-0.0026125205859541,0.006834846422146,1761341787936532000,0.153531982421875,0.0015959390439093,0.0002983883023262,-0.0009541832841932,Still,Still_7
1761341787946598100,0.16359814453125,-0.0599117401272058,-0.0032036000805906,0.0087471965492237,1761341787946598100,0.16359814453125,-0.0009074322879314,0.0014810981228947,-0.00017227884382,Still,Still_7
1761341787956665000,0.1736650390625,-0.0699351214915514,0.0028212496994994,0.0145880223987624,1761341787956665000,0.1736650390625,0.0001641805283725,-0.0013346411287784,-0.0024689640849828,Still,Still_7
1761341787966731000,0.18373095703125,-0.0688911653965711,-0.0053752084986306,0.0158814140770118,1761341787966731000,0.18373095703125,0.0003551291301846,-0.000581232830882,0.0026919762603938,Still,Still_7
1761341787976797000,0.193796875,-0.0706850630760192,-0.0083082662758417,0.0157000981267774,1761341787976797000,0.193796875,0.0005177124403417,-0.0026052659377455,-0.0021534138359129,Still,Still_7
1761341787986862800,0.20386279296875,-0.0675397507876157,-0.0046623292552307,0.0111532804434187,1761341787986862800,0.20386279296875,0.0011209184303879,0.0014134440571069,0.0006636781617999,Still,Still_7
1761341787996929800,0.2139296875,-0.0747217712461948,-0.0005359517739154,0.0125588637918699,1761341787996929800,0.2139296875,-0.001348135061562,0.002199126407504,-0.0007361066527664,Still,Still_7
1761341788006996000,0.223995849609375,-0.0783119046926498,-0.0004351765468716,0.0059627580290427,1761341788006996000,0.223995849609375,0.0011256751604378,0.0017818082123994,0.0014554085209965,Still,Still_7
1761341788017062000,0.234061767578125,-0.07920680770576,0.0024337116866372,0.0114639492612099,1761341788017062000,0.234061767578125,0.0011687208898365,0.0004066796973347,-0.0002900008112192,Still,Still_7
1761341788027128000,0.244128173828125,-0.0645446606248617,-0.0009091872667893,0.0133945017652586,1761341788027128000,0.244128173828125,0.0004842882044613,-0.0019321078434586,-0.0027907090261578,Still,Still_7
1761341788037195000,0.254195068359375,-0.0679839874237775,-0.0036941783428192,0.0102201780115021,1761341788037195000,0.254195068359375,0.0001662629656493,0.000593545846641,-0.0004427949897944,Still,Still_7
1761341788047261000,0.264260986328125,-0.0621487053990364,-0.0093425960259512,0.0143710186472162,1761341788047261000,0.264260986328125,0.0002757189795374,-0.0008442951366305,-0.0004451922141015,Still,Still_7
1761341788057327000,0.2743271484375,-0.0723275695860385,-0.0012790069598704,0.0040539378661895,1761341788057327000,0.2743271484375,-0.0006432407535612,-0.0015869997441768,0.0012663635425269,Still,Still_7
1761341788067393000,0.28439306640625,-0.0726262602716684,-0.0039528475453145,0.016322499774862,1761341788067393000,0.28439306640625,0.0045906696468591,-0.0006897812709212,0.0020836875773966,Still,Still_7
1761341788077460000,0.2944599609375,-0.0615554156810045,-0.0001215988193638,0.0101182931061834,1761341788077460000,0.2944599609375,0.0015611629933118,-0.0020335344597697,0.0007928381673991,Still,Still_7
1761341788087526100,0.304526123046875,-0.0661935968756675,0.0072237407084554,0.0101562778958585,1761341788087526100,0.304526123046875,0.0017225504852831,-0.0012995675206184,0.0013142847456037,Still,Still_7
1761341788097591800,0.314591796875,-0.0748708243280649,-3.01028773188e-05,0.0075975059242919,1761341788097591800,0.314591796875,-0.00075563788414,0.002237849868834,-0.0012158076278865,Still,Still_7
1761341788107658000,0.324657958984375,-0.0667898092031478,-0.0009956234412267,0.0098888499981723,1761341788107658000,0.324657958984375,-0.0005945167504251,0.0002407459542155,0.001437499653548,Still,Still_7
1761341788117725000,0.334724853515625,-0.069779054147005,0.0016972141056321,0.0146657272774726,1761341788117725000,0.334724853515625,-0.0005811071023344,0.0018797144293785,-0.0021603615023195,Still,Still_7
1761341788127790800,0.344790771484375,-0.0642430473297834,-0.0017443411829881,0.0064448881233343,1761341788127790800,0.344790771484375,-0.0023129605688154,0.0014741150662302,0.0025044311769306,Still,Still_7
1761341788137857000,0.35485693359375,-0.067684712216258,-0.0078887074232101,0.0131666569592896,1761341788137857000,0.35485693359375,0.0003632861189544,-0.000770041719079,-0.0008579548448324,Still,Still_7
1761341788147924000,0.364924072265625,-0.0789057789325714,0.0002796023926697,0.0051153748189331,1761341788147924000,0.364924072265625,-0.0009025144390761,0.0002723196521401,-0.0016337339766323,Still,Still_7
1761341788157990000,0.374989990234375,-0.074864979109168,-0.002315820928011,0.0048742367065511,1761341788157990000,0.374989990234375,7.37537629902e-05,0.0027118334546685,0.0001103738322854,Still,Still_7
1761341788168056000,0.38505615234375,-0.0685801997512579,-0.0023426906686276,0.0067349799439776,1761341788168056000,0.38505615234375,0.0008737673051655,0.0003448156639933,0.0004810853861272,Still,Still_7
1761341788178122000,0.3951220703125,-0.0637958880841732,-0.004256269204989,0.002408253018395,1761341788178122000,0.3951220703125,-0.0022198869846761,-0.0003984225913882,0.0025216089561581,Still,Still_7
1761341788188189000,0.40518896484375,-0.0666395870774984,-0.0022536606783047,0.0084441036831121,1761341788188189000,0.40518896484375,-6.1395112425e-05,-7.2047114372e-06,0.0021913768723607,Still,Still_7
1761341788198255000,0.415255126953125,-0.0606587591022253,-0.0008769472313113,0.0121748329103458,1761341788198255000,0.415255126953125,0.0022879694588482,0.0001412332057952,0.0011268761008977,Still,Still_7
1761341788208320800,0.42532080078125,-0.0709837537616491,-0.0031301147192716,0.0127454724051523,1761341788208320800,0.42532080078125,-0.0012031686492264,-8.7265856564e-05,-0.0008119051344692,Still,Still_7
1761341788218387000,0.435386962890625,-0.0739765058368444,0.0021184351923875,0.0018540806011995,1761341788218387000,0.435386962890625,-0.0016984296962618,0.0001339633017778,0.0011903713457286,Still,Still_7
1761341788228454000,0.445453857421875,-0.0639513709068298,0.0023165333140641,0.0116858438170049,1761341788228454000,0.445453857421875,-0.0007990803569555,-0.0019318498671054,-0.0006195125170052,Still,Still_7
1761341788238519800,0.455519775390625,-0.0641027620762586,0.0028815467856824,0.0115655875713564,1761341788238519800,0.455519775390625,0.0014162734150886,-0.0018224641680717,0.0003631501458585,Still,Still_7
1761341788248586000,0.4655859375,-0.0605143821954727,-0.005970069119241,0.011258142757113,1761341788248586000,0.4655859375,0.000961139332503,-6.7213550209e-06,-0.0002344632521271,Still,Still_7
1761341788258652000,0.47565185546875,-0.0600654693841934,-0.0062629511185921,0.0136909411282977,1761341788258652000,0.47565185546875,-0.0007990705780684,-0.0015967171639204,-0.0023673367686569,Still,Still_7
1761341788268718800,0.48571875,-0.0666442632526159,-0.001222381401807,0.0097416463800938,1761341788268718800,0.48571875,0.000441962853074,-0.0019349390640854,-0.0029961094260215,Still,Still_7
1761341788278785000,0.495784912109375,-0.0721744248509407,0.0004628682713955,0.0050290710752364,1761341788278785000,0.495784912109375,-0.0012594936415553,-0.0022928472608327,-0.0004105702973902,Still,Still_7
1761341788288851000,0.505850830078125,-0.0628951398521661,-0.0009456285533495,0.0101721284855389,1761341788288851000,0.505850830078125,0.001325637102127,0.0003665853291749,-0.0010033901780843,Still,Still_7
1761341788298918000,0.51591796875,-0.0593055909276008,0.0006101860539056,0.0125683303065365,1761341788298918000,0.51591796875,-0.0001877602189779,0.00055409129709,0.0013496284373104,Still,Still_7
1761341788308984000,0.525984130859375,-0.0664876113861799,-0.0095619926639832,0.0156702007454354,1761341788308984000,0.525984130859375,0.0013275784440338,-0.0012075901031494,0.0013749287463724,Still,Still_7
1761341788319050000,0.536050048828125,-0.0688829820901155,-0.0037964879398234,0.0014161504082381,1761341788319050000,0.536050048828125,-0.0014393222518265,-0.0009436132386326,9.66945663094e-05,Still,Still_7
1761341788329116000,0.546115966796875,-0.0657417614549398,-0.0061395622009411,0.0103970826481003,1761341788329116000,0.546115966796875,0.0022414326667785,0.0005301795899868,2.61208042502e-05,Still,Still_7
1761341788339182800,0.556182861328125,-0.0672363839268684,0.002009787186142,0.0135138812280725,1761341788339182800,0.556182861328125,0.0007840460166335,-0.0003311308100819,-0.0003273072652518,Still,Still_7
1761341788349248800,0.566248779296875,-0.0687345135301351,0.0007641527729108,0.0170296022980241,1761341788349248800,0.566248779296875,1.09304673969e-05,0.0004989765584468,0.0010833693668246,Still,Still_7
1761341788359315000,0.57631494140625,-0.0720242027252912,0.0001915405167266,0.0170683451395248,1761341788359315000,0.57631494140625,-0.0001810193061828,0.0013462761417031,0.0008963225409388,Still,Still_7
1761341788369380900,0.586380859375,-0.0693336484670639,-0.0026766353307291,0.0122073789065005,1761341788369380900,0.586380859375,-0.0013576038181781,0.001329232007265,0.0032164687290787,Still,Still_7
1761341788379448000,0.596447998046875,-0.0682856007188558,-0.0062803954437375,0.009945498389122,1761341788379448000,0.596447998046875,0.0035118255764245,6.76047056913e-05,-0.0003325971774756,Still,Still_7
1761341788389514000,0.606513916015625,-0.0633493133604526,-0.0059396191820502,0.0118224164432147,1761341788389514000,0.606513916015625,0.000300585757941,0.0018521891906857,-0.0003264718689024,Still,Still_7
1761341788399580000,0.616579833984375,-0.0753185680955648,-0.0066284599627368,0.0093599946853239,1761341788399580000,0.616579833984375,0.0005853483453392,0.0012589767575263,-0.0004340852610766,Still,Still_7
1761341788409646000,0.62664599609375,-0.0720259562909603,0.0006538059999234,0.0131522448414471,1761341788409646000,0.62664599609375,-0.0002815104089677,0.0028989519923925,-0.002044232096523,Still,Still_7
1761341788419713000,0.636713134765625,-0.063643327870965,-0.0009752382403239,0.0051604058373253,1761341788419713000,0.636713134765625,0.0012080161832273,-0.0006891684606671,0.0001326752826571,Still,Still_7
1761341788429779000,0.646779052734375,-0.0594540594875812,-0.0007920819594524,0.0087474568441277,1761341788429779000,0.646779052734375,0.0014277268201112,-0.0012934394180774,0.0018522781319916,Still,Still_7
1761341788439844900,0.656844970703125,-0.0718751496434211,-0.0064118580699898,0.0025091378432931,1761341788439844900,0.656844970703125,-3.9511360228e-06,-0.0023021241649985,-0.0026128147728741,Still,Still_7
1761341788449910800,0.666910888671875,-0.0648398441791534,-0.0058721617027185,0.0039341428448446,1761341788449910800,0.666910888671875,0.0004626344889402,-0.0029111895710229,0.0003254511393606,Still,Still_7
1761341788459978000,0.67697802734375,-0.0654366410285234,-0.0035244843317195,0.0136728711820673,1761341788459978000,0.67697802734375,-0.0019746152684092,-0.0004678117111325,-3.62382270395e-05,Still,Still_7
1761341788470044000,0.6870439453125,-0.0735153180658817,0.0028267661248333,0.0125866559810936,1761341788470044000,0.6870439453125,-0.0038018096238374,0.0002531055361032,-0.0006333189085125,Still,Still_7
1761341788480109800,0.69710986328125,-0.0663327130854129,-0.0038828145164065,0.0118927097670268,1761341788480109800,0.69710986328125,-0.001559006050229,0.0002502501010894,0.0038392143324017,Still,Still_7
1761341788490176000,0.707176025390625,-0.0646948827505111,0.0004823401568457,0.0077821280764648,1761341788490176000,0.707176025390625,-0.0012708520516753,0.0019903592765331,0.0024905893951654,Still,Still_7
1761341788500243000,0.717242919921875,-0.0706815559446811,-0.0015889314255677,0.0174044771921355,1761341788500243000,0.717242919921875,-0.000484671909362,0.0002595633268356,-0.00164400273934,Still,Still_7
1761341788510308900,0.727308837890625,-0.0643950230211019,-0.0006024228725582,0.0117186044422909,1761341788510308900,0.727308837890625,-0.0011978661641478,0.0002172188833355,-0.000489788595587,Still,Still_7
1761341788520375000,0.737375,-0.0694827015489339,-0.0037461825246922,0.0119997549046529,1761341788520375000,0.737375,0.0010841586627066,0.0003277165815234,-0.0010449080727994,Still,Still_7
1761341788530441000,0.74744091796875,-0.0733721102029085,-0.0049838893597945,0.0197103475482901,1761341788530441000,0.74744091796875,-0.0008434373885393,0.0003487560898065,-0.0012057633139193,Still,Still_7
1761341788540508000,0.7575078125,-0.0708282709389925,-0.005132376186084,0.0048890963489655,1761341788540508000,0.7575078125,0.0014712396077811,0.0008543776348233,0.0014215013943612,Still,Still_7
1761341788550574000,0.767573974609375,-0.0705284112095832,-0.0058036630437709,0.0073965217257849,1761341788550574000,0.767573974609375,0.0005889339372515,0.0028285784646868,-0.0010334001854062,Still,Still_7
1761341788560639700,0.7776396484375,-0.0697808077126741,-0.0001200279167853,0.0078153910252498,1761341788560639700,0.7776396484375,-0.000366027932614,0.0023039318621158,-0.0013680793344974,Still,Still_7
1761341788570707200,0.787707275390625,-0.0699281072288751,-0.0055113838326185,0.0133500689684879,1761341788570707200,0.787707275390625,-0.0005740206688642,0.0007174862548708,-0.0024895365349948,Still,Still_7
1761341788580772900,0.79777294921875,-0.0616986235439777,-0.0016974698339588,0.0108206737884553,1761341788580772900,0.79777294921875,-0.0012150281108915,-0.0017567416653037,0.0005193962715566,Still,Still_7
1761341788590838800,0.8078388671875,-0.0726268447935581,-0.0048051352594047,0.0096850253886077,1761341788590838800,0.8078388671875,-0.0002594860270619,0.0010225335136055,0.0035197134129703,Still,Still_7
1761341788600905000,0.817905029296875,-0.0657458531081676,-0.0074147149696014,0.0088849793184082,1761341788600905000,0.817905029296875,-0.0001553273759782,0.0014545954763889,-0.000333790667355,Still,Still_7
1761341788610972000,0.827971923828125,-0.0606546674489974,-0.0029167824958451,0.0112968947317684,1761341788610972000,0.827971923828125,-0.0008892947807908,-0.0010349275544285,0.0009218901395797,Still,Still_7
1761341788621038000,0.8380380859375,-0.0667927318125963,-0.0003919036607258,0.00473045802142,1761341788621038000,0.8380380859375,0.0003209332935512,0.0002081142738461,0.0012974040582776,Still,Still_7
1761341788631104000,0.84810400390625,-0.0664934566050767,-0.0086005820196121,0.0139460164344869,1761341788631104000,0.84810400390625,-0.0012804251164197,-0.0022033778950572,0.0005485229194164,Still,Still_7
1761341788641170000,0.858169921875,-0.0678425331264734,-0.003427618094813,0.0139549943253863,1761341788641170000,0.858169921875,0.0004533296450972,0.0019932920113205,-0.0013866806402802,Still,Still_7
1761341788651237000,0.868237060546875,-0.0658960752338171,0.0040080300649628,0.0082217844356317,1761341788651237000,0.868237060546875,2.45608389377e-05,-0.0002690637484192,-0.0011991942301392,Still,Still_7
1761341788661303000,0.878302978515625,-0.0681394702464342,-0.0063407473288476,0.010696517685824,1761341788661303000,0.878302978515625,0.0005177804268896,-0.0021223127841949,-0.000209433492273,Still,Still_7
1761341788671369000,0.888368896484375,-0.0690372958689928,-0.0069582581726834,0.0096525113584939,1761341788671369000,0.888368896484375,-0.0006143292412161,-0.0021683853119611,-7.84057192504e-05,Still,Still_7
1761341788681435000,0.898434814453125,-0.0639484482973814,-0.0035718854037113,0.0090199993083486,1761341788681435000,0.898434814453125,-0.0005603544414043,5.63077628612e-05,-0.0034155766479671,Still,Still_7
1761341788691501800,0.908501708984375,-0.0621498744428157,-0.0039677711198106,0.0100250664313556,1761341788691501800,0.908501708984375,0.0011094477958977,-0.0011985739693045,-0.0026091714389622,Still,Still_7
1761341788701568000,0.918568115234375,-0.0670832391917705,-0.0004159238571301,0.0130555156018584,1761341788701568000,0.918568115234375,-0.0026817442849278,-0.0030900742858648,-0.0006064008921384,Still,Still_7
1761341788711634000,0.928634033203125,-0.0696253248900175,-0.0034573191133327,0.005178932441282,1761341788711634000,0.928634033203125,0.0005625179037451,0.0003347508609294,0.0013009556569159,Still,Still_7
1761341788721699800,0.938699951171875,-0.0703729283869266,-0.0015396854563616,0.0082883331660879,1761341788721699800,0.938699951171875,0.0024879809934645,-0.0015093330293893,0.0002970802597701,Still,Still_7
1761341788731767000,0.94876708984375,-0.06199263805449,-0.00062764864536,0.0066222083184635,1761341788731767000,0.94876708984375,-0.0001312377862632,0.0003910986706614,0.0016267970204353,Still,Still_7
1761341788741833000,0.9588330078125,-0.066783963984251,-0.0024669381028041,0.0156509297893848,1761341788741833000,0.9588330078125,-0.0001181298866868,0.0017799101769924,0.0006051640957593,Still,Still_7
1761341788751899000,0.96889892578125,-0.0763596015810966,-0.0011397080870345,0.0124878717817366,1761341788751899000,0.96889892578125,-0.0002198624424636,-0.0029021929949522,-0.0013996637426316,Still,Still_7
1761341788761966000,0.978966064453125,-0.0717208358645439,-0.0012912271206267,0.0094000664008082,1761341788761966000,0.978966064453125,-0.0008016848005354,0.0004933206364512,0.0015512676909565,Still,Still_7
1761341788772032000,0.989031982421875,-0.0679810648143291,-0.0030444091971963,0.0075194311528233,1761341788772032000,0.989031982421875,-0.0003345664590597,0.0004262086004018,-0.0012911241501569,Still,Still_7
1761341788782098200,0.99909814453125,-0.0696276629775762,-0.0031590850854292,0.0097950342348776,1761341788782098200,0.99909814453125,-0.0003173039294779,-0.0003280015662312,0.0041520954109728,Still,Still_7
1761341788792163800,1.009163818359375,-0.0763619396686553,-0.0043214616619981,0.0076371301152044,1761341788792163800,1.009163818359375,-0.0004573860205709,0.0003431150689721,7.13332556188e-05,Still,Still_7
1761341788802231000,1.01923095703125,-0.0739689070522785,-0.0024980273608118,0.0008351402164669,1761341788802231000,1.01923095703125,0.0024696516338735,0.0031689815223217,-0.001373108010739,Still,Still_7
1761341788812297000,1.029296875,-0.0640899025946855,0.0011417904462665,0.0111848674583481,1761341788812297000,1.029296875,-0.0005258722230792,-0.003007155843079,0.0009824577718973,Still,Still_7
1761341788822363000,1.03936279296875,-0.0624427199095487,0.005876143758092,0.0058608320245286,1761341788822363000,1.03936279296875,0.0022601368837058,0.0012021418660879,0.0004899785853922,Still,Still_7
1761341788832429000,1.049428955078125,-0.0591547842800617,-0.0038389571083709,0.0111299498001812,1761341788832429000,1.049428955078125,-0.0014429888688027,0.000681759789586,0.0022564535029232,Still,Still_7
1761341788842496000,1.05949609375,-0.0706751262038946,-0.0030111462484113,0.017019711091672,1761341788842496000,1.05949609375,0.0010456191375851,-0.0004827035591006,0.0001221392303705,Still,Still_7
1761341788852562000,1.06956201171875,-0.0567617516636848,0.0002430697745643,0.0180261710207443,1761341788852562000,1.06956201171875,0.0009779748506844,1.87689438462e-05,0.0011706254445016,Still,Still_7
1761341788862628000,1.079628173828125,-0.069182257297635,-0.0001858414283022,0.0091556951517239,1761341788862628000,1.079628173828125,0.0001941910013556,-0.0003311960026621,-0.0026097949594259,Still,Still_7
1761341788872694000,1.089694091796875,-0.0582569586575031,-0.0020281082941219,0.0090792004159884,1761341788872694000,1.089694091796875,-0.002550994977355,-0.0001652808859944,0.0002919854596257,Still,Still_7
1761341788882761000,1.099760986328125,-0.0634942747890949,-0.0066939994796179,0.0145393883509095,1761341788882761000,1.099760986328125,-0.0002988069318234,1.04308128356e-05,-0.0047779204323887,Still,Still_7
1761341788892827100,1.1098271484375,-0.0711234544932842,0.0038304084757342,0.0128504991156281,1761341788892827100,1.1098271484375,0.0006487453356385,-0.0007517663761973,0.0010336292907595,Still,Still_7
1761341788902893000,1.11989306640625,-0.0587035333812236,-0.0076795764508657,0.0023109666563803,1761341788902893000,1.11989306640625,6.81648962199e-05,-0.0008923606947064,-0.0024893670342862,Still,Still_7
1761341788912959000,1.129958984375,-0.0666360799461603,-0.0031285620830021,0.012393051371444,1761341788912959000,1.129958984375,-0.0005350410938262,-0.0009850393980741,0.0021290872246026,Still,Still_7
1761341788923026000,1.14002587890625,-0.0744184043854475,0.0009748181152157,0.0146101063664071,1761341788923026000,1.14002587890625,-0.0014021592214703,-0.0019872291013598,0.0006516301073133,Still,Still_7
1761341788933091800,1.150091796875,-0.0696294165432453,-0.0057842642235569,0.0047538388970075,1761341788933091800,1.150091796875,-8.52262601256e-05,-0.0013592550531029,0.0022002584300935,Still,Still_7
1761341788943158000,1.160157958984375,-0.0636427433490753,-0.002345266218204,0.0115214972678804,1761341788943158000,1.160157958984375,0.0009501236490905,-0.0028023831546306,-0.004352755844593,Still,Still_7
1761341788953224000,1.170223876953125,-0.0769552293866872,-0.0043602775687351,0.0158714954711962,1761341788953224000,1.170223876953125,-0.0025463406927883,0.0024554962292313,-0.0026174397207796,Still,Still_7
1761341788963291000,1.180290771484375,-0.0652840808153152,-0.0004511778336018,0.0064492309383116,1761341788963291000,1.180290771484375,-9.98927280306e-05,-0.0020716600120067,-0.0015258523635566,Still,Still_7
1761341788973357000,1.190357177734375,-0.0673766691803932,-0.0025069413196295,0.0167220889851218,1761341788973357000,1.190357177734375,-0.0016091060824692,4.66182827949e-05,0.000248079188168,Still,Still_7
1761341788983423000,1.200423095703125,-0.0700730686575174,0.0032726649951189,0.0021540636281948,1761341788983423000,1.200423095703125,-0.001464388333261,0.0004368294030427,0.0002646632492542,Still,Still_7
1761341788993489200,1.2104892578125,-0.0598971270799636,-0.0066505987293086,0.0081385083326604,1761341788993489200,1.2104892578125,-0.0001437268219888,-0.002223402261734,-0.0004224320873618,Still,Still_7
1761341789003556000,1.22055615234375,-0.0673813453555107,-0.0020585947639308,0.0079725086825666,1761341789003556000,1.22055615234375,0.0014780508354306,0.0005960185080766,0.0015257061459124,Still,Still_7
1761341789013622000,1.2306220703125,-0.0720206955939531,0.0020317980885505,0.0146317017102846,1761341789013622000,1.2306220703125,0.0008383598178625,-1.51768326759e-05,0.0006053172983229,Still,Still_7
1761341789023688200,1.240688232421875,-0.0766612148761749,0.0013701193094253,0.0112948215056909,1761341789023688200,1.240688232421875,-0.0008348040282726,-0.0018954006955027,0.0011801547370851,Still,Still_7
1761341789033753900,1.25075390625,-0.0676823741286993,-0.0079311035265214,0.0139556062467396,1761341789033753900,1.25075390625,0.0014523188583552,0.0019158497452735,-0.0011543724685907,Still,Still_7
1761341789043820800,1.26082080078125,-0.0648375060915947,-0.0003994659126736,0.0086364250845508,1761341789043820800,1.26082080078125,0.0024467720650136,-0.0018594181165099,0.0009016674011945,Still,Still_7
1761341789053887000,1.270886962890625,-0.075461775958538,-0.0012809979875572,0.0118461489452514,1761341789053887000,1.270886962890625,0.0008557997643947,-0.0021318597719073,0.0008662473410367,Still,Still_7
1761341789063953000,1.280952880859375,-0.077556117889285,-0.0053522477481514,0.0135683239622041,1761341789063953000,1.280952880859375,0.0013228575699031,0.0005807122215628,-0.0014686021022498,Still,Still_7
1761341789074019000,1.29101904296875,-0.0679787267267704,-0.0031721272300928,0.0207596693715546,1761341789074019000,1.29101904296875,0.0017151413485407,0.0018329313024878,0.0013610068708658,Still,Still_7
1761341789084086000,1.3010859375,-0.0742646751284599,-0.0008772212259471,0.0078704548138892,1761341789084086000,1.3010859375,0.0008631534874439,0.0002340832725167,0.0009057563729584,Still,Still_7
1761341789094152000,1.31115185546875,-0.0621434447020292,-0.0025554018375463,0.0143873395943548,1761341789094152000,1.31115185546875,0.0006317244842648,-0.0019177515059709,0.0011755344457924,Still,Still_7
1761341789104218000,1.321218017578125,-0.0690296970844268,-2.90616977028e-05,0.011401259288541,1761341789104218000,1.321218017578125,0.0007612588815391,0.0003923755139112,0.0025124959647655,Still,Still_7
1761341789114284000,1.331283935546875,-0.0639443566441535,-0.0014450477091595,0.0069916307193227,1761341789114284000,1.331283935546875,-0.0005218521691858,0.0002594841644167,-0.0001804926432669,Still,Still_7
1761341789124351000,1.34135107421875,-0.0690320351719856,7.16221977956e-05,0.0121854913016781,1761341789124351000,1.34135107421875,-0.0001271422952413,-0.0031911032274365,0.0006218003109097,Still,Still_7
1761341789134417200,1.351417236328125,-0.0622989275246858,0.0022022775509394,0.012238655394176,1761341789134417200,1.351417236328125,-0.0010240948759019,-0.0004499116912484,-0.0002714237198233,Still,Still_7
1761341789144482800,1.36148291015625,-0.0744189889073371,-0.005923270835448,0.0117103526371764,1761341789144482800,1.36148291015625,0.0003284686245024,0.0004620980471372,-0.0010244394652545,Still,Still_7
1761341789154550000,1.371550048828125,-0.0696329236745834,-0.0032853966125287,0.0154275054302066,1761341789154550000,1.371550048828125,0.0011575105600059,0.0011119097471237,-0.000333615578711,Still,Still_7
1761341789164616000,1.381615966796875,-0.060955696222186,0.0033508630641736,0.0065113500888226,1761341789164616000,1.381615966796875,7.32359476387e-05,0.000814625993371,4.90127131342e-05,Still,Still_7
1761341789174681900,1.391681884765625,-0.0744236650824546,0.0015957264925353,0.0044697749583516,1761341789174681900,1.391681884765625,-0.0005973479710519,-0.0023763738572597,-0.0004639117978513,Still,Still_7
1761341789184748000,1.401748046875,-0.0646983898818492,0.0040546456856653,0.0124813826754456,1761341789184748000,1.401748046875,-0.0022009639069437,0.0017062509432435,0.0008187345229089,Still,Still_7
1761341789194815000,1.41181494140625,-0.0711333913654088,-0.0014457600952126,0.0110031724822008,1761341789194815000,1.41181494140625,0.0017716730944812,-0.0018208399415016,-0.0011133886873722,Still,Still_7
1761341789204881000,1.421880859375,-0.0748708243280649,-0.004556731722597,0.0100710107652004,1761341789204881000,1.421880859375,-0.0007960237562656,4.23640012741e-05,-0.0006601447239518,Still,Still_7
1761341789214947000,1.431947021484375,-0.0663379737824201,-0.0015806750538758,0.0097544510627398,1761341789214947000,1.431947021484375,0.0011046743020415,0.0020788833498954,-0.0030487342737615,Still,Still_7
1761341789225013000,1.442012939453125,-0.0747141724616289,-0.0096438074622303,0.0080025887269992,1761341789225013000,1.442012939453125,5.31109981238e-05,-0.0004896000027656,5.94016164541e-05,Still,Still_7
1761341789235080000,1.452079833984375,-0.0615489859402179,-0.0065461885067634,0.0094536049526417,1761341789235080000,1.452079833984375,0.0025018875021487,0.0008720736950635,0.0012429100461304,Still,Still_7
1761341789245146000,1.46214599609375,-0.0718757341653108,-0.0030492497690953,0.0171611927884398,1761341789245146000,1.46214599609375,0.0002553816884756,0.0001198695972561,0.0005090539343655,Still,Still_7
1761341789255212000,1.4722119140625,-0.0723310767173767,0.0033424605620093,0.0127450111808488,1761341789255212000,1.4722119140625,0.0006157071329653,0.0004679448902606,0.0025780634023249,Still,Still_7
1761341789265278000,1.48227783203125,-0.0675409198313951,0.0014830416319891,0.003718641497218,1761341789265278000,1.48227783203125,0.0008605429902672,0.0001891767606139,-7.17183575034e-05,Still,Still_7
1761341789275345000,1.492344970703125,-0.0612549714297056,0.0014197488711215,0.0158063943457324,1761341789275345000,1.492344970703125,-0.0005109850317239,-0.0001357290893793,0.0005005951970815,Still,Still_7
1761341789285410800,1.502410888671875,-0.0714279903978109,-0.0045322000695392,0.017603771757055,1761341789285410800,1.502410888671875,-0.0014566592872142,0.0015843464061617,0.0005733771249651,Still,Still_7
1761341789295477000,1.51247705078125,-0.0667892246812582,-0.0068131871461868,0.0221962780459318,1761341789295477000,1.51247705078125,0.0010658870451152,0.0014692982658743,0.0008191866800189,Still,Still_7
1761341789305543000,1.52254296875,-0.0723258160203695,-0.0060845075454562,0.0105768002962926,1761341789305543000,1.52254296875,0.0023374073207378,0.0010185549035668,0.002822398673743,Still,Still_7
1761341789315609900,1.53260986328125,-0.0742740274786949,0.0001858596946112,0.0110534961636411,1761341789315609900,1.53260986328125,0.0011826604604721,-0.0019892184063792,0.000256176572293,Still,Still_7
1761341789325676000,1.542676025390625,-0.07038520334661,-0.0087146185870282,0.009399020654615,1761341789325676000,1.542676025390625,0.0011094990186393,-0.0009746579453349,-0.0003432352095842,Still,Still_7
1761341789335742000,1.552741943359375,-0.0679939242959022,-0.0035269685497507,0.0082575955345295,1761341789335742000,1.552741943359375,9.11061652004e-05,-0.0008915681391954,0.0005065794102847,Still,Still_7
1761341789345808100,1.56280810546875,-0.0706909082949161,-0.0089230006407015,0.0156662186900619,1761341789345808100,1.56280810546875,0.0009486293420195,0.0009349239990115,6.5338332206e-05,Still,Still_7
1761341789355875000,1.572875,-0.0675473495721817,-0.0039365539976395,0.0175945701038697,1761341789355875000,1.572875,0.0002474188804626,-0.0007894728332757,-0.0002707527019083,Still,Still_7
1761341789365941000,1.58294091796875,-0.064555182018876,-0.0001870652710087,0.0061121307713212,1761341789365941000,1.58294091796875,0.0005327542312443,0.0004490939900279,-0.0009254948236048,Still,Still_7
1761341789376007200,1.593007080078125,-0.0759264708608388,-0.0026257453937083,0.0024132762533845,1761341789376007200,1.593007080078125,0.0002789553254842,-0.0023064780980348,0.0013797371648252,Still,Still_7
1761341789386072800,1.60307275390625,-0.064702481535077,-0.0035541853502392,0.0137211444703163,1761341789386072800,1.60307275390625,-0.0004658801481127,-0.0013688262552022,0.0008147316984832,Still,Still_7
1761341789396139800,1.613139892578125,-0.0664998863458633,0.0023997911507263,0.01953521474367,1761341789396139800,1.613139892578125,-0.0004043611697852,-0.002155790105462,0.0031583136878907,Still,Still_7
1761341789406206000,1.6232060546875,-0.0733867232501506,-0.0053917212420143,0.0107071806437335,1761341789406206000,1.6232060546875,-0.000302298925817,0.0019089970737695,0.0015417844988405,Still,Still_7
1761341789416272000,1.63327197265625,-0.0696475367218256,-0.0092434647667221,0.0158852454353356,1761341789416272000,1.63327197265625,0.0009688278660178,0.0011550560593605,0.001742320600897,Still,Still_7
1761341789426338000,1.643338134765625,-0.0729407330483198,-0.0041222127628512,0.0116615633256966,1761341789426338000,1.643338134765625,0.0006715129129588,0.0004575373604893,0.001540099736303,Still,Still_7
1761341789436405000,1.653405029296875,-0.0736883365452289,0.0031773879271,0.0139055793928215,1761341789436405000,1.653405029296875,0.0002387491986155,-0.000550203025341,-0.0018112226389348,Still,Still_7
1761341789446471000,1.663470947265625,-0.0671031129360198,-0.0057026503547094,0.0093458565621171,1761341789446471000,1.663470947265625,-0.0006326325237751,-0.0008773133158683,-0.0002987817861139,Still,Still_7
1761341789456537000,1.673537109375,-0.0702408264398574,0.003248096809443,0.0123358641243772,1761341789456537000,1.673537109375,0.0001569944433867,-0.0031790835782885,0.0014296099543571,Still,Still_7
1761341789466603000,1.68360302734375,-0.0768260500490665,-0.0011615545926615,0.009782859739894,1761341789466603000,1.68360302734375,0.0023762022610753,3.734603524208069e-07,-0.0007811295799911,Still,Still_7
1761341789476670000,1.693669921875,-0.0651543169558048,-0.0062646864179521,0.0052239908591378,1761341789476670000,1.693669921875,-0.0005159904249012,-0.000373002141714,0.0014862855896353,Still,Still_7
1761341789486736100,1.703736083984375,-0.0729401485264301,-0.0015590477439574,0.01288001290448,1761341789486736100,1.703736083984375,-0.0024793501943349,0.0006820252165198,0.0004719542339444,Still,Still_7
1761341789496801800,1.7138017578125,-0.0681523297280073,0.0060948645426891,0.0141978723037056,1761341789496801800,1.7138017578125,-0.0008795894682407,0.0026349201798439,0.0013207038864493,Still,Still_7
1761341789506868000,1.723867919921875,-0.0596253244012594,-0.0053685778284445,0.0170213139602914,1761341789506868000,1.723867919921875,0.0012660911306738,0.0015100752934813,0.0005242773331701,Still,Still_7
1761341789516935000,1.733934814453125,-0.0668073448598384,-0.0082268716027028,0.0188466479576192,1761341789516935000,1.733934814453125,0.0005100197158753,-0.0022170189768075,-0.0012499205768108,Still,Still_7
1761341789527000800,1.744000732421875,-0.0650134471803903,0.0020015490807592,0.0112443562603555,1761341789527000800,1.744000732421875,0.0003922772593796,0.0029613552615046,-0.0019627469591796,Still,Still_7
1761341789537067000,1.75406689453125,-0.0638145927846431,0.0020568046656437,0.0083298159539466,1761341789537067000,1.75406689453125,7.90893100202e-05,0.0003503924235701,-0.0003478061407804,Still,Still_7
1761341789547133000,1.7641328125,-0.0686053341925144,-0.0018890651496127,0.0038770788953639,1761341789547133000,1.7641328125,-0.0012585395015776,-0.0002680327743291,0.0026138871908187,Still,Still_7
1761341789557200000,1.774199951171875,-0.064122635820508,-0.0040147885993123,0.0147272162403212,1761341789557200000,1.774199951171875,0.0002227104268968,-0.0008448734879493,0.0015515517443418,Still,Still_7
1761341789567266000,1.78426611328125,-0.0665185910463333,-0.0079559274405241,0.0095904698397964,1761341789567266000,1.78426611328125,0.0024792274925857,-0.0005891043692827,0.0044094789773225,Still,Still_7
1761341789577332000,1.79433203125,-0.0677186144858598,-0.0052878407424315,0.0115597880182322,1761341789577332000,1.79433203125,-0.0010246932506561,-0.0004271836951375,0.0008613495156168,Still,Still_7
1761341789587398100,1.804398193359375,-0.074452891176939,0.0016342136057093,0.0100498035803902,1761341789587398100,1.804398193359375,-0.0015770965255796,-0.0015206271782517,0.0006751231849193,Still,Still_7
1761341789597465000,1.814465087890625,-0.0758002141326665,0.0037211211486719,0.006057660637726,1761341789597465000,1.814465087890625,0.002437885152176,0.0022874269634485,0.0007627410814166,Still,Still_7
1761341789607531000,1.824531005859375,-0.0704109223097562,0.0001791011602617,0.0015215378783177,1761341789607531000,1.824531005859375,-0.001635743305087,-0.0009850803762674,-0.0015915869735181,Still,Still_7
1761341789617597000,1.834596923828125,-0.0698112028509378,-0.0109537027507089,0.0072382898236159,1761341789617597000,1.834596923828125,-0.0013095061294734,0.001724686473608,-0.0005233930423855,Still,Still_7
1761341789627662800,1.844662841796875,-0.0672667790651321,-0.0013964593270793,0.0099019149757223,1761341789627662800,1.844662841796875,0.0010633068159222,0.0008870027959346,0.0012306743301451,Still,Still_7
1761341789637729800,1.854729736328125,-0.0711538496315479,-0.0001923259680159,0.0135292660268722,1761341789637729800,1.854729736328125,9.95090231299e-05,0.000291253440082,-0.0017366195097565,Still,Still_7
1761341789647796000,1.8647958984375,-0.0663648617893457,-0.0003862593712285,0.0164906913820421,1761341789647796000,1.8647958984375,0.001269653905183,0.000512134283781,0.000414356123656,Still,Still_7
1761341789657862000,1.87486181640625,-0.067410571449995,-0.0031620076948776,0.009304679734935,1761341789657862000,1.87486181640625,0.000189209356904,-0.0013843029737472,-0.0015404042787849,Still,Still_7
1761341789667928800,1.8849287109375,-0.074885437375307,-0.0043350883285515,0.0137071935767773,1761341789667928800,1.8849287109375,-0.0010966612026095,-0.0005623418837785,0.0003347368910908,Still,Still_7
1761341789677995000,1.8949951171875,-0.0721960521608591,0.0006523812278173,0.0115760313335573,1761341789677995000,1.8949951171875,0.0007188157178461,-0.0001050764694809,0.0011256951838731,Still,Still_7
1761341789688061000,1.90506103515625,-0.0757850165635347,-0.0036089294784702,0.008706581411045,1761341789688061000,1.90506103515625,-0.0018585077486932,-0.0005581751465797,0.0007359138689935,Still,Still_7
1761341789698127000,1.915127197265625,-0.0668073448598384,-0.0029983050331473,0.0125468491270905,1761341789698127000,1.915127197265625,0.0011053238995373,0.0007076254114508,0.0013724095188081,Still,Still_7
1761341789708194000,1.925194091796875,-0.0626192455202341,-0.0062657093312591,0.0108470503387274,1761341789708194000,1.925194091796875,0.0015150685794651,-0.0005013421177864,-0.0004345159977674,Still,Still_7
1761341789718260500,1.935260498046875,-0.0696545509845018,-0.0087097962814383,0.0067613336613634,1761341789718260500,1.935260498046875,-0.0016833879053592,0.0015077469870448,0.0004342072643339,Still,Still_7
1761341789728326400,1.945326416015625,-0.076088383424282,-0.0017368885288946,0.0049316705487901,1761341789728326400,1.945326416015625,-0.0014686486683785,0.0020965365692973,0.0005689412355422,Still,Still_7
1761341789738392300,1.955392333984375,-0.0693529376894235,-0.0060393897620961,0.0009202794829616,1761341789738392300,1.955392333984375,0.0001987563446164,0.0003441767767071,-0.0025533493608236,Still,Still_7
1761341789748459300,1.965459228515625,-0.071148004412651,0.0050167687160894,0.0059070868856273,1761341789748459300,1.965459228515625,-0.0006205653771758,0.001443363726139,-0.0007955646142363,Still,Still_7
1761341789758525400,1.975525390625,-0.0698030195444822,-0.0018368965709581,0.0112079515064135,1761341789758525400,1.975525390625,0.0008063563145697,0.0019182050600647,0.0009077931754291,Still,Still_7
1761341789768591400,1.98559130859375,-0.0681564213812351,-0.0057401693535037,0.013978119472647,1761341789768591400,1.98559130859375,-0.0004399209283292,-0.0015959925949573,-0.0004810956306755,Still,Still_7
1761341789778657500,1.995657470703125,-0.0632177959352731,-0.0014122231517918,0.006453697050875,1761341789778657500,1.995657470703125,0.0001262668520212,-0.0021352833136916,-0.0007620593532919,Still,Still_7
1761341789788724500,2.005724365234375,-0.0599251841306686,-0.0026151326681487,0.0048650259202113,1761341789788724500,2.005724365234375,-0.0006782095879316,0.000830098055303,0.0008856668137013,Still,Still_7
1761341789798790400,2.015790283203125,-0.067106620067358,-0.0067992682186886,0.000260294904001,1761341789798790400,2.015790283203125,-0.0014806203544139,-0.0006333086639642,-0.0019719046540558,Still,Still_7
1761341789808856600,2.025856689453125,-0.065161331218481,0.0026189320604316,0.0097217361032264,1761341789808856600,2.025856689453125,0.0014052633196115,-0.0019009616225957,0.0001029982231557,Still,Still_7
1761341789818922500,2.035922607421875,-0.0744394471734762,-0.0013599815079011,0.0120493022679584,1761341789818922500,2.035922607421875,0.0010681073181331,0.0019872533157467,0.0012987577356398,Still,Still_7
1761341789828989400,2.045989501953125,-0.0710018739402294,-0.0061755102971568,0.0136972338717663,1761341789828989400,2.045989501953125,0.0012808418832719,-9.19653102755e-05,-0.0001910435967147,Still,Still_7
1761341789839055600,2.0560556640625,-0.0696533819407224,-0.0047574236601591,0.0044824243773706,1761341789839055600,2.0560556640625,0.000898411963135,0.0016737105324864,-0.0013234196230769,Still,Still_7
1761341789849121300,2.066121337890625,-0.0666559536904096,-0.0042342400362715,0.0101353858048794,1761341789849121300,2.066121337890625,0.0002381061203777,0.0015378342941403,-0.0024852170608937,Still,Still_7
1761341789859187500,2.0761875,-0.0705436087787151,0.0022298779439181,0.003203120589978,1761341789859187500,2.0761875,7.64522701501e-05,-6.88508152961e-05,0.0004511843435466,Still,Still_7
1761341789869254400,2.08625439453125,-0.0657552054584026,0.0002971745819784,0.0047538982625119,1761341789869254400,2.08625439453125,0.0007466315291821,-0.0011349124833941,-0.0034690950997173,Still,Still_7
1761341789879320300,2.0963203125,-0.0650081864833831,0.0022968422329053,0.0165843564482871,1761341789879320300,2.0963203125,0.0001404960639774,0.0001045232638716,0.0020729429088532,Still,Still_7
1761341789889386500,2.106386474609375,-0.0685994889736175,-0.002039597802516,0.0097135801962343,1761341789889386500,2.106386474609375,-0.0005355034954845,0.0001391880214214,-0.0016317553818225,Still,Still_7
1761341789899452400,2.116452392578125,-0.0678495473891496,-0.0076858417948707,0.014254584626737,1761341789899452400,2.116452392578125,0.0012362971901893,0.0018627857789397,-0.0012876745313405,Still,Still_7
1761341789909519400,2.126519287109375,-0.0720394002944231,0.0009719137720763,0.0161475450667552,1761341789909519400,2.126519287109375,-0.0018587480299174,1.81412324309e-05,-0.0013837255537509,Still,Still_7
1761341789919585500,2.13658544921875,-0.0723380909800529,-0.0057803004344925,0.0217892453147331,1761341789919585500,2.13658544921875,5.1977112889e-06,-0.0014250259846448,0.0014871624298393,Still,Still_7
1761341789929651500,2.1466513671875,-0.0620142653644084,-0.009338723568432,0.0080053606393979,1761341789929651500,2.1466513671875,0.0005178516730666,0.0004877978935837,-0.0015220693312585,Still,Still_7
1761341789939717600,2.156717529296875,-0.0714402653574943,-0.0049165962772443,0.0142120789255714,1761341789939717600,2.156717529296875,-0.0003348924219608,-0.0010459162294864,-0.0006554769352078,Still,Still_7
1761341789949784600,2.16678466796875,-0.0627589462518692,-0.0014021584155038,0.0144091860999818,1761341789949784600,2.16678466796875,-0.0001314436085522,0.0004601692780852,-0.0014985911548137,Still,Still_7
1761341789959850200,2.176850341796875,-0.0711398211061954,-0.0044160811428911,0.0084821432717144,1761341789959850200,2.176850341796875,-0.0017719506286084,0.0034247990697622,0.0003395220264792,Still,Still_7
1761341789969916400,2.18691650390625,-0.0669511372447013,-0.0011212408485822,0.0100676588974893,1761341789969916400,2.18691650390625,0.0011665439233183,5.09964302182e-05,0.0004596305079758,Still,Still_7
1761341789979982300,2.196982421875,-0.0678483783453702,-0.0065271184801124,0.0065971834750613,1761341789979982300,2.196982421875,0.0002083382569253,0.0017207982018589,-0.0014075119979679,Still,Still_7
1761341789990049300,2.20704931640625,-0.0682990447223186,-0.0039270372506231,0.0132122542332625,1761341789990049300,2.20704931640625,-0.001476124394685,0.0017246287316083,0.0025102831423282,Still,Still_7
1761341790000115500,2.217115478515625,-0.0662087944447994,-0.0027132592803798,-0.002121376068145,1761341790000115500,2.217115478515625,-0.0010846396908164,-0.0004090964794158,0.0020269192755222,Still,Still_7
1761341790010181400,2.227181396484375,-0.0709966132432222,-0.0013724025980569,0.0044524813302559,1761341790010181400,2.227181396484375,0.0007576649077236,0.0005933670327067,-0.0005237632431089,Still,Still_7
1761341790020247600,2.23724755859375,-0.0659077656716108,-0.005907671407517,0.0095635453002527,1761341790020247600,2.23724755859375,-0.0025715525262057,-0.0005374113097786,-0.0025565540418028,Still,Still_7
1761341790030314500,2.247314453125,-0.0681517452061176,-0.002944127160497,0.0130331211069598,1761341790030314500,2.247314453125,-0.0005294885486364,0.0007166052237153,0.0005597239360213,Still,Still_7
1761341790040380400,2.25738037109375,-0.0645604427158832,-0.0002641308289021,0.0105254445683909,1761341790040380400,2.25738037109375,-0.000716442707926,0.0011259336024522,-3.57590615749e-05,Still,Still_7
1761341790050446600,2.267446533203125,-0.0677016633510589,-0.003023841333203,0.0113031783420825,1761341790050446600,2.267446533203125,-0.0017903610132634,-0.0017228592187166,-0.0010065981186926,Still,Still_7
1761341790060512300,2.27751220703125,-0.0702443335711956,0.0050174811021424,0.0108284004371846,1761341790060512300,2.27751220703125,0.0006139408797025,0.0025552427396178,0.0024448591284453,Still,Still_7
1761341790070579500,2.287579345703125,-0.075333181142807,-0.0020189386069774,0.0040707337373634,1761341790070579500,2.287579345703125,1.45058147609e-05,0.0012001991271972,-0.0010687382891774,Still,Still_7
1761341790080645400,2.297645263671875,-0.0665033934772014,-0.0001354081490077,0.0116050245326012,1761341790080645400,2.297645263671875,0.0022968349512666,-0.000548698939383,-0.002270090393722,Still,Still_7
1761341790090711300,2.307711181640625,-0.0724865595400333,-0.0057667468331754,0.0090999692093813,1761341790090711300,2.307711181640625,-0.0002020425163209,-0.0018416978418827,0.0013248939067125,Still,Still_7
1761341790100777500,2.317777587890625,-0.0699409667104482,-0.0049123950261622,0.0106956683024531,1761341790100777500,2.317777587890625,0.001098112668842,-0.0016179922968149,-0.0007252073846757,Still,Still_7
1761341790110844400,2.327844482421875,-0.0641015930324792,-0.002838072970137,0.0030402353455778,1761341790110844400,2.327844482421875,0.0002445466816425,0.0012041563168168,-0.0022748010233044,Still,Still_7
1761341790120910300,2.337910400390625,-0.074727031943202,-0.0064181051476858,0.0077972982461331,1761341790120910300,2.337910400390625,0.0001057959161698,0.0002166563645005,0.0040081283077597,Still,Still_7
1761341790130976500,2.3479765625,-0.0691933632135391,-0.0092966745249927,0.0118764664517017,1761341790130976500,2.3479765625,-0.0015244111418724,5.2582472562e-06,-0.0015328675508499,Still,Still_7
1761341790141042400,2.35804248046875,-0.0682967066347599,-0.0037407939635217,0.0026142513187369,1761341790141042400,2.35804248046875,-0.0028176424093544,0.0012620044872164,-0.0019587068818509,Still,Still_7
1761341790151109400,2.368109375,-0.0700870971828699,-0.0069673547945916,-0.0023212551549542,1761341790151109400,2.368109375,-0.0005200207233428,-0.0007598353549838,-0.0020248987711966,Still,Still_7
1761341790161175600,2.378175537109375,-0.0669452920258045,-0.0015492204696871,0.0098659440466202,1761341790161175600,2.378175537109375,0.0002171425148844,0.0018718997016549,0.0017906120046973,Still,Still_7
1761341790171241500,2.388241455078125,-0.0679921707302331,-0.0026218546698801,0.008553833968169,1761341790171241500,2.388241455078125,-0.0025483388453722,0.0004728436470031,-0.0014885389246046,Still,Still_7
1761341790181307400,2.398307373046875,-0.0751741911888122,-0.0008375833353027,0.0103739118350669,1761341790181307400,2.398307373046875,-0.0013722865842282,0.0004837624728679,-0.0010853363201022,Still,Still_7
1761341790191374600,2.40837451171875,-0.0739776748806238,-0.0082953885279595,0.0086700396597851,1761341790191374600,2.40837451171875,0.0011167265474796,0.0002318089827895,0.0005688490346074,Still,Still_7
1761341790201440300,2.418440185546875,-0.0673942048370838,-0.0045252223394811,0.0095978859612718,1761341790201440300,2.418440185546875,0.0003952765837311,-0.0017842035740613,-0.0004468807019293,Still,Still_7
1761341790211506400,2.42850634765625,-0.0693400782078504,-0.0028390776171348,0.0066974609451834,1761341790211506400,2.42850634765625,0.00116473948583,-0.0009580152109265,0.0001828055828809,Still,Still_7
1761341790221572400,2.438572265625,-0.0644026218056678,-0.0014655059752985,0.0110081363516859,1761341790221572400,2.438572265625,-0.0005247695371508,-0.0002701207995414,0.0023687281645834,Still,Still_7
1761341790231639300,2.448639404296875,-0.0624631781756877,-0.0015408362338319,0.0065818945743842,1761341790231639300,2.448639404296875,0.0001469450071454,0.0006565079092979,0.0012471172958612,Still,Still_7
1761341790241705500,2.45870556640625,-0.0669511372447013,-0.0015932788071222,0.0047428243126487,1761341790241705500,2.45870556640625,-0.0004075248725712,-0.0009919889271259,0.0005403142422437,Still,Still_7
1761341790251771400,2.468771484375,-0.0624596710443496,-0.0016574118182063,0.0066771807755576,1761341790251771400,2.468771484375,0.0001479871571063,-0.0002187406644225,-1.37281604111e-05,Still,Still_7
1761341790261838300,2.47883837890625,-0.0706926618605852,0.0032782179530709,0.0142728692020988,1761341790261838300,2.47883837890625,0.0008926070295274,-0.0011322051286697,0.0010153171606361,Still,Still_7
1761341790271904500,2.488904541015625,-0.0682996292442083,-0.0020327114040032,0.0034461035995744,1761341790271904500,2.488904541015625,0.000149505212903,0.0008690785616636,0.001271725166589,Still,Still_7
1761341790281970400,2.498970458984375,-0.063811085653305,0.0027905257676728,0.0036475581555394,1761341790281970400,2.498970458984375,0.0008041099645197,-0.0022494830191135,0.0020994353108108,Still,Still_7
1761341790292036600,2.50903662109375,-0.0558873069167137,-0.0067932768693193,0.0056116795690497,1761341790292036600,2.50903662109375,0.000237884465605,0.000969591550529,0.0014960598200559,Still,Still_7
1761341790302103600,2.519103515625,-0.0627682986021041,-0.0118383400981314,0.0082963383760303,1761341790302103600,2.519103515625,0.0008085998706519,0.0008683912456035,-0.0011801505461335,Still,Still_7
1761341790312169200,2.529169189453125,-0.0793733964443206,-0.0027493352407589,0.0188902907365234,1761341790312169200,2.529169189453125,-0.0022256625816226,0.0010366011410951,-0.0018301480449736,Still,Still_7
1761341790322235400,2.5392353515625,-0.0718897626906633,0.0005782017467543,0.0057492659754119,1761341790322235400,2.5392353515625,-0.0004682424478232,0.0005758740007877,-0.001234398689121,Still,Still_7
1761341790332301300,2.54930126953125,-0.0650058483958244,-0.007222918724548,0.0090040528205456,1761341790332301300,2.54930126953125,-0.0003778073005378,0.0025001531466841,-0.0003346786834299,Still,Still_7
1761341790342368300,2.5593681640625,-0.0711421591937541,-0.0106227537632919,0.0045018916962435,1761341790342368300,2.5593681640625,-0.001600997056812,0.0009059850126504,-0.0011543999426066,Still,Still_7
1761341790352434400,2.569434326171875,-0.0651560705214738,-0.000190974261146,0.0014801966543542,1761341790352434400,2.569434326171875,-0.0021740063093602,-0.000828918069601,0.000553477089852,Still,Still_7
1761341790362500400,2.579500244140625,-0.0663479106545448,0.00187253413992,0.0135915541407419,1761341790362500400,2.579500244140625,-0.0012237904593348,-0.002848926000297,-0.0004382841289043,Still,Still_7
1761341790372566500,2.58956640625,-0.0715846422642469,-0.0020349581600166,0.0091947302541695,1761341790372566500,2.58956640625,-0.001783238723874,0.0018445495516061,6.67222775518e-05,Still,Still_7
1761341790382633500,2.599633544921875,-0.0643991146743297,-0.005322327533923,0.0072786674997769,1761341790382633500,2.599633544921875,0.0021305428817868,-0.0009965104982256,-0.0023745973594486,Still,Still_7
1761341790392699400,2.609699462890625,-0.0705330873847007,0.0052429786873981,0.0055836864504264,1761341790392699400,2.609699462890625,-0.0008126823231577,0.0016679791733622,0.0014910623431205,Still,Still_7
1761341790402765600,2.619765625,-0.0736737234979867,-0.0064009713497944,0.0026249690755736,1761341790402765600,2.619765625,0.0017245113849639,0.0007276171818375,-0.0036123530007898,Still,Still_7
1761341790412831200,2.629831298828125,-0.070980246630311,0.0038007622561417,0.004626554688951,1761341790412831200,2.629831298828125,0.0009636157192289,-0.0015218779444694,-0.0011510709300637,Still,Still_7
1761341790422898400,2.6398984375,-0.0711304687559604,-0.0014000395236536,0.0086817529304651,1761341790422898400,2.6398984375,-0.0026841163635253,-0.0007935035973787,-0.0003124414943158,Still,Still_7
1761341790432964400,2.64996435546875,-0.0621510434865951,-0.0012594985418021,0.0151455329839373,1761341790432964400,2.64996435546875,0.0032632090151309,-0.0021290332078933,9.96217131614e-05,Still,Still_7
1761341790443030300,2.6600302734375,-0.0658931526243686,0.000441551488731,0.0050857742651132,1761341790443030300,2.6600302734375,0.0013779574073851,0.0006837975233793,0.0014351969584822,Still,Still_7
1761341790453096400,2.670096435546875,-0.0660410366624593,-0.0032396943072788,0.0028922599759418,1761341790453096400,2.670096435546875,0.0034021716564893,-0.0005974937230348,-0.0008478723466396,Still,Still_7
1761341790463163400,2.680163330078125,-0.0691863489508628,0.0036349407025612,0.0068580126686021,1761341790463163400,2.680163330078125,-0.000580586027354,0.0016006790101528,0.0026408690027892,Still,Still_7
1761341790473229300,2.690229248046875,-0.0651478872150182,-0.0052663960956037,0.0117505248173605,1761341790473229300,2.690229248046875,-0.0028138095512986,-0.0008752876892685,0.0012382180429995,Still,Still_7
1761341790483295500,2.70029541015625,-0.0730792647361755,-0.0055584378447383,0.0130251204635947,1761341790483295500,2.70029541015625,-0.0015682489611208,-0.0009242901578545,0.0004427316598594,Still,Still_7
1761341790493361400,2.710361328125,-0.0730792647361755,-0.0076385868533514,0.0060616472596768,1761341790493361400,2.710361328125,-0.0002335705794394,0.0020076045766472,0.0034365290775895,Still,Still_7
1761341790503428400,2.720428466796875,-0.0712865361005067,0.00246412509121,0.0034357283360324,1761341790503428400,2.720428466796875,-0.0005222572945058,0.0036473125219345,-0.0013792649842798,Still,Still_7
1761341790513494500,2.73049462890625,-0.0744236650824546,0.0071491959012113,0.0029057816112181,1761341790513494500,2.73049462890625,0.0017253458499908,-0.0010833963751792,-0.0002434221096336,Still,Still_7
1761341790523560400,2.740560546875,-0.07142974396348,-0.0002424669863656,0.0075014799376018,1761341790523560400,2.740560546875,0.0002518189139664,-6.89979642629e-05,0.0007190448231995,Still,Still_7
1761341790533626400,2.75062646484375,-0.0685842914044857,-0.0037655630785971,0.0099586775311036,1761341790533626400,2.75062646484375,0.0004732054658234,-0.0025828080251812,-0.0017851144075393,Still,Still_7
1761341790543693300,2.760693359375,-0.0682850161969661,-0.0043551082032732,0.0048257579223252,1761341790543693300,2.760693359375,0.0001613493077456,0.0004928763955831,-0.0008402247913181,Still,Still_7
1761341790553759200,2.77075927734375,-0.0636480040460825,-0.0048992250173352,0.0125244454990373,1761341790553759200,2.77075927734375,0.001493030693382,0.0011491691693663,0.0015773880295455,Still,Still_7
1761341790563825400,2.780825439453125,-0.0579676203221082,-0.0059802799860015,0.0056318638405529,1761341790563825400,2.780825439453125,0.0004117870703339,-0.0006138440221548,0.0004285010509192,Still,Still_7
1761341790573891300,2.790891357421875,-0.0648527036607265,-0.005040551450476,0.0079004800593946,1761341790573891300,2.790891357421875,-0.000859631691128,0.0015363981947302,-0.0001110020093619,Still,Still_7
1761341790583958300,2.800958251953125,-0.0714344201385974,-0.0012443557715974,0.014679477241612,1761341790583958300,2.800958251953125,-0.0003504352644085,-0.0021289102733135,0.0016924911178648,Still,Still_7
1761341790594024400,2.8110244140625,-0.0757756642132997,-0.0060927639171481,0.008173986071418,1761341790594024400,2.8110244140625,4.09153290092e-05,-0.0005584135651588,0.000963257625699,Still,Still_7
1761341790604090400,2.82109033203125,-0.0660515580564737,0.0016092252949252,0.008459840108361,1761341790604090400,2.82109033203125,-0.0001487019471824,0.0009558601304888,0.0018514217808842,Still,Still_7
1761341790614156500,2.831156494140625,-0.0678466247797012,-0.0007596227282658,-0.0016819937036139,1761341790614156500,2.831156494140625,0.0001245415769517,-0.0009904876351356,-0.0026885606348514,Still,Still_7
1761341790624223500,2.841223388671875,-0.059016252592206,0.0032037462110631,0.0147782386080827,1761341790624223500,2.841223388671875,-0.0005289977416396,0.0012327190488576,0.0002395855262875,Still,Still_7
1761341790634289400,2.851289306640625,-0.0675479340940713,-0.0016317476539872,0.0128283192498609,1761341790634289400,2.851289306640625,0.0019733812659978,0.0007812213152647,0.0010910821147263,Still,Still_7
1761341790644355600,2.86135546875,-0.0726391197532415,-0.0065881644849665,0.0014522126688854,1761341790644355600,2.86135546875,-0.0017824750393629,0.0015455484390258,0.0025707348249852,Still,Still_7
1761341790654421200,2.871421142578125,-0.0626128157794475,0.0010139628155156,0.0093192471164045,1761341790654421200,2.871421142578125,0.0013761678710579,0.0028072213754057,-0.0007205135188996,Still,Still_7
1761341790664488200,2.88148828125,-0.0659083501935005,0.000130330115091,-0.0023213099538814,1761341790664488200,2.88148828125,-0.0020971270278096,-0.0003776522353291,0.0012467638589441,Still,Still_7
1761341790674554400,2.891554443359375,-0.0642617520302534,-0.0003271130625158,-3.4112332155e-06,1761341790674554400,2.891554443359375,0.0030334065668284,-0.0007002912461757,-0.0004153833724558,Still,Still_7
1761341790684620300,2.901620361328125,-0.072341598111391,-0.0058957617740146,0.0056383757797302,1761341790684620300,2.901620361328125,-0.0015203324146568,-0.0003056107088923,0.0014144740998744,Still,Still_7
1761341790694686500,2.9116865234375,-0.0774286921173334,-7.71568894386e-05,0.0047866862872615,1761341790694686500,2.9116865234375,0.0005475240759551,9.55499708652e-05,-0.0012687989510595,Still,Still_7
1761341790704753400,2.92175341796875,-0.0762304222434759,-0.0022483086497522,0.0119069209554698,1761341790704753400,2.92175341796875,0.0007957308553159,0.0013949070125818,0.0009109983220696,Still,Still_7
1761341790714819600,2.931819580078125,-0.0675526102691888,-0.0068029214804992,-0.0002560708200326,1761341790714819600,2.931819580078125,0.0011014365591108,-0.0019965283572673,-0.0006029391661286,Still,Still_7
1761341790724885800,2.9418857421875,-0.0685994889736175,0.0045601109897717,0.0107468961661914,1761341790724885800,2.9418857421875,-0.0009539909660816,0.0008322810754179,-0.000203997362405,Still,Still_7
1761341790734951700,2.95195166015625,-0.0642599984645843,-0.0022034283284097,0.0133631065465742,1761341790734951700,2.95195166015625,0.0023237487766891,0.0019642151892185,0.0005512638017535,Still,Still_7
1761341790745018600,2.9620185546875,-0.0606692804962396,-0.0037974743205122,0.0015792091825744,1761341790745018600,2.9620185546875,-0.0015673958696424,-0.0013018855825066,0.0012740464881062,Still,Still_7
1761341790755084800,2.972084716796875,-0.0706955844700336,-0.0031846396517939,0.0163823950022459,1761341790755084800,2.972084716796875,0.0003129416145384,0.0019062282517552,-0.0004160534590482,Still,Still_7
1761341790765150700,2.982150634765625,-0.0629150135964155,-0.0042184214126318,0.0109354410082334,1761341790765150700,2.982150634765625,0.0002516889944672,-0.0003055268898606,-0.0020768009126186,Still,Still_7
1761341790775216600,2.992216552734375,-0.0641091918170452,-0.0016280578595586,0.0126433591709705,1761341790775216600,2.992216552734375,0.0003393986262381,-0.0013674013316631,0.0004661632701754,Still,Still_7
1761341790785283600,3.00228369140625,-0.0612666618674993,-0.0013203618835657,0.0038163982166908,1761341790785283600,3.00228369140625,-0.0009551639668643,-0.0004811016842722,0.000596391968429,Still,Still_7
1761341790795349500,3.012349609375,-0.0771288323879241,0.0009683701081201,0.0137657599301775,1761341790795349500,3.012349609375,-0.0011615771800279,-0.0002853060141205,-0.0012273760512471,Still,Still_7
1761341790805415700,3.022415771484375,-0.0675496876597404,-0.0033111155756749,0.0191668791881995,1761341790805415700,3.022415771484375,-0.0007682284340262,0.0005450677126646,-0.0001397412270307,Still,Still_7
1761341790815481600,3.032481689453125,-0.0645557665407657,-0.0002410239479504,0.0117709374177269,1761341790815481600,3.032481689453125,0.0020308112725615,0.0014918185770511,-0.0005579469725489,Still,Still_7
1761341790825548500,3.042548583984375,-0.0703887104779481,-0.0035124651003628,0.0059337100310716,1761341790825548500,3.042548583984375,0.0004973630420863,0.0005543865263462,-0.0024405354633927,Still,Still_7
1761341790835614700,3.05261474609375,-0.0820604435712099,0.0021530133154243,0.0097026523768436,1761341790835614700,3.05261474609375,-0.0005708136595785,-0.0002141632139682,-0.0007196962833404,Still,Still_7
1761341790845680600,3.0626806640625,-0.0705383480817079,-0.0009681509124115,0.007819957602513,1761341790845680600,3.0626806640625,0.0015991302207112,-0.0004802132025361,-0.0005202256143093,Still,Still_7
1761341790855746800,3.072746826171875,-0.066500470867753,-0.0045946160475723,0.0051694430937292,1761341790855746800,3.072746826171875,0.0009905151091516,-0.0007161414250731,0.0012939870357513,Still,Still_7
1761341790865813800,3.082813720703125,-0.059018006157875,-0.0082269081353209,0.0081668667774647,1761341790865813800,3.082813720703125,-0.0017573344521224,0.0016852309927344,-0.0023135310038924,Still,Still_7
1761341790875879700,3.092879638671875,-0.0685959818422794,-0.0006785203160718,0.0094468783843331,1761341790875879700,3.092879638671875,-0.0009288587607443,-0.0020983731374144,0.000130464322865,Still,Still_7
1761341790885945600,3.102945556640625,-0.0729360568732023,-0.0045243272903375,0.0097768775236792,1761341790885945600,3.102945556640625,-0.0001315083354711,0.001207142136991,-0.0021063247695565,Still,Still_7
1761341790896011500,3.113011474609375,-0.0599146627366542,-0.0097616616882383,0.0096719010455533,1761341790896011500,3.113011474609375,-0.0009237630292773,-0.0008547799661755,-0.0015736436471343,Still,Still_7
1761341790906078500,3.123078369140625,-0.0557259788751602,-0.0047797816224396,0.0143476103721652,1761341790906078500,3.123078369140625,0.0017527141608297,0.0009583001956343,0.0028125825338065,Still,Still_7
1761341790916144600,3.13314453125,-0.0697919136285781,0.0013527297832071,0.0087299622866325,1761341790916144600,3.13314453125,-0.0014872225001454,-0.0004956666380167,-0.0011931601911783,Still,Still_7
1761341790926210600,3.14321044921875,-0.0561754762083291,-0.0029359803866595,0.0192826099557802,1761341790926210600,3.14321044921875,-0.0004517855122685,-0.0010077925398945,0.0026196874678134,Still,Still_7
1761341790936276700,3.15327685546875,-0.0663525868296623,-0.0010912110364995,-0.0004843037850689,1761341790936276700,3.15327685546875,-0.0029954579658806,0.0014121457934379,-0.0013754675164818,Still,Still_7
1761341790946343700,3.16334375,-0.0665016399115323,-0.0057660527134314,0.0034226176927099,1761341790946343700,3.16334375,0.00268479809165,-0.001629184000194,0.002457620576024,Still,Still_7
1761341790956409600,3.17340966796875,-0.0723375064581632,-4.92094365879e-05,0.0086902787302155,1761341790956409600,3.17340966796875,-0.0013142679817974,-0.0005187345668673,-0.0011719702742993,Still,Still_7
1761341790966475800,3.183475830078125,-0.070090604314208,-0.0083862816818058,0.0083346154266502,1761341790966475800,3.183475830078125,-0.0021627508103847,9.56561416387e-05,0.0041434331797063,Still,Still_7
1761341790976541700,3.193541748046875,-0.0662047027915716,-0.0068006199255585,0.0110038300693267,1761341790976541700,3.193541748046875,-0.0014747800305485,-0.0027486253529787,0.0005719210021197,Still,Still_7
1761341790986608600,3.203608642578125,-0.0711456663250923,-0.003064045479428,0.0059075937757035,1761341790986608600,3.203608642578125,-0.0005450705066323,-0.0008167680352926,0.0020433175377547,Still,Still_7
1761341790996674800,3.2136748046875,-0.0579798952817916,-0.0029859204756096,0.0091362369660055,1761341790996674800,3.2136748046875,-0.0005155387334525,-0.0008414238691329,0.002834546379745,Still,Still_7
1761341791006740500,3.223740478515625,-0.0681581749469041,0.0032883374882861,0.0026919333645608,1761341791006740500,3.223740478515625,0.0010280292481184,-0.000712526962161,0.0014297291636466,Still,Still_7
1761341791016806700,3.233806640625,-0.0623240619659423,-0.0019019611638039,0.0060872383586596,1761341791016806700,3.233806640625,-0.0006297440268099,-5.94900920987e-05,-0.0011707348749041,Still,Still_7
1761341791026873600,3.24387353515625,-0.0650152007460594,-0.0050184126839041,0.0080745671178214,1761341791026873600,3.24387353515625,0.0021511288359761,0.0008654259145259,-2.4060718715e-06,Still,Still_7
1761341791036939500,3.253939453125,-0.0678565616518259,0.0021013927260413,0.007758811132959,1761341791036939500,3.253939453125,0.0014571566134691,0.0002786852419376,-0.0022098538465797,Still,Still_7
1761341791047005700,3.264005615234375,-0.064562780803442,-0.0030638445500284,0.0101183159390697,1761341791047005700,3.264005615234375,8.37645493447e-05,5.60451298952e-05,0.0002964469604194,Still,Still_7
1761341791057071600,3.274071533203125,-0.073839143192768,-0.003274089767225,0.0028074860356282,1761341791057071600,3.274071533203125,0.0008198260329663,-0.0015690196305513,-0.0033473372459411,Still,Still_7
1761341791067138600,3.284138671875,-0.0769768566966056,0.0007071070897392,0.0062296288043027,1761341791067138600,3.284138671875,-0.0002395794726908,0.0018078684806823,-0.0020482470281422,Still,Still_7
1761341791077204700,3.294204833984375,-0.0711333913654088,-0.0048583267513662,0.0073042585987597,1761341791077204700,3.294204833984375,-0.0005678716115653,0.002200917340815,-0.0018509100191295,Still,Still_7
1761341791087270700,3.304270751953125,-0.0632008448004722,0.0014901106935925,0.0097460896597709,1761341791087270700,3.304270751953125,0.0008137766271829,0.0002826424315571,0.0001696301624178,Still,Still_7
1761341791097336800,3.3143369140625,-0.0747235248118639,0.004471464591939,0.0052845802062656,1761341791097336800,3.3143369140625,-0.0013161092065274,0.0024569081142544,-0.0010366514325141,Still,Still_7
1761341791107403800,3.32440380859375,-0.0651449646055698,-0.0045972463960759,0.0071428711917018,1761341791107403800,3.32440380859375,-0.0007989234291017,0.0005298452451825,-0.0002683294005692,Still,Still_7
1761341791117469700,3.3344697265625,-0.0654419017255306,0.0003764138306491,0.0169590212798444,1761341791117469700,3.3344697265625,0.0008402122184634,0.0015718499198555,-0.0034191338345408,Still,Still_7
1761341791127535600,3.34453564453125,-0.0669365241974592,-0.0063154667571187,0.0051631503502605,1761341791127535600,3.34453564453125,0.000398926436901,0.0005689030513167,0.0019508642144501,Still,Still_7
1761341791137602600,3.3546025390625,-0.0631990912348031,-0.0042112427531741,0.0143317049835575,1761341791137602600,3.3546025390625,0.0004838658496737,8.56108963489e-05,-0.0006514308042824,Still,Still_7
1761341791147668500,3.36466845703125,-0.0721761784166097,-0.0056123417227528,0.0081411660806275,1761341791147668500,3.36466845703125,-0.0004256037063896,0.0004243655130267,0.0001706867478787,Still,Still_7
1761341791157734700,3.374734619140625,-0.0717278501272201,-0.0047119040179997,0.0032775694990996,1761341791157734700,3.374734619140625,-0.0009983135387301,-0.00061637442559,-0.0011191293597221,Still,Still_7
1761341791167800600,3.384800537109375,-0.0724748691022396,-0.008201974623464,0.0090782962336903,1761341791167800600,3.384800537109375,-0.0002672760747373,0.0008193356916308,-0.0003119250759482,Still,Still_7
1761341791177866800,3.39486669921875,-0.0661900897443294,-0.0089367734377272,0.0031431431642035,1761341791177866800,3.39486669921875,-0.001139102037996,-2.48588621616e-05,0.0014126552268862,Still,Still_7
1761341791187933700,3.40493359375,-0.0600567015558481,-0.0057038193984888,0.0060643506734166,1761341791187933700,3.40493359375,0.002051630988717,-0.0021007936447858,0.0002073086798191,Still,Still_7
1761341791197999600,3.41499951171875,-0.0636497576117515,-0.004004303737916,0.0099042393635492,1761341791197999600,3.41499951171875,0.0014124088920652,0.0014984011650085,-0.0005486677400767,Still,Still_7
1761341791208065800,3.425065673828125,-0.0666407561212778,-0.0052826713769696,0.0101845906748902,1761341791208065800,3.425065673828125,0.0003013382665812,-0.0012300070375204,-0.0026467060670256,Still,Still_7
1761341791218131700,3.435131591796875,-0.0705348409503698,0.0016029964835382,0.0139138403310906,1761341791218131700,3.435131591796875,0.000273541547358,0.0026729609817266,-0.0002184966579079,Still,Still_7
1761341791228198700,3.44519873046875,-0.0721843617230653,-0.0033673940738663,0.0072883121109567,1761341791228198700,3.44519873046875,-0.0010694903321564,0.0009339172393083,0.0014307992532849,Still,Still_7
1761341791238264600,3.4552646484375,-0.073982935577631,-0.0006952887877821,0.0098557742790551,1761341791238264600,3.4552646484375,-0.0004833894781768,0.0004095677286386,0.0001528533175587,Still,Still_7
1761341791248330500,3.46533056640625,-0.0627595307737588,0.0040746838266961,0.016050007542991,1761341791248330500,3.46533056640625,-0.0010794047266244,0.0013544578105211,-0.0002705892547965,Still,Still_7
1761341791258396700,3.475396728515625,-0.0678495473891496,-0.0125934145154431,0.0096125629405956,1761341791258396700,3.475396728515625,0.0013189609162509,-0.0018078349530696,0.0011680526658892,Still,Still_7
1761341791268463600,3.485463623046875,-0.0653033700376749,-0.0046107817310839,0.0021305594550212,1761341791268463600,3.485463623046875,-0.0006762794218957,0.0003439998254179,-0.0001773764379322,Still,Still_7
1761341791278529500,3.495529541015625,-0.0629115064650774,0.0018947825043462,0.002612397288368,1761341791278529500,3.495529541015625,-0.0001679114066064,0.000775808468461,0.0031184745021164,Still,Still_7
1761341791288595700,3.505595703125,-0.0617126520693302,-0.00388853187114,0.0065091307322727,1761341791288595700,3.505595703125,0.0018917773850262,0.0016264226287603,-0.0009079589508473,Still,Still_7
1761341791298662700,3.51566259765625,-0.0721866998106241,-0.0048609023009426,0.0036470466988859,1761341791298662700,3.51566259765625,-0.0001231939531862,0.0020205108448863,0.0002262699417769,Still,Still_7
1761341791308728600,3.525728515625,-0.0685918901890516,-0.0059701787170954,0.0113376970996148,1761341791308728600,3.525728515625,-0.0004275934770703,0.0016961377114057,-0.0020278291776776,Still,Still_7
1761341791318794800,3.535794677734375,-0.0630535452842712,-0.0069158072704449,0.0153956033214461,1761341791318794800,3.535794677734375,-0.0003189360722899,-0.0010250424966216,-0.0006641619838774,Still,Still_7
1761341791328860700,3.545860595703125,-0.0694873777240514,-0.0069659665551036,0.0045485438495641,1761341791328860700,3.545860595703125,0.000670694746077,0.0011646086350083,-0.0018279631622135,Still,Still_7
1761341791338926800,3.5559267578125,-0.0633516514480114,-0.0005587481276132,0.0056426911952439,1761341791338926800,3.5559267578125,5.80204650759e-05,0.0011813342571258,-0.0012023178860545,Still,Still_7
1761341791348993800,3.565993896484375,-0.0754740509182214,-0.0030407559353858,0.002444571007369,1761341791348993800,3.565993896484375,0.0015240903012454,-0.0001055048778653,0.0007409905083477,Still,Still_7
1761341791359059500,3.5760595703125,-0.0789151312828063,0.0012862221519462,0.0137826973652467,1761341791359059500,3.5760595703125,0.00138536747545,0.0016570715233683,0.001251270994544,Still,Still_7
1761341791369125600,3.586125732421875,-0.0648550417482852,0.0019521021821536,0.0115586692068027,1761341791369125600,3.586125732421875,0.0008993404917418,-0.000101413577795,0.0013527367264032,Still,Still_7
1761341791379192600,3.596192626953125,-0.071138652062416,0.0017531455439515,0.0069383889950113,1761341791379192600,3.596192626953125,-0.0004609334282577,-0.000362766906619,-0.000515878200531,Still,Still_7
1761341791389258500,3.606258544921875,-0.0718845019936561,-0.0025691015693359,0.0129613938778871,1761341791389258500,3.606258544921875,-0.0007080747745931,0.0014846678823232,-0.0037979579064995,Still,Still_7
1761341791399324700,3.61632470703125,-0.075471128308773,0.0008237192067317,0.0031973210368538,1761341791399324700,3.61632470703125,0.0009811553172767,9.7164884209e-06,-0.0021662334911525,Still,Still_7
1761341791409390600,3.626390625,-0.0726268447935581,-0.0025283859664574,0.0115691586347762,1761341791409390600,3.626390625,-0.0014503109268844,-0.0005394266918301,0.0003437958657741,Still,Still_7
1761341791419457800,3.636457763671875,-0.0667909782469272,-0.0037089009879156,0.00270187936984,1761341791419457800,3.636457763671875,0.000677699688822,-0.0015932451933622,-0.0005269292742013,Still,Still_7
1761341791429523700,3.646523681640625,-0.0606570055365562,-0.0006517784396186,-0.0054932179882656,1761341791429523700,3.646523681640625,-0.0007332433015108,-0.0001788409426808,-0.0006196070462465,Still,Still_7
1761341791439589600,3.656589599609375,-0.0557195491343736,0.0028110023001208,0.0021585525736445,1761341791439589600,3.656589599609375,0.0007503316737711,-0.0003226809203624,-0.0003628698177635,Still,Still_7
1761341791449655800,3.66665576171875,-0.070532502862811,-0.0032049883200787,-0.0005018074757186,1761341791449655800,3.66665576171875,-7.2319060564e-05,-0.0004585022106766,-0.003154395148158,Still,Still_7
1761341791459722800,3.67672265625,-0.0667868865936994,-0.0026629538652487,0.0072869375712005,1761341791459722800,3.67672265625,-0.0002506035380065,0.0003892835229635,-0.0007496215403079,Still,Still_7
1761341791469788700,3.68678857421875,-0.0572065728217363,-0.004009144309815,0.0083824731563683,1761341791469788700,3.68678857421875,-0.0021329261362552,-0.0004003439098596,-0.0014135474339127,Still,Still_7
1761341791479854600,3.6968544921875,-0.0681301178961992,-0.0051848187593743,0.012497214998817,1761341791479854600,3.6968544921875,-0.0033071511425077,-0.0008224295452237,-0.0009647314436733,Still,Still_7
1761341791489920500,3.70692041015625,-0.0642407092422246,-0.0022826127781532,0.0107445169794373,1761341791489920500,3.70692041015625,0.0001994329504668,0.0009674811735749,0.002283526584506,Still,Still_7
1761341791499987700,3.71698779296875,-0.0772568426817655,-0.0055259786135517,0.0040338175267679,1761341791499987700,3.71698779296875,-0.001559623517096,-0.0009587788954377,0.000639677979052,Still,Still_7
1761341791510053600,3.7270537109375,-0.0771066205561161,0.0014937822217121,0.0078261544478591,1761341791510053600,3.7270537109375,-0.001536720432341,0.0012806728482246,0.0006758971139788,Still,Still_7
1761341791520119600,3.73711962890625,-0.0712666623562574,-0.0037598274575546,0.0084090871686581,1761341791520119600,3.73711962890625,0.0005685747601091,0.0011558104306459,-0.0016459799371659,Still,Still_7
1761341791530185700,3.747185791015625,-0.0717161596894264,-0.0007775602437555,0.0146002379929414,1761341791530185700,3.747185791015625,0.0025318572297692,-2.1327286958e-06,-0.0002699242904782,Still,Still_7
1761341791540252700,3.757252685546875,-0.0697673637092113,-0.0047883850540034,0.006785184894409,1761341791540252700,3.757252685546875,-0.0010668169707059,-0.0001983093097805,-0.0020549339242279,Still,Still_7
1761341791550318600,3.767318603515625,-0.0700631317853927,-0.0093948011372238,0.0112192263856763,1761341791550318600,3.767318603515625,-1.72653235495e-05,-0.000849719159305,-0.0006221532821655,Still,Still_7
1761341791560384800,3.777384765625,-0.0741039316087961,-0.0078906984508968,0.0082057694491697,1761341791560384800,3.777384765625,-0.0006707957945764,-0.0016300939023494,-0.0004306761547923,Still,Still_7
1761341791570450700,3.78745068359375,-0.0706599286347627,-0.0027111038559116,0.0106484544601291,1761341791570450700,3.78745068359375,-0.0005277842283248,-0.0007339408621191,-0.0022299075499176,Still,Still_7
1761341791580518000,3.797517822265625,-0.0676689301252365,-0.0093547796540893,0.0158764045417541,1761341791580518000,3.797517822265625,0.0001494041644036,-0.0002784030511975,0.0020187022164463,Still,Still_7
1761341791590583600,3.80758349609375,-0.0625818361192941,-0.0039795346228405,0.0134060597723117,1761341791590583600,3.80758349609375,-0.0015238597989082,-0.0014235619455575,0.0011603655293583,Still,Still_7
1761341791600649500,3.8176494140625,-0.0745540134638547,-0.0040338403596542,0.012931217935332,1761341791600649500,3.8176494140625,-0.0021131131798028,0.000434641726315,0.0014392184093594,Still,Still_7
1761341791610715600,3.827715576171875,-0.0714075321316719,-0.0046594249120913,0.0114187584126135,1761341791610715600,3.827715576171875,0.0014118468388915,0.0014873892068862,-0.0016103670932352,Still,Still_7
1761341791620782600,3.837782470703125,-0.0672188482701778,0.0010662775246426,0.0120337485058,1761341791620782600,3.837782470703125,0.0002665198408067,-0.0022593019530177,-0.0008894582279026,Still,Still_7
1761341791630848800,3.847848876953125,-0.0697638565778732,-0.0059330981097184,0.0086955028946045,1761341791630848800,3.847848876953125,0.000690761487931,0.0025381157174706,-0.0020468677394092,Still,Still_7
1761341791640914700,3.857914794921875,-0.0732020143330097,-0.0004122157963924,0.0142429992202203,1761341791640914700,3.857914794921875,-0.0010158531367778,-0.0009443340823054,-0.0010004802606999,Still,Still_7
1761341791650980600,3.867980712890625,-0.0541974541336297,0.0007661438005976,0.0035173011056846,1761341791650980600,3.867980712890625,0.000674454960972,-3.61958518624e-05,-0.0022766669280827,Still,Still_7
1761341791661047800,3.8780478515625,-0.0603285042345523,-0.0033051972915418,0.0129308023768011,1761341791661047800,3.8780478515625,-0.0027342080138623,2.9262155294e-06,-0.0026687737554311,Still,Still_7
1761341791671113700,3.88811376953125,-0.0702016634732484,-0.0049143677875399,0.0149665916538797,1761341791671113700,3.88811376953125,0.0010315016843378,0.000426635146141,-6.10062852501e-05,Still,Still_7
1761341791681179600,3.8981796875,-0.0705044458121061,-0.006246949831862,0.0040822095460258,1761341791681179600,3.8981796875,0.0004039881750941,-0.0001818649470806,0.0014033960178494,Still,Still_7
1761341791691245600,3.90824560546875,-0.065120414686203,-0.009129044606816,0.0060004322914639,1761341791691245600,3.90824560546875,0.0016972189769148,0.0007840627804398,-0.0017191604711115,Still,Still_7
1761341791701312800,3.918312744140625,-0.0661702160000801,-0.0033464060847647,0.0040344340146984,1761341791701312800,3.918312744140625,-0.0010222950950264,0.0005952604115009,0.0013697654940187,Still,Still_7
1761341791711378700,3.928378662109375,-0.07978489985466,-0.0100314368066377,0.0035302427856484,1761341791711378700,3.928378662109375,-6.06277026236e-05,-0.0003368463367223,-0.0015200306661427,Still,Still_7
1761341791721444600,3.938444580078125,-0.0751437960505485,-0.0050176454989239,0.0037633117560064,1761341791721444600,3.938444580078125,0.0024432966019958,-0.0008487179875373,-0.000434476416558,Still,Still_7
1761341791731510500,3.948510498046875,-0.0709545276671648,-0.0040932423966936,0.0040961102072149,1761341791731510500,3.948510498046875,-0.0011280025355517,-2.79322266578e-05,0.0010824603959918,Still,Still_7
1761341791741577700,3.95857763671875,-0.0699076489627361,-0.0115495680183172,-0.0008162893855245,1761341791741577700,3.95857763671875,0.0009774602949619,-0.0024190135300159,-0.0016667391173541,Still,Still_7
1761341791751643600,3.9686435546875,-0.0714011023908853,-0.0041794593754224,0.0082529239259893,1761341791751643600,3.9686435546875,-0.00228251516819,-0.0012410972267389,-0.000609996728599,Still,Still_7
1761341791761709600,3.97870947265625,-0.0646650721341371,-0.0084564791074953,0.0048892196465516,1761341791761709600,3.97870947265625,0.001848654821515,0.0016754185780882,-0.0015521463938057,Still,Still_7
1761341791771775500,3.988775390625,-0.0716980395108461,-0.0072812978482805,0.0056933573699789,1761341791771775500,3.988775390625,0.0006648795679211,-0.001146201044321,0.0002100677229464,Still,Still_7
1761341791781841400,3.99884130859375,-0.0637678310334682,-0.004378269883152,0.0113689918535994,1761341791781841400,3.99884130859375,-0.0012311157770454,-0.0012400718405842,0.0013752430677413,Still,Still_7
1761341791791907600,4.008907470703125,-0.0631716187059879,-0.0064768861302174,0.0062428581786341,1761341791791907600,4.008907470703125,-0.0001322957687079,0.0011125644668936,-0.0002871020697057,Still,Still_7
1761341791801973500,4.018973388671875,-0.0682581281900405,-0.0036690073689445,0.0010722460411256,1761341791801973500,4.018973388671875,-0.0013303193263709,-0.0018529882654547,4.52157109975e-05,Still,Still_7
1761341791812040400,4.02904052734375,-0.0669072981029748,-0.002505041623488,0.011112126449123,1761341791812040400,4.02904052734375,0.0003312272019684,0.0004186881706118,-0.0026847906410694,Still,Still_7
1761341791822106600,4.039106689453125,-0.0740887340396642,-0.0034599859944544,0.0061981285543413,1761341791822106600,4.039106689453125,-0.0009970786049962,-4.27216291427e-05,-0.000324779190123,Still,Still_7
1761341791832172500,4.049172607421875,-0.066011810567975,-0.0025799700232222,0.0085040445762686,1761341791832172500,4.049172607421875,-0.0026173456571996,0.0004134783521294,0.0010321014560759,Still,Still_7
1761341791842239700,4.05923974609375,-0.0655634822785854,-0.0031642909835092,0.0070902550884755,1761341791842239700,4.05923974609375,-7.50343315303e-05,0.0001971600577235,0.0006099878810346,Still,Still_7
1761341791852305700,4.0693056640625,-0.0669137278437614,-0.010792940964736,0.0091137009072117,1761341791852305700,4.0693056640625,-0.0005722464993596,-0.0013823611661791,0.0011612619273364,Still,Still_7
1761341791862371300,4.079371337890625,-0.0705044458121061,-0.0081169814874418,0.0076980573890497,1761341791862371300,4.079371337890625,-8.57315026223e-05,3.4887343645e-05,-3.55830416083e-05,Still,Still_7
1761341791872437500,4.0894375,-0.0571831919461488,-0.0021297785703092,0.0014168034287868,1761341791872437500,4.0894375,0.0009299982339143,-0.0007129283621907,-0.0001892475411295,Still,Still_7
1761341791882503400,4.09950341796875,-0.069150693115592,0.0001171783725731,0.0176074478517519,1761341791882503400,4.09950341796875,0.0005968315526843,-0.0010569216683506,-0.0032814773730933,Still,Still_7
1761341791892570400,4.1095703125,-0.0586754763305187,-0.0045428493277169,0.0144976681010331,1761341791892570400,4.1095703125,0.0013204123824834,-0.0009179050102829,0.0016280603595077,Still,Still_7
1761341791902636500,4.119636474609375,-0.0691489395499229,-0.011330134847667,0.00553806177699,1761341791902636500,4.119636474609375,0.0025140973739326,0.0003773514181375,-0.000677962321788,Still,Still_7
1761341791912702500,4.129702392578125,-0.0686994422167539,0.0013776632950641,0.0106440751125337,1761341791912702500,4.129702392578125,-0.001228176523,-0.0002905698493123,0.0012688082642853,Still,Still_7
1761341791922769700,4.139769775390625,-0.0709451753169298,-0.0030501082856208,0.009973381909891,1761341791922769700,4.139769775390625,-0.000659906771034,0.0002156160771846,-0.0002422565594315,Still,Still_7
1761341791932835600,4.149835693359375,-0.0701999099075794,-0.0041208975885994,0.0183205143248196,1761341791932835600,4.149835693359375,-0.0007504541426897,0.001050516963005,-0.0007266858592629,Still,Still_7
1761341791942901500,4.159901611328125,-0.0707984603226184,0.0054389031182974,0.0089724703721934,1761341791942901500,4.159901611328125,-0.0005010548047721,0.0005175955593585,-2.17352062463e-05,Still,Still_7
1761341791952967700,4.1699677734375,-0.0678045392036438,-0.0028366847306489,0.0157274519245838,1761341791952967700,4.1699677734375,-0.0007756268605589,-0.0014166580513119,-0.0014830115251243,Still,Still_7
1761341791963034600,4.18003466796875,-0.0669067135810852,-0.0016235095486044,0.0071165768398204,1761341791963034600,4.18003466796875,-7.08890147507e-05,0.0006596259772777,0.0021413620561361,Still,Still_7
1761341791973100500,4.1901005859375,-0.0640630145877599,-0.0061238349088467,0.0069967087532393,1761341791973100500,4.1901005859375,-0.0008650436066091,-0.0012184353545308,-0.0008733356371521,Still,Still_7
1761341791983166500,4.20016650390625,-0.0700491032600402,-0.0032281499999575,0.0074717469530412,1761341791983166500,4.20016650390625,0.0020779450424015,0.0004809023812413,-0.0008513778448104,Still,Still_7
1761341791993232400,4.210232421875,-0.061668228405714,-0.0017837050789967,0.002653103758092,1761341791993232400,4.210232421875,-0.0006472673267126,-0.0003422815352678,0.0021896860562264,Still,Still_7
1761341792003298600,4.220298583984375,-0.0685521427005529,-0.0052114327716641,0.0075563108308007,1761341792003298600,4.220298583984375,-0.0013806326314806,0.0005069999024271,-0.0001103589311242,Still,Still_7
1761341792013365500,4.230365478515625,-0.0760346074104309,0.0011248210451565,0.0089565649835858,1761341792013365500,4.230365478515625,0.0011110207997262,-0.0016959672793745,-0.0004757447168231,Still,Still_7
1761341792023431400,4.240431396484375,-0.0666091919392347,-0.0043371158888563,0.0070499596107052,1761341792023431400,4.240431396484375,-0.0005924268625676,0.0001424774527549,0.0012313420884311,Still,Still_7
1761341792033497600,4.25049755859375,-0.0580833556562662,-0.0127292062569409,0.0066983011953998,1761341792033497600,4.25049755859375,-0.0016193417832255,-0.0006127944216132,0.0003991038538515,Still,Still_7
1761341792043564500,4.260564453125,-0.0658656800955534,-0.0134389071625657,0.0050209562674397,1761341792043564500,4.260564453125,-0.0023139072582125,0.0002174507826566,-0.0048687905073165,Still,Still_7
1761341792053630500,4.27063037109375,-0.0613747984170913,-0.0012651976302266,0.0036959045090246,1761341792053630500,4.27063037109375,0.0007974635809659,0.0011298498138785,6.92424364387e-05,Still,Still_7
1761341792063696600,4.280696533203125,-0.0694575671076774,-0.0011707790787331,0.0017259744092356,1761341792063696600,4.280696533203125,0.0002349601127207,-0.0006211381405591,0.0001439726911485,Still,Still_7
1761341792073762600,4.290762451171875,-0.0670621964037418,-0.0061258807354606,0.0066510964862303,1761341792073762600,4.290762451171875,-0.0005623903125524,-0.0021535204723477,-7.8277662396e-06,Still,Still_7
1761341792083829800,4.300829833984375,-0.0568880083918571,-0.0015888766266405,0.0037534936148906,1761341792083829800,4.300829833984375,-0.0009357426315546,0.0015109684318304,0.0022151567973196,Still,Still_7
1761341792093895400,4.3108955078125,-0.0657142889261245,-0.0030525559710338,0.0113681196373421,1761341792093895400,4.3108955078125,-0.0020753089338541,-0.0023719202727079,0.0005442895926535,Still,Still_7
1761341792103961300,4.32096142578125,-0.0682552055805921,-0.0004670695224776,0.003679305000673,1761341792103961300,4.32096142578125,0.0013481457717716,-0.0009645856916904,-0.0005896389484405,Still,Still_7
1761341792114027500,4.331027587890625,-0.0693020842850208,-0.0038825222554616,0.0063910070782061,1761341792114027500,4.331027587890625,0.0012208465486764,-0.0016785794869065,0.0001477906480431,Still,Still_7
1761341792124094500,4.341094482421875,-0.0646639030903577,-0.0026837409249506,0.008898683616775,1761341792124094500,4.341094482421875,0.0009216614998877,0.00034542940557,0.0017260112799704,Still,Still_7
1761341792134160600,4.35116064453125,-0.0715454792976379,-0.0094831370078027,0.0035074144659098,1761341792134160600,4.35116064453125,-0.0002338839694857,0.0004173340275883,-0.00349245313555,Still,Still_7
1761341792144226600,4.3612265625,-0.0673562109142541,-0.0076664247083477,0.0111552532047964,1761341792144226600,4.3612265625,0.0006410107016563,0.0026331003755331,0.0022731679491698,Still,Still_7
1761341792154292500,4.37129248046875,-0.0667617521524429,-0.0071987158650532,0.0080583786014234,1761341792154292500,4.37129248046875,-0.0002788449637591,-0.0021091904491186,0.0021690386347472,Still,Still_7
1761341792164359700,4.381359619140625,-0.0622714549958705,-0.0091839165992103,0.0089530532856704,1761341792164359700,4.381359619140625,0.000881222076714,-0.0008597671985626,-0.0010035200975835,Still,Still_7
1761341792174425600,4.391425537109375,-0.0603244125813245,-0.0042919981054961,0.0158887616998283,1761341792174425600,4.391425537109375,-1.2001954019e-05,0.0009519811719655,-0.0022815712727606,Still,Still_7
1761341792184492500,4.401492431640625,-0.0624170009464025,-0.005151117419172,0.0111899180928012,1761341792184492500,4.401492431640625,0.000332704745233,-0.0009850468486547,0.0003165039233863,Still,Still_7
1761341792194558700,4.411558837890625,-0.0651081397265195,-0.0023923750292509,0.0089250190678518,1761341792194558700,4.411558837890625,0.0019455146975815,-0.0012146113440394,-0.0010819220915436,Still,Still_7
1761341792204624600,4.421624755859375,-0.066597501501441,-0.0007707103778608,0.0184779836085857,1761341792204624600,4.421624755859375,-0.0008615003898739,0.00169572327286,-0.0025512692518532,Still,Still_7
1761341792214690600,4.431690673828125,-0.070931731313467,-0.0020344467033632,0.0040129756681388,1761341792214690600,4.431690673828125,0.002655203687027,-0.0022476194426417,-0.004811227787286,Still,Still_7
1761341792224757500,4.441757568359375,-0.0731681120634079,-0.0020806421989575,0.0102179129891796,1761341792224757500,4.441757568359375,-0.0007826839573681,-0.0013740668073296,-0.0030985251069068,Still,Still_7
1761341792234823400,4.451823486328125,-0.0650835898071527,-0.0005871705044992,0.0120586363518843,1761341792234823400,4.451823486328125,0.0011228076182305,-0.00026486068964,-0.0015869149938225,Still,Still_7
1761341792244889600,4.4618896484375,-0.0689735829830169,0.0006002126491628,0.0062708923964528,1761341792244889600,4.4618896484375,4.0074810385e-06,-0.0008631758391857,0.001777215860784,Still,Still_7
1761341792254955500,4.47195556640625,-0.06104162093997,-0.0039034189130179,0.0022252428679959,1761341792254955500,4.47195556640625,-0.0003256918862462,-0.0024051461368799,-0.0020593339577317,Still,Still_7
1761341792265022500,4.4820224609375,-0.0719663350582122,0.0014166253322735,0.0076799372104695,1761341792265022500,4.4820224609375,-0.0022532423026859,-0.0025091283023357,0.0003799200057983,Still,Still_7
1761341792275088600,4.492088623046875,-0.0757090287178754,0.0026753201564773,0.0092790521033341,1761341792275088600,4.492088623046875,-0.0014910451136529,0.0003577647730708,0.0004853811115026,Still,Still_7
1761341792285154600,4.502154541015625,-0.0665823039323091,-0.0016141389320604,0.0070115775288082,1761341792285154600,4.502154541015625,0.0002630823291838,0.0012205317616462,0.0022003897465765,Still,Still_7
1761341792295220700,4.512220703125,-0.0712234077364206,-0.0076499302312731,0.0056569982818095,1761341792295220700,4.512220703125,0.0012505822815001,0.0003534061834216,0.0005542892031371,Still,Still_7
1761341792305287700,4.52228759765625,-0.0710761082202196,-0.0054291123766452,0.0113872764289611,1761341792305287700,4.52228759765625,-0.002382333856076,-0.0012416010722517,-0.002324603497982,Still,Still_7
1761341792315353600,4.532353515625,-0.0688309596419334,-0.0023351101503707,0.0108113762371474,1761341792315353600,4.532353515625,0.0012448914349079,0.0014812145382165,0.0001055309548974,Still,Still_7
1761341792325419800,4.542419677734375,-0.06359656611979,-0.0073322425842285,0.0078572345727123,1761341792325419800,4.542419677734375,0.0019624638371169,0.0002565225586295,-0.0012394106015563,Still,Still_7
1761341792335485400,4.5524853515625,-0.062998015704751,-0.0010389328599907,0.0024770713377511,1761341792335485400,4.5524853515625,-0.0024650413542985,0.0001380117610096,0.0007105553522706,Still,Still_7
1761341792345552400,4.562552490234375,-0.0638981794148683,-0.0085894030384719,0.0094762323429808,1761341792345552400,4.562552490234375,0.0023801135830581,0.0014601629227399,-0.0003539617173373,Still,Still_7
1761341792355618600,4.57261865234375,-0.064797758603096,-0.0119561577915213,0.0044891555122565,1761341792355618600,4.57261865234375,-0.0007898472249507,1.43330544233e-05,-0.0026599932461977,Still,Still_7
1761341792365684500,4.5826845703125,-0.0680862787544727,-0.0027002354020252,0.0057801406042883,1761341792365684500,4.5826845703125,0.0007115649059414,-0.0009850552305579,-0.0032973093912005,Still,Still_7
1761341792375750700,4.592750732421875,-0.0752688837349414,-0.0041848296702839,0.0066100064240163,1761341792375750700,4.592750732421875,-0.0010618343949317,-0.0014449832960963,0.0012891869992017,Still,Still_7
1761341792385817600,4.602817626953125,-0.075568158942461,-0.0011915478721261,0.011814475165354,1761341792385817600,4.602817626953125,0.0019881087355315,-0.0003387294709682,-0.0001285364851355,Still,Still_7
1761341792395883500,4.612883544921875,-0.0710755236983299,-0.0052281829770654,0.0129164998568128,1761341792395883500,4.612883544921875,0.0042001302354037,-0.000723822042346,-0.0017959414981305,Still,Still_7
1761341792405949700,4.62294970703125,-0.05805763669312,-0.0071515705213882,0.0055744208651594,1761341792405949700,4.62294970703125,-6.42789527773e-05,4.01437282562e-05,0.0029938174411654,Still,Still_7
1761341792416015600,4.633015625,-0.0631482378304004,-0.0056501529824919,0.0083554207526613,1761341792416015600,4.633015625,-0.0003036968410015,-0.0010999552905559,0.001946928910911,Still,Still_7
1761341792426082600,4.64308251953125,-0.0680886168420314,-0.004508234672062,0.0141253048244165,1761341792426082600,4.64308251953125,-0.0001051272265613,0.0001592049375176,0.0016936683095991,Still,Still_7
1761341792436148700,4.653148681640625,-0.061207625156641,0.0015824103532359,0.0084683385086478,1761341792436148700,4.653148681640625,-0.0002033980563282,7.851049304e-05,0.0031584068201482,Still,Still_7
1761341792446214400,4.66321435546875,-0.0670469988346099,-0.0081468103701248,0.0116245101177832,1761341792446214400,4.66321435546875,7.55526125431e-05,-9.3474984169e-05,0.001127693336457,Still,Still_7
1761341792456280600,4.673280517578125,-0.0570218639045953,-0.0132021209983155,0.010286183319264,1761341792456280600,4.673280517578125,-0.0024387380108237,-0.0001283623278141,-0.0012766080908477,Still,Still_7
1761341792466347500,4.683347412109375,-0.0591185439229011,-0.0092296554370783,0.0149104866856243,1761341792466347500,4.683347412109375,-4.82974573969e-05,-7.05830752849e-05,-0.0018113190308213,Still,Still_7
1761341792476413400,4.693413330078125,-0.0703378570735454,-0.0009940890712663,0.016026078678132,1761341792476413400,4.693413330078125,0.0031578820198774,0.0008298316970467,0.0007184175774455,Still,Still_7
1761341792486479600,4.703479736328125,-0.0698912823498249,-0.0019370872761122,0.0167477029169909,1761341792486479600,4.703479736328125,-0.0006952271796762,0.0007308647036552,0.0007707616314291,Still,Still_7
1761341792496545500,4.713545654296875,-0.0522328760623931,-0.016203275575675,0.0081288089225534,1761341792496545500,4.713545654296875,-0.0013847197405993,-0.0028044814243912,0.0007039159536361,Still,Still_7
1761341792506612500,4.723612548828125,-0.0688438191235065,-0.0094365761860273,0.0142139512222493,1761341792506612500,4.723612548828125,2.58819200098e-05,0.0014640688896179,-0.003334027249366,Still,Still_7
1761341792516678700,4.7336787109375,-0.0731792179793119,-0.0052890645851381,0.0028406485197134,1761341792516678700,4.7336787109375,0.0001433272846043,-0.0004840334877371,-0.0011427784338593,Still,Still_7
1761341792526744600,4.74374462890625,-0.0667453855395317,-0.0057540334820747,0.0025076537056826,1761341792526744600,4.74374462890625,-0.000480109360069,0.000680080614984,0.0017665987834334,Still,Still_7
1761341792536810800,4.753810791015625,-0.0627063392817974,0.0002561849844641,0.0058441548843635,1761341792536810800,4.753810791015625,0.0008203121833503,0.0009280210360884,-0.0005687270313501,Still,Still_7
1761341792546877700,4.763877685546875,-0.0577723900109529,-0.0102031583780422,0.0091587182258721,1761341792546877700,4.763877685546875,-0.0010151113383471,-0.0014858515933156,0.002285067923367,Still,Still_7
1761341792556943600,4.773943603515625,-0.0685433748722076,-0.0085114424314349,0.0163611649845493,1761341792556943600,4.773943603515625,-0.0002076411619782,7.9153105616e-06,0.0003806417807936,Still,Still_7
1761341792567009500,4.784009521484375,-0.0648071109533309,-0.0065686743332073,0.0114081091544358,1761341792567009500,4.784009521484375,0.0023499578237533,0.0017958479002118,0.0023763654753565,Still,Still_7
1761341792577075500,4.794075439453125,-0.069896543046832,-0.0028572708609513,0.0096342130834003,1761341792577075500,4.794075439453125,-0.001363287679851,-0.0027509666979312,0.0007758056744933,Still,Still_7
1761341792587142400,4.804142333984375,-0.0657066901415586,-0.0053871729310601,0.0061136605747044,1761341792587142400,4.804142333984375,0.000173382461071,-6.91935420036e-05,0.0007756492123007,Still,Still_7
1761341792597208600,4.81420849609375,-0.0640612610220909,0.0003108560474589,0.0065156107054091,1761341792597208600,4.81420849609375,0.0004436932504177,0.0008357483893632,-0.0007415539585053,Still,Still_7
1761341792607274500,4.8242744140625,-0.0752799896508455,-0.0037525209339335,0.0079903959657065,1761341792607274500,4.8242744140625,-0.0022062249481678,0.0006853565573692,0.0005738511681556,Still,Still_7
1761341792617340700,4.834340576171875,-0.0679471625447273,-0.003334039793536,0.0048046283693285,1761341792617340700,4.834340576171875,-0.0003577251918613,-0.0009879078716039,-0.0050089336000382,Still,Still_7
1761341792627407600,4.84440771484375,-0.0633043051749467,-0.0075522785430774,0.0058460134813096,1761341792627407600,4.84440771484375,0.0012428294867277,-0.0001437366008758,0.0019533024169504,Still,Still_7
1761341792637473500,4.8544736328125,-0.066148004168272,-0.0013789967356249,0.0087896246185759,1761341792637473500,4.8544736328125,0.0024473771918565,0.0014363173395395,-0.0001508616842329,Still,Still_7
1761341792647539700,4.864539794921875,-0.0790139154821634,0.0041585627178661,0.0068497836963739,1761341792647539700,4.864539794921875,-0.0004054266028106,0.0013412106782197,-0.0007457537576556,Still,Still_7
1761341792657605600,4.874605712890625,-0.0707832627534866,-0.0040861368024721,0.0082706102797295,1761341792657605600,4.874605712890625,-0.0001846505329012,-0.0030988119542598,0.0017661401070654,Still,Still_7
1761341792667672600,4.884672607421875,-0.0665928253263235,-0.0058635217385366,0.0149987129583489,1761341792667672600,4.884672607421875,-0.0006021987646818,-0.0032732719555497,0.0018552369438111,Still,Still_7
1761341792677738800,4.89473876953125,-0.0630044454455375,-0.0019758849165402,0.014262480238825,1761341792677738800,4.89473876953125,-0.000845612026751,-0.0023110723122954,-0.0008422788232564,Still,Still_7
1761341792687804400,4.904804443359375,-0.0673398443013429,-0.0116953331645578,0.0112178701122291,1761341792687804400,4.904804443359375,-0.0003839838318526,-0.000669989734888,-0.0005794870667159,Still,Still_7
1761341792697870600,4.91487060546875,-0.0694382778853178,-0.0066218840914778,0.0234269888846669,1761341792697870600,4.91487060546875,0.000444259494543,0.0008211145177483,0.0011579594574868,Still,Still_7
1761341792707937500,4.9249375,-0.0662970572501421,-0.003577657557372,0.0064227995891124,1761341792707937500,4.9249375,-0.0007403129711747,0.0008829506114125,0.0029561277478933,Still,Still_7
1761341792718003000,4.9350029296875,-0.0683960753560066,0.0009484415649436,0.0019391011366853,1761341792718003000,4.9350029296875,-0.0008657481521368,-0.0005008280277252,0.0003707306459546,Still,Still_7
1761341792728068900,4.94506884765625,-0.0582213028222322,-7.10924748331e-05,0.0077376267810352,1761341792728068900,4.94506884765625,-0.000539219006896,-0.0004219142720103,-0.0010916572064161,Still,Still_7
1761341792738134800,4.955134765625,-0.069143094331026,-0.0103207934083417,0.0141142719737486,1761341792738134800,4.955134765625,0.0001678504049777,-0.0021044993773102,-0.0004506343975663,Still,Still_7
1761341792748201700,4.96520166015625,-0.0662999798595905,-0.0071576166696846,0.012065623215097,1761341792748201700,4.96520166015625,-0.0018413728103041,0.001077078282833,5.50555996596e-05,Still,Still_7
1761341792758268000,4.975267822265625,-0.0733335317581892,-0.0093861429067328,0.010961981955287,1761341792758268000,4.975267822265625,0.0034173054154962,0.0015282174572348,0.002492647152394,Still,Still_7
1761341792768333800,4.985333740234375,-0.0688467417329549,-0.0010794657997786,0.0003953742594458,1761341792768333800,4.985333740234375,-0.0014362912625074,0.0004527857527136,0.0016193725168704,Still,Still_7
1761341792778400000,4.99539990234375,-0.0728875415563583,-0.002583714616578,0.0118049584183376,1761341792778400000,4.99539990234375,0.0022274195216596,0.0010932758450508,-0.000429396983236,Still,Still_7
1761341792788467000,5.005467041015625,-0.0657061056196689,-0.0040287805920466,0.0052079987055622,1761341792788467000,5.005467041015625,-0.0009324331767857,-0.0004361122846603,-9.43690538406e-05,Still,Still_7
1761341792798532900,5.015532958984375,-0.0622632716894149,-0.0045479090953245,0.0078123633845243,1761341792798532900,5.015532958984375,-0.0008815671317279,-0.0006116144359111,0.0002830009907484,Still,Still_7
1761341792808599000,5.02559912109375,-0.0679512541979551,-0.0001203384440392,0.0130830200967146,1761341792808599000,5.02559912109375,-0.0031825276091694,-0.0010762671008706,0.0018768771551549,Still,Still_7
1761341792818665000,5.0356650390625,-0.0669002838402986,-0.0011673450126312,0.0078454619365278,1761341792818665000,5.0356650390625,-3.2540410757e-05,0.0021581416949629,-0.0015713842585682,Still,Still_7
1761341792828732000,5.04573193359375,-0.0589683217972517,0.0007353468035347,0.0032127423682715,1761341792828732000,5.04573193359375,0.0001771822571754,-0.0010551894083619,-0.0014146757312119,Still,Still_7
1761341792838797800,5.0557978515625,-0.0616617986649274,0.0031735337358899,0.0140761456201784,1761341792838797800,5.0557978515625,-0.0008779624477028,-0.0030879797413945,0.0011025443673133,Still,Still_7
1761341792848863700,5.06586376953125,-0.0636076720356941,-0.0041048963018693,0.0058461322123184,1761341792848863700,5.06586376953125,-0.0001044091768562,0.0002071661874651,8.7930355221e-05,Still,Still_7
1761341792858930000,5.075929931640625,-0.0779711284309625,-0.0065815155484713,0.0041015490007353,1761341792858930000,5.075929931640625,-0.0005105412565171,-0.0002359841018915,-0.002262043301016,Still,Still_7
1761341792868996900,5.085996826171875,-0.0706406394124031,-0.0154950359747745,0.0096230615017237,1761341792868996900,5.085996826171875,0.0021452759392559,-0.0012870701029896,0.0003283857367932,Still,Still_7
1761341792879062800,5.096062744140625,-0.0576215833634138,-0.0044786432513967,0.010972133456543,1761341792879062800,5.096062744140625,0.0001265997998416,-0.000387187115848,0.0007792594842612,Still,Still_7
1761341792889129000,5.10612890625,-0.0606131663948297,0.0002614091488532,0.0135230920144123,1761341792889129000,5.10612890625,0.0002731438726186,-0.0011064363643527,-0.0015116324648261,Still,Still_7
1761341792899195000,5.11619482421875,-0.0667483081489801,-0.0016979264916852,0.0027158622294198,1761341792899195000,5.11619482421875,0.0012361425906419,0.0009838789701461,0.0005294140428304,Still,Still_7
1761341792909261800,5.12626171875,-0.0665986705452203,-0.002754924731329,0.0006784563839901,1761341792909261800,5.12626171875,0.001479567028582,0.0012311860918998,-0.0002394584007561,Still,Still_7
1761341792919328000,5.136327880859375,-0.0722790542691945,-0.000344173795171,0.0057233643491752,1761341792919328000,5.136327880859375,0.0015368247404694,0.0009424993768334,-0.0019785026088356,Still,Still_7
1761341792929394000,5.146393798828125,-0.0598573795914649,-0.0053937488023191,0.0108303275327896,1761341792929394000,5.146393798828125,0.0029023347888141,-0.0004188204184174,-0.0015282523818314,Still,Still_7
1761341792939460000,5.156460205078125,-0.0676373659431934,0.0059226315146312,0.003736323284381,1761341792939460000,5.156460205078125,0.0008058943785727,0.0003249999135732,-0.0004744394682347,Still,Still_7
1761341792949527000,5.166527099609375,-0.0653922173649072,-0.0052069392596371,0.0024342094435589,1761341792949527000,5.166527099609375,0.0015605669468641,0.0019257757812738,0.0014704745262861,Still,Still_7
1761341792959592700,5.1765927734375,-0.0718272188484668,-0.0054989992750808,0.0191184643360553,1761341792959592700,5.1765927734375,-0.0003662300296127,-0.0016322070732712,-0.0022323848679661,Still,Still_7
1761341792969659000,5.186658935546875,-0.0664402651131153,-0.0089156027855351,0.0091772402632515,1761341792969659000,5.186658935546875,0.0004758397117257,3.01385298371e-05,0.000814295373857,Still,Still_7
1761341792979724800,5.196724853515625,-0.0673363371700048,0.0010295987760648,0.0087388397128321,1761341792979724800,5.196724853515625,-0.0002429471351206,-0.0005975682288408,-0.0022081262432038,Still,Still_7
1761341792989791700,5.206791748046875,-0.0641921939253807,-0.0075432184537872,0.0060220778676914,1761341792989791700,5.206791748046875,0.0007606879808008,-0.0010813502594828,0.0009426367469131,Still,Still_7
1761341792999858000,5.21685791015625,-0.0567085601717233,-0.0067131243051961,0.0127890786514384,1761341792999858000,5.21685791015625,0.0005870498716831,-0.0004302076995372,-0.0007551279850304,Still,Still_7
1761341793009923800,5.226923828125,-0.0653869566679,-0.0040826479374431,0.0144168122840113,1761341793009923800,5.226923828125,0.0001105112023651,0.0020175632089376,0.0020791455172002,Still,Still_7
1761341793019990000,5.236989990234375,-0.0664361734598875,-0.0029785591530613,0.0127853340580826,1761341793019990000,5.236989990234375,-0.001340645365417,0.001438857987523,-0.0013273037038743,Still,Still_7
1761341793030057000,5.247056884765625,-0.0728746820747852,-0.0068656662520952,0.0084013376870425,1761341793030057000,5.247056884765625,-0.0006127809174358,-0.0003703599795699,0.0004889704287052,Still,Still_7
1761341793040123000,5.257122802734375,-0.0764683226525783,-0.0059983453656546,0.011302059530653,1761341793040123000,5.257122802734375,0.0017515732906758,0.0001537501811981,-0.0011150515638291,Still,Still_7
1761341793050189000,5.26718896484375,-0.0661450815588235,5.03236814402e-05,0.0085573547992389,1761341793050189000,5.26718896484375,0.0001597572118043,0.0011568237096071,0.0006328779272735,Still,Still_7
1761341793060254700,5.277254638671875,-0.0715361269474029,-0.0033811120719648,0.0041452054793713,1761341793060254700,5.277254638671875,-0.0006098966114223,-0.0010320283472537,0.002493096049875,Still,Still_7
1761341793070322000,5.287322021484375,-0.0680956311047077,-0.0057385071193799,0.0087177649587625,1761341793070322000,5.287322021484375,-0.0020659640431404,0.0020478125661611,0.001348229125142,Still,Still_7
1761341793080387800,5.297387939453125,-0.0606149199604988,-0.0025600597463548,0.011015963465115,1761341793080387800,5.297387939453125,-0.0026747630909085,-0.0005996357649564,-0.0019426392391324,Still,Still_7
1761341793090453800,5.307453857421875,-0.0692927319347858,-0.0027586875909939,0.0070179890032857,1761341793090453800,5.307453857421875,0.0009494740515947,-0.0003875605762004,0.0016183285042643,Still,Still_7
1761341793100520000,5.31752001953125,-0.0688479107767343,-0.0075180109472945,0.0113676127472659,1761341793100520000,5.31752001953125,0.0012461501173675,0.0013533476740121,0.0004444075748324,Still,Still_7
1761341793110587000,5.3275869140625,-0.0615162527143955,-0.004382416335307,0.0043279507682891,1761341793110587000,5.3275869140625,-0.0002556666731834,-0.0012296279892325,-0.0017793104052543,Still,Still_7
1761341793120652800,5.33765283203125,-0.0719903004556894,-0.0023203509726561,0.0141535856374073,1761341793120652800,5.33765283203125,-0.0013116099871695,-0.0002679601311683,0.0025778878480196,Still,Still_7
1761341793130719000,5.347718994140625,-0.0630167204052209,-0.0030188911634497,0.0188892678232165,1761341793130719000,5.347718994140625,-0.0004057013429701,5.1138922572e-06,0.0017987168394029,Still,Still_7
1761341793140785000,5.357784912109375,-0.0637678310334682,-0.0079876742856577,0.0063602740132249,1761341793140785000,5.357784912109375,0.0006723459810018,-0.0016252733767032,0.0026064538396894,Still,Still_7
1761341793150851800,5.367851806640625,-0.0589770896255969,-0.0074809120736084,0.0087518772909184,1761341793150851800,5.367851806640625,-0.0004423600621521,-0.0005629677325487,-0.0020452667959034,Still,Still_7
1761341793160918000,5.37791796875,-0.0698994656562805,-0.0107131902594119,0.0061909407617291,1761341793160918000,5.37791796875,0.0010482114739716,0.0010213470086455,-0.0010793386027216,Still,Still_7
1761341793170984000,5.38798388671875,-0.067802201116085,-0.0078197886391542,0.0059185581277124,1761341793170984000,5.38798388671875,-0.0016092606820166,0.0002354560419917,-0.0021681101061403,Still,Still_7
1761341793181049900,5.3980498046875,-0.0621124650418758,-0.0096432960055768,0.0095688105638371,1761341793181049900,5.3980498046875,8.3977356553e-05,0.0010964553803205,-0.0017699678428471,Still,Still_7
1761341793191116800,5.40811669921875,-0.0694417850166559,-0.0041278022534213,0.003992677232204,1761341793191116800,5.40811669921875,-0.0015566814690828,0.0005522239953279,-0.0009707380086183,Still,Still_7
1761341793201182700,5.4181826171875,-0.068544543915987,-0.0068090224277228,0.0078502477094996,1761341793201182700,5.4181826171875,0.0003392226062715,-0.0003726910799741,0.0008167759515345,Still,Still_7
1761341793211249000,5.428248779296875,-0.070786185362935,-0.0058777329269796,0.003335428033024,1761341793211249000,5.428248779296875,0.000257093925029,0.0005227634683251,-0.0014238432049751,Still,Still_7
1761341793221314800,5.438314697265625,-0.0739309131294488,-0.0042997795531526,0.0042322216091211,1761341793221314800,5.438314697265625,0.0009388630278408,-0.0014162845909595,0.0010313247330486,Still,Still_7
1761341793231382000,5.448382080078125,-0.0622597645580768,-0.0078320087999105,0.0119987639573868,1761341793231382000,5.448382080078125,0.0012720362283289,-0.0005893884226679,-0.0005220607854425,Still,Still_7
1761341793241448000,5.458447998046875,-0.0680944620609283,-0.0141804097122512,0.0174185513832606,1761341793241448000,5.458447998046875,-0.001719492021948,0.0009256843477487,-0.0006863777525722,Still,Still_7
1761341793251513900,5.468513916015625,-0.0670452452689409,-0.0052571350769139,0.0107646190525498,1761341793251513900,5.468513916015625,-0.0007461663335561,-0.0013061324134469,-0.0017158170230686,Still,Still_7
1761341793261580000,5.478580078125,-0.0640542467594146,-0.0037075675473548,0.0078927899432834,1761341793261580000,5.478580078125,0.0008658450096845,0.0029503982514142,-0.0004718545824289,Still,Still_7
1761341793271647000,5.48864697265625,-0.0636076720356941,-0.003795665955916,0.0019749944339739,1761341793271647000,5.48864697265625,-0.001740388572216,0.0005829110741615,-0.0002058544196188,Still,Still_7
1761341793281713000,5.498712890625,-0.0639057781994342,-0.0053076048888266,-0.0059214670374291,1761341793281713000,5.498712890625,0.0013126591220498,-0.0002336138859391,-0.0013267789036035,Still,Still_7
1761341793291779000,5.508779052734375,-0.0677969404190778,-0.0061977038626559,0.0085518657733686,1761341793291779000,5.508779052734375,-0.0023382813669741,0.0004357248544692,0.0013739834539592,Still,Still_7
1761341793301844700,5.5188447265625,-0.0668950231432914,-0.015329232687503,0.0096763351920759,1761341793301844700,5.5188447265625,-0.0016301469877362,0.0005475776270031,-0.0014598863199353,Still,Still_7
1761341793311912000,5.528911865234375,-0.0589653991878032,-0.0093303210662677,0.0036953473865985,1761341793311912000,5.528911865234375,0.0006557484157383,0.0005531897768378,0.0014639375731348,Still,Still_7
1761341793321977900,5.538977783203125,-0.0709387455761432,-0.0018946729064919,0.006467889973009,1761341793321977900,5.538977783203125,0.0007897056639194,0.0012924829497933,-0.0007203873246908,Still,Still_7
1761341793332043800,5.549043701171875,-0.0673462740421295,0.0010241554159671,0.0083927296889014,1761341793332043800,5.549043701171875,0.0013925470411777,-0.0007245121523737,0.0019054478034377,Still,Still_7
1761341793342110000,5.55910986328125,-0.0603133066654205,-0.0031144970250315,0.0101891298526898,1761341793342110000,5.55910986328125,0.0008966661989688,-0.0020494349300861,0.0005400450900197,Still,Still_7
1761341793352177000,5.569177001953125,-0.0630056144893169,-0.0112227289504371,0.0112482332844519,1761341793352177000,5.569177001953125,0.000158417969942,-0.0004181489348411,-0.000989087857306,Still,Still_7
1761341793362242800,5.579242919921875,-0.0652519321113824,-3.84323142468e-05,0.0026626616043038,1761341793362242800,5.579242919921875,-0.0013968679122626,0.000225537456572,0.0013201395049691,Still,Still_7
1761341793372309000,5.58930908203125,-0.0701899730354547,-0.00289181245137,0.0041662984997499,1761341793372309000,5.58930908203125,0.0016273390501737,-0.0030133724212646,-0.0023228749632835,Still,Still_7
1761341793382375000,5.599375,-0.0691395871996879,-0.0089591314000077,0.0077520891312276,1761341793382375000,5.599375,-0.0016851006075739,0.0001904107630252,-0.0010474869050085,Still,Still_7
1761341793392442000,5.609442138671875,-0.0776706841796636,-0.0021960304732434,0.0095323555775452,1761341793392442000,5.609442138671875,0.0006290809251368,0.0030798427760601,1.55339948832e-05,Still,Still_7
1761341793402508000,5.619508056640625,-0.0713859048217535,-0.0015015088704414,0.0073710402246564,1761341793402508000,5.619508056640625,0.0008687656372785,-0.0005503119900822,-0.0003208233974874,Still,Still_7
1761341793412573700,5.62957373046875,-0.0639022710680961,-0.0147462999667041,0.0055765625898959,1761341793412573700,5.62957373046875,-0.0006930069066584,0.0019330624490976,-0.0003972775302827,Still,Still_7
1761341793422639900,5.639639892578125,-0.0703372725516557,-0.0052969190980307,0.0111963660998968,1761341793422639900,5.639639892578125,-0.0013622590340673,-0.0002219676971435,-0.0013674674555659,Still,Still_7
1761341793432706800,5.649706787109375,-0.0674929890364408,0.0045329307219013,0.0020958763007074,1761341793432706800,5.649706787109375,0.0005567711777985,-0.0005475664511322,0.0001982608810067,Still,Still_7
1761341793442773000,5.65977294921875,-0.0686883363008499,-0.0070540101647377,0.0099180943589657,1761341793442773000,5.65977294921875,-0.0001809247769415,0.0011856192722916,-0.0013490356504917,Still,Still_7
1761341793452839000,5.6698388671875,-0.0739274059981107,-0.0059399845082312,0.002978015730367,1761341793452839000,5.6698388671875,0.0005965735763311,-0.0002705138176679,0.0008459780365228,Still,Still_7
1761341793462904800,5.67990478515625,-0.0630056144893169,-0.0070909263753332,0.005342749267444,1761341793462904800,5.67990478515625,-0.0007043806836009,0.0004211096093058,-7.84057192504e-05,Still,Still_7
1761341793472972000,5.689971923828125,-0.0659977820426225,-0.0068046567798592,0.0085973899821052,1761341793472972000,5.689971923828125,0.0008138106204569,-0.0006316322833299,-0.0005334229208528,Still,Still_7
1761341793483038000,5.700037841796875,-0.0643570290982723,-0.0056787762887775,0.004429561678972,1761341793483038000,5.700037841796875,-0.0015707840211689,-0.0003943443298339,0.0003395616076886,Still,Still_7
1761341793493103900,5.710103759765625,-0.0668979457527399,-0.0029549408154562,0.0060826946142828,1761341793493103900,5.710103759765625,0.0014670230448246,0.0018776031211018,-0.0011380342766642,Still,Still_7
1761341793503170000,5.720170166015625,-0.0601654226273298,-0.0116179753457196,0.0010163100362289,1761341793503170000,5.720170166015625,0.0018606381490826,0.0016504349187016,-0.0010032784193754,Still,Still_7
1761341793513237000,5.730237060546875,-0.0773714089721441,-0.0060460569649003,0.0038233668135944,1761341793513237000,5.730237060546875,0.0024915789254009,0.0009300783276557,0.0004036109894514,Still,Still_7
1761341793523303000,5.740302978515625,-0.0639063627213239,0.0049954701997339,0.0090864384409505,1761341793523303000,5.740302978515625,-0.0014975699596107,-0.0016633085906505,-0.0013492819853127,Still,Still_7
1761341793533368800,5.750368896484375,-0.0698906978279352,-0.0019422383752651,0.0037112071094335,1761341793533368800,5.750368896484375,0.0022010712418705,0.0001202002167701,0.0007427069358527,Still,Still_7
1761341793543434800,5.760434814453125,-0.0712380207836627,-0.0039104514420032,0.0029221527907066,1761341793543434800,5.760434814453125,-0.0002066926099359,0.0019721621647477,0.0026892111636698,Still,Still_7
1761341793553502000,5.770501953125,-0.0607639730423688,-0.0037499453843571,0.0138294180172262,1761341793553502000,5.770501953125,0.0007196627557277,0.0005883025005459,-0.0019620014354586,Still,Still_7
1761341793563567900,5.78056787109375,-0.0652542701989412,-0.0020423194825649,0.0102229818899417,1761341793563567900,5.78056787109375,0.001356691122055,-0.001563798636198,0.0013480414636433,Still,Still_7
1761341793573633800,5.7906337890625,-0.0654033232808113,-0.0028358262141235,0.0058429904071614,1761341793573633800,5.7906337890625,-0.0024584862403571,0.0003129616379737,0.0016887984238564,Still,Still_7
1761341793583700000,5.800699951171875,-0.0677992785066366,-0.0004922222300432,0.0098114876127569,1761341793583700000,5.800699951171875,-0.0009399512782692,0.0004868665710091,0.0010509709827601,Still,Still_7
1761341793593766000,5.810765869140625,-0.0716921942919492,-0.0078806337146088,0.0043649309109663,1761341793593766000,5.810765869140625,0.001159984152764,0.0025586541742086,0.0015798285603523,Still,Still_7
1761341793603833000,5.8208330078125,-0.0658545741796493,-0.0027319457145407,0.013319377002702,1761341793603833000,5.8208330078125,-0.0013497788459062,-0.0036795334890484,-0.0023411437869071,Still,Still_7
1761341793613899000,5.83089892578125,-0.0680979691922664,-0.0018612090283073,0.0115130034341709,1761341793613899000,5.83089892578125,-0.0014942865818738,0.0008770283311605,0.0001434218138456,Still,Still_7
1761341793623965000,5.84096484375,-0.0637555560737848,-0.0078564673877321,0.0060498335242969,1761341793623965000,5.84096484375,-0.0004287557676434,0.0018970193341374,-0.000184413511306,Still,Still_7
1761341793634030800,5.85103076171875,-0.0624058950304985,-0.0050252625497989,0.0058127550991019,1761341793634030800,5.85103076171875,-0.000265042297542,-0.0010377243161201,-0.001335178501904,Still,Still_7
1761341793644097800,5.861097900390625,-0.0670434917032718,-0.0013208550739102,0.0112156598888337,1761341793644097800,5.861097900390625,-0.0008903527632355,0.001706663519144,-0.000208927784115,Still,Still_7
1761341793654163700,5.871163818359375,-0.0667459700614213,-0.0021631145843304,0.0162822727957507,1761341793654163700,5.871163818359375,0.0014157844707369,0.0016692355275154,0.0022063856013119,Still,Still_7
1761341793664230000,5.88122998046875,-0.0673451049983501,-0.0076615110712125,0.0056370332060148,1761341793664230000,5.88122998046875,-0.0016844016499817,0.0018644453957676,-0.0001856656745076,Still,Still_7
1761341793674296800,5.891296875,-0.0676414575964212,-0.0051030039611272,0.0093467653109924,1761341793674296800,5.891296875,0.0013532009907066,0.0002737706527113,-0.0025509283877909,Still,Still_7
1761341793684363000,5.901363037109375,-0.0664402651131153,-0.0040904293850995,0.0102276808979455,1761341793684363000,5.901363037109375,-0.0023307497613132,-0.0002785688266158,-0.00027392571792,Still,Still_7
1761341793694429000,5.911428955078125,-0.0736263772249221,-0.0060493266342207,0.0031312609301647,1761341793694429000,5.911428955078125,-0.0002068714238703,-0.0005650222301483,0.0011299736797809,Still,Still_7
1761341793704494800,5.921494873046875,-0.0715291126847267,-0.0098830047792755,0.0077876034026034,1761341793704494800,5.921494873046875,0.0009630555287003,-0.0007695527747273,-0.0024170908145606,Still,Still_7
1761341793714561800,5.931561767578125,-0.0727250444710254,-0.0075516209559515,0.0046554337235633,1761341793714561800,5.931561767578125,4.99407760798e-05,-9.85134392976e-05,0.0004415279254317,Still,Still_7
1761341793724628700,5.941628662109375,-0.06240297242105,-0.00235980620021,0.0050466843637404,1761341793724628700,5.941628662109375,0.0008736564777791,-0.0008812164887785,0.0021685883402824,Still,Still_7
1761341793734694400,5.9516943359375,-0.0667442164957523,-0.0036481289776973,0.0041790666497778,1761341793734694400,5.9516943359375,-0.0002728649415075,0.0013123322278261,-0.0010229195468127,Still,Still_7
1761341793744760600,5.961760498046875,-0.0677922642439603,-0.0072376961685717,0.0052553358454722,1761341793744760600,5.961760498046875,0.0005194256082177,0.0001045884564518,-0.0014668684452772,Still,Still_7
