time,seconds_elapsed,z,y,x
1761336279200208100,0.0832080078125,0.44427696817219253,1.0077674680069089,0.20019670139104126
1761336279210274300,0.0932744140625,0.15256021320819854,1.227536008091271,0.1096270804107189
1761336279220341200,0.10334130859375,-0.09151859226822853,1.512349121146649,0.08134425812587141
1761336279230407200,0.1134072265625,-0.10674831010401248,1.734877042941749,0.12119140760675072
1761336279240474000,0.12347412109375,-0.1021679965764284,1.742863073259592,0.29102015100196005
1761336279250540300,0.133540283203125,-0.21909224825799464,1.4821785854190588,0.42386312569677825
1761336279260607200,0.143607177734375,-0.4319342039495706,1.1197416960656643,0.47625601462647316
1761336279270673200,0.153673095703125,-0.6272048471152782,0.8011699596628546,0.4539185106121003
1761336279280740400,0.163740234375,-0.8937848227351903,0.5837323467440902,0.4376999278694391
1761336279290806300,0.17380615234375,-1.1533172179311513,0.5223629551544785,0.5280795792356133
1761336279300873200,0.183873291015625,-1.271667118501663,0.6505420296914876,0.7538546662583947
1761336279310939400,0.193939453125,-1.3485451909989117,0.8110244142010807,0.9607897359937428
1761336279321006300,0.20400634765625,-1.5105658909916877,0.7637379084996878,1.1559937436640262
1761336279331072300,0.214072265625,-1.786051057600975,0.49806664522252975,1.3341874336920678
1761336279341139200,0.22413916015625,-2.044178846696019,0.2057576234538108,1.3450246156573296
1761336279351205400,0.234205322265625,-2.1546236732304096,0.02265577618330717,1.148381953486055
1761336279361272300,0.244272216796875,-2.077894653815031,0.0374924030482769,0.9598602000586688
1761336279371338200,0.254338134765625,-1.8250789996534584,0.131342580069229,0.9343144015222787
1761336279381405400,0.264405517578125,-1.5156260969907045,0.04489588423781097,0.9648186992488801
1761336279391472400,0.274472412109375,-1.2557722147554158,-0.24810385974142699,0.9983081502661109
1761336279401537500,0.28453759765625,-1.1866624381721018,-0.6173633981890976,0.9850412569358944
1761336279411603700,0.294603759765625,-1.4297089779913426,-0.9684449999872594,0.8729149070553481
1761336279421670700,0.304670654296875,-1.8469407028496265,-1.0779580255642534,0.6684184626437724
1761336279431736800,0.31473681640625,-2.3218793512672184,-0.9664349022738635,0.47774318444430824
1761336279441803800,0.3248037109375,-2.7418413778722286,-0.875900937128812,0.3398646998003125
1761336279451870700,0.33487060546875,-2.93268485224545,-0.9565870236068963,0.3272520325951278
1761336279461936600,0.3449365234375,-2.839768668138981,-1.0677693706355988,0.32293475391790266
1761336279472003600,0.355003662109375,-2.633048994719982,-1.0773442775800823,0.17808453056514262
1761336279482069800,0.36506982421875,-2.2249656219571827,-1.0400037040926515,0.015648673900216816
1761336279492136700,0.37513671875,-1.7359096008598804,-0.9252836844570934,0.010103460863232612
1761336279502202600,0.38520263671875,-1.2512719807267187,-0.8647554198667406,-0.009003829058259725
1761336279512269800,0.395269775390625,-0.7521762116521596,-1.035641198034212,-0.03216726250275969
1761336279522335500,0.40533544921875,-0.378532868629694,-1.2995790616475045,-0.1162590657711029
1761336279532402400,0.41540234375,-0.02545943542718887,-1.3865652711831031,-0.20253157407939432
1761336279542468600,0.425468505859375,0.08958324029147624,-1.2577160422995686,-0.02096636179164052
1761336279552535600,0.43553564453125,-0.14517887078523636,-1.1093970468576997,0.3451644136436283
1761336279562601500,0.4456015625,-0.6326005686789751,-1.0414198545008897,0.76358476376459
1761336279572668700,0.455668701171875,-1.2187789934009312,-0.9967985494207591,1.0022606872841715
1761336279582734600,0.465734619140625,-1.560869844818115,-0.973594564770162,1.0595860641799866
1761336279592801500,0.475801513671875,-1.6265250970333813,-0.9271781929668038,0.9343624784477055
1761336279602867700,0.48586767578125,-1.4360013561338185,-0.8000435859814286,0.6760055567719042
1761336279612934700,0.4959345703125,-1.092540969929099,-0.6662932141181082,0.4259121671810746
1761336279623000600,0.50600048828125,-0.619713614577055,-0.555140421977453,0.30083748840019103
1761336279633067500,0.516067626953125,-0.2689905438929796,-0.4910245081586763,0.2834447473116219
1761336279643133700,0.5261337890625,-0.17487082921564578,-0.6731099814608693,0.2716450039245188
1761336279653200600,0.53620068359375,-0.07280337040424346,-0.9849008255518972,0.2684809869356453
1761336279663266600,0.5462666015625,0.05025894564092159,-1.1633609114311634,0.07442775673568248
1761336279673333800,0.556333740234375,0.20381986032426355,-1.1990529139939694,-0.27178163591623306
1761336279683399700,0.566399658203125,0.39118542945384976,-1.1437094316303729,-0.45321825338825583
1761336279693466600,0.576466552734375,0.3229085965633392,-1.054668335391581,-0.4401519971966743
1761336279703532800,0.58653271484375,0.13278408411443232,-1.0544417600940912,-0.3120814976006746
1761336279713599700,0.596599853515625,-0.02889116344153881,-1.0426103794597088,-0.17761340592205524
1761336279723665700,0.606665771484375,-0.23351532588601112,-0.9821097335286438,-0.16513035644590854
1761336279733732600,0.616732666015625,-0.39791502996981143,-0.8488200379796326,-0.21591069561243056
1761336279743798800,0.626798828125,-0.4769441430211067,-0.717732674780488,-0.22830329032614827
1761336279753865700,0.63686572265625,-0.47345980803668497,-0.5868295090418308,-0.19140563830062746
1761336279763931400,0.646931396484375,-0.47990357734858985,-0.48819761416967955,-0.16759864625558257
1761336279773998800,0.656998779296875,-0.5853109942376613,-0.4820362785283476,-0.24093670805841683
1761336279784064500,0.667064453125,-0.5555272658705711,-0.4872482410229742,-0.24579671531021594
1761336279794131500,0.67713134765625,-0.48343759669363495,-0.47911724927648897,-0.3047464785374701
1761336279804197600,0.68719775390625,-0.3264414468646049,-0.5690457228090614,-0.43941856835559007
1761336279814264600,0.6972646484375,-0.146214643573761,-0.5999509294867515,-0.7805024346873164
1761336279824330500,0.70733056640625,-0.34592122336030007,-0.5119219328999519,-1.015359822832048
1761336279834397400,0.7173974609375,-0.3026069822907448,-0.21363475003708152,-1.0887582365199924
1761336279844463600,0.727463623046875,-0.12147709268033503,-0.3017956659078598,-1.3355528768263756
1761336279854530600,0.737530517578125,-0.22474399040937423,-0.4611720619369298,-1.6839609485663474
1761336279864596500,0.747596435546875,-0.3762783677011728,-0.29207294799052175,-1.9872977064363657
1761336279874663700,0.75766357421875,-0.33327976845204826,0.02849083901233971,-1.915494452985376
1761336279884729600,0.7677294921875,-0.15997195076942444,0.12382464218717068,-1.6364816967718303
1761336279894796500,0.777796630859375,0.011350246053934096,-0.004146890546381473,-1.1758027521140872
1761336279904862700,0.78786279296875,0.21786358324587343,-0.13483107977211475,-0.6163162272237241
1761336279914929700,0.7979296875,0.37571781120896336,-0.21333116398062557,-0.2831855118535459
1761336279924995600,0.80799560546875,0.3557137185782194,-0.13794099195357412,-0.11945625437721609
1761336279935062500,0.8180625,0.26037352219522,-0.003204568194970488,0.03321531025096774
1761336279945128700,0.828128662109375,0.20144611693024633,0.07157463232688606,0.21204656753018497
1761336279955195600,0.838195556640625,0.16057108570635317,0.09036091013308614,0.3644419455654919
1761336279965261800,0.84826171875,0.18005320028960703,-0.005344502833113074,0.5208265393674373
1761336279975328800,0.858328857421875,0.19616846878826616,-0.10688081390988081,0.6209120305813849
1761336279985394700,0.868394775390625,0.2065320418924093,-0.10330587803255765,0.6389741953641176
1761336279995461600,0.878461669921875,0.17635376124978064,-0.07637198613863438,0.6457322913222014
1761336280005527800,0.88852783203125,0.07062602636516094,-0.08360716155655681,0.595467500462383
1761336280015594800,0.8985947265625,-0.09955459920763969,-0.1081836766693741,0.530968140283972
1761336280025660400,0.908660400390625,-0.34516251394748687,-0.1784443768534809,0.4227420127123594
1761336280035727600,0.9187275390625,-0.45242637235820293,-0.21077026398405432,0.26811741432026026
1761336280045793500,0.92879345703125,-0.4072270481944084,-0.10905147247985005,0.11648235313296318
1761336280055860500,0.938860595703125,-0.35494974846839905,-0.03880348564684391,0.08530717040747404
1761336280065926700,0.9489267578125,-0.3465098369032144,-0.004784603928029537,0.13556962317973376
1761336280075993600,0.95899365234375,-0.4080021242201328,-0.029264599863812326,0.11632365543991327
1761336280086059500,0.9690595703125,-0.4373030375063419,-0.09316336380057036,0.038693741662055255
1761336280096126500,0.97912646484375,-0.3996142351031303,-0.10129757041744887,-0.03794058520719409
1761336280106192600,0.989192626953125,-0.31034137593507766,-0.08491663671992719,-0.0779004743475467
1761336280116259600,0.999259521484375,-0.19920447548329828,-0.09377148576155304,-0.054010041802749036
1761336280126325500,1.009325439453125,-0.10569207904934882,-0.0942775355875492,-0.03718881699182093
1761336280136392700,1.019392822265625,-0.00008241758644580841,-0.06917283188216387,-0.0393522786360234
1761336280146458600,1.029458740234375,0.12902794645130633,-0.06094225221872329,-0.0735549924891442
1761336280156525600,1.039525634765625,0.1849269438058138,-0.09000533816106616,-0.06918320714570582
1761336280166591700,1.049591796875,0.19230945527255533,-0.10645721820294857,-0.061270680455490945
1761336280176658700,1.05965869140625,0.16375731452703474,-0.12931070891544222,-0.0780058344181627
1761336280186724600,1.069724609375,0.12204583247900008,-0.1372198746047914,-0.06601926322206854
1761336280196791600,1.07979150390625,0.05484159725606441,-0.16278525462448595,-0.08562471192404628
1761336280206857700,1.089857666015625,0.07128653610050678,-0.20036219415105877,-0.10816248775087296
1761336280216924700,1.099924560546875,0.05858896709084511,-0.24393311339542267,-0.12939239584952592
1761336280226990600,1.109990478515625,0.019085808742046354,-0.267522955558449,-0.1366102913390845
1761336280237057800,1.120057861328125,-0.05505845487713813,-0.22547617714144289,-0.145626176161319
1761336280247123700,1.130123779296875,-0.12481062101721763,-0.20435221363529563,-0.12040193772949277
1761336280257190700,1.140190673828125,-0.21511925297379492,-0.16855799280703065,-0.02397935293726623
1761336280267256800,1.1502568359375,-0.3566033608943224,-0.14059475786536932,0.08182736546769738
1761336280277323800,1.16032373046875,-0.45066813051402566,-0.1269781012494117,0.17291421525515616
1761336280287389400,1.170389404296875,-0.5373942278087139,-0.16556969771124422,0.13849924689084292
1761336280297456600,1.18045654296875,-0.4794114099174738,-0.18071729022152722,0.05400193156152963
1761336280307522600,1.1905224609375,-0.24480361261963843,-0.15906820686273276,-0.015824834184721113
1761336280317589500,1.200589599609375,0.04058393932282924,-0.1729254673015326,-0.050529579275846476
1761336280327655700,1.21065576171875,0.23282734362185,-0.16782887481488287,-0.045526875617727634
1761336280337722600,1.22072265625,0.22170272301733493,-0.14459822135306893,0.017257862662523982
1761336280347788500,1.23078857421875,0.06653788026869296,-0.13824980217441915,0.05096643632315099
1761336280357855500,1.24085546875,-0.04951952545046806,-0.14353300327435134,0.07650901998914778
1761336280367921700,1.250921630859375,-0.15069383481442927,-0.17608575796335935,0.028300357941538092
1761336280377988600,1.260988525390625,-0.2749222720295191,-0.21407398170456288,-0.029514629102125763
1761336280388054500,1.271054443359375,-0.324046660682559,-0.24411394985504448,-0.061105772217363116
1761336280398122200,1.281122314453125,-0.314676774790883,-0.23128208694122732,-0.10309431764110923
1761336280408188400,1.2911884765625,-0.23985914195477961,-0.27083514884635806,-0.133843091648072
1761336280418255400,1.30125537109375,-0.1494984875500202,-0.3210636993490159,-0.10916172792129218
1761336280428321300,1.3113212890625,-0.05632920546531677,-0.33516222119778394,-0.09053191931843757
1761336280438388200,1.32138818359375,0.032141105148196215,-0.3038233723431825,-0.09746544490866363
1761336280448454400,1.331454345703125,0.04874035777151584,-0.25801307667419315,-0.11077296251021325
1761336280458521300,1.341521240234375,-0.0242687643378973,-0.20507007958106696,-0.0870703076224774
1761336280468587500,1.35158740234375,-0.01254910044968128,-0.1861739481922239,0.004729439674690365
1761336280478654500,1.361654541015625,0.10240180533230304,-0.21792824597992003,0.04829100656881928
1761336280488720100,1.37172021484375,0.20662673443853855,-0.2542709675364196,0.025904621911421417
1761336280498787300,1.381787353515625,0.23278759613335132,-0.27694274500645694,0.028048282876610754
1761336280508853200,1.391853271484375,0.0989922891497612,-0.2940070578582585,0.003137786569073796
1761336280518920200,1.401920166015625,-0.08572714938521385,-0.31073483223207293,-0.01724091152772307
1761336280528986000,1.411986083984375,-0.16748364157378673,-0.26219686516486107,0.030480770720541474
1761336280539053300,1.42205322265625,-0.21637012981772422,-0.23583120161294935,0.10481734204143285
1761336280549119200,1.432119140625,-0.2440682840824127,-0.1784131779976189,0.14698387438058852
1761336280559186200,1.442186279296875,-0.24893150620460508,-0.10554076094515621,0.143213342865929
1761336280569252400,1.45225244140625,-0.16834639588296413,-0.10177797434553504,0.09732852065600454
1761336280579319300,1.4623193359375,-0.028407179316878316,-0.09673186993710696,0.07401895673908293
1761336280589385200,1.47238525390625,0.08373977496027946,-0.11482077659629285,0.10809424482025205
1761336280599452200,1.4824521484375,0.10756079553067684,-0.15656418815255163,0.14138568904735146
1761336280609518300,1.492518310546875,0.06857377001047134,-0.1473814223308116,0.14847418600358067
1761336280619585300,1.502585205078125,0.011876315754652023,-0.1277260700725019,0.12261786021329461
1761336280629651200,1.512651123046875,0.04390285461246967,-0.12004106852784752,0.12188574654646217
1761336280639718400,1.522718505859375,0.08828209456503391,-0.14148955128062515,0.18851400851234792
1761336280649784300,1.532784423828125,0.14508359371721744,-0.19908947080150247,0.2373511046566069
1761336280659851300,1.542851318359375,0.06554127044677734,-0.20113142495788633,0.24410430524386464
1761336280669917400,1.55291748046875,-0.11421791533231734,-0.19186810471322385,0.21948782344684004
1761336280679984400,1.562984375,-0.2677086873888969,-0.17827818997371941,0.255359347295016
1761336280690050300,1.57305029296875,-0.3184527861982584,-0.17434136198144404,0.3493573352888226
1761336280700117200,1.5831171875,-0.3616132980108261,-0.23372151598259805,-0.02336151329986751
1761336280710183400,1.593183349609375,-0.34382980403900143,-0.2251650288330391,-0.17502506992928682
1761336280720250400,1.60325048828125,-0.10109481438696384,-0.1750966007955372,-0.17503661423660813
1761336280730316300,1.61331640625,0.013857844960689545,-0.1591089772645384,-0.12496990323215722
1761336280740383500,1.623383544921875,0.039590836632251734,-0.1593297804083675,-0.04647665062323213
1761336280750449200,1.63344921875,-0.037705753538012504,-0.1298919794021174,-0.07086027351245283
1761336280760516400,1.643516357421875,-0.20437340255379677,-0.10059559616055339,-0.1402795544363558
1761336280770582300,1.653582275390625,-0.3530950605124235,-0.1002716614358127,-0.14478570674918592
1761336280780649200,1.663649169921875,-0.40684886253178115,-0.12106935212966054,-0.09116495652496814
1761336280790715100,1.673715087890625,-0.3338818259984255,-0.15742573688533157,-0.03134557085633278
1761336280800782000,1.683781982421875,-0.2341132917791605,-0.18645327659025787,0.014587912800908088
1761336280810848300,1.69384814453125,-0.11159750370085239,-0.16014409246593714,0.018207710733264684
1761336280820915200,1.703915283203125,-0.015791443371772764,-0.13359233175739646,0.021502295299246906
1761336280830981400,1.7139814453125,-0.006048632514476775,-0.12538210076224057,0.07978679955080151
1761336280841048300,1.72404833984375,-0.05273030419051647,-0.07736592907942831,0.1702750989232212
1761336280851114200,1.7341142578125,-0.00006663549542427062,-0.04323522101659327,0.2563089031048119
1761336280861181200,1.74418115234375,0.027425182542204857,-0.020997852908447384,0.2776849416758865
1761336280871247400,1.754247314453125,-0.030936405533552168,-0.01780837268475443,0.21472163195833563
1761336280881314300,1.764314208984375,-0.06150923845171928,-0.04818385639991611,0.13964198718518017
1761336280891380200,1.774380126953125,-0.031098318096995353,-0.08169270623736083,0.046890711316838855
1761336280901447400,1.784447509765625,0.07729659017026425,-0.05931830427870154,-0.037845454269647597
1761336280911513300,1.794513427734375,0.22148820348381995,0.01727207385096699,-0.05838588226679712
1761336280921580300,1.804580322265625,0.35617139921784396,0.030712460584565997,-0.046056781243346626
1761336280931646500,1.814646484375,0.4381488406807184,0.0062578182857483625,-0.11580094674006104
1761336280941713400,1.82471337890625,0.4144020543903112,-0.05140066302195191,-0.1690354375930503
1761336280951779300,1.834779296875,0.21652561264038084,-0.10662694874666631,-0.15040877079535275
1761336280961846300,1.84484619140625,0.04161795854568481,-0.11871595740392804,-0.03817304225619882
1761336280971912400,1.854912353515625,-0.05013561152219772,-0.11023412465946748,0.04953311558440327
1761336280981979400,1.8649794921875,-0.045052609169483185,-0.12016432958133517,0.07946169578228145
1761336280992045300,1.87504541015625,-0.02614975577890873,-0.141905036746338,0.07167323386315257
1761336281002112500,1.885112548828125,-0.1077495961010456,-0.0916645948764868,0.07301025462057441
1761336281012178200,1.89517822265625,-0.1817015520185232,-0.032343550651427355,0.12918090852331368
1761336281022245400,1.905245361328125,-0.18388240318894386,0.010377071906533092,0.12851619753688573
1761336281032311300,1.915311279296875,-0.07623743650615215,-0.01785212049493566,0.12459982781074941
1761336281042378200,1.925378173828125,0.13375146784186362,-0.15013130556084214,0.1589872323147021
1761336281052444200,1.935444091796875,0.27730361420810223,-0.28694506531646474,0.18540866290815172
1761336281062511000,1.945510986328125,0.23734628235101699,-0.3619518457828089,0.22837679395377636
1761336281072577300,1.955577392578125,0.06037409694194793,-0.279848750379961,0.3537026710167527
1761336281082644200,1.965644287109375,-0.20059972923398017,-0.13514750704383477,0.4585282694298774
1761336281092710100,1.975710205078125,-0.3733417297273874,-0.0679106299266219,0.4208888591263443
1761336281102777300,1.98577734375,-0.4147434151738882,-0.1011687564060092,0.2860558979243971
1761336281112843300,1.99584326171875,-0.32591771525144575,-0.19934898025421424,0.1417283558720257
1761336281122910200,2.00591015625,-0.16410978122651576,-0.22211678371094165,0.060559810506086796
1761336281132976400,2.015976318359375,-0.08799567883908749,-0.19981886278828606,0.1210775902350433
1761336281143043300,2.026043212890625,-0.18001345280110834,-0.20849402614776044,0.2777627196198329
1761336281153109200,2.036109130859375,-0.28522037868201733,-0.16317191585451363,0.3740119571391493
1761336281163176200,2.04617626953125,-0.37631051640510554,-0.0794809119394049,0.3233432616535574
1761336281173242400,2.056242431640625,-0.3791781807959079,0.025932532831653952,0.22648911704365163
1761336281183309300,2.066309326171875,-0.24819208601415155,0.08280850372584536,0.09308112887721508
1761336281193375200,2.076375244140625,-0.0750111095815897,0.09115441686464473,-0.058858628044812934
1761336281203442400,2.0864423828125,0.01640519135594368,0.03791879350049421,-0.13482163609033448
1761336281213508400,2.09650830078125,0.017379004824161527,0.05078114288412034,-0.133429460212728
1761336281223575300,2.1065751953125,-0.037191374275088306,0.12607026568949223,-0.027244197668822016
1761336281233641500,2.116641357421875,-0.13560966292917728,0.1533113603690639,-0.0003076571600860916
1761336281243708400,2.12670849609375,-0.1511415785819292,0.0659214471370913,-0.12234074203865603
1761336281253774300,2.1367744140625,-0.19389643220305441,0.04744050895301625,-0.09662778850812465
1761336281263841300,2.14684130859375,-0.28944647194445133,0.13084842161042615,-0.10143016555486246
1761336281273907200,2.1569072265625,-0.3405167339682579,0.1759456919055432,-0.058658150736382225
1761336281283974100,2.16697412109375,-0.33023090227544305,0.28146825960688293,-0.01701423119895626
1761336281294040300,2.177040283203125,-0.21032149730324745,0.3434164009325206,0.0034853670308832075
1761336281304107300,2.187107177734375,0.03499532553553581,0.3087639340179041,0.004539798854105174
1761336281314173200,2.197173095703125,0.2962619971781969,0.2869954437968321,-0.007570307390112429
1761336281324240100,2.207240234375,0.6073346099972724,0.23207093576397744,-0.015050963735394178
1761336281334306300,2.217306396484375,0.7099240468561648,0.10600414067320525,0.021733510239236056
1761336281344373200,2.227373291015625,0.5988298165023327,0.06329580220808274,0.032609380247071384
1761336281354439200,2.237439208984375,0.5177957933694124,0.09348842190331778,0.07743652836391701
1761336281364506400,2.24750634765625,0.3507067040711641,0.05641568273894954,0.12968900417592374
1761336281374572300,2.257572265625,0.22578093224167822,-0.08453509005643427,0.18028160221800207
1761336281384639200,2.26763916015625,0.13987550368010998,-0.2506094128215685,0.17599358616787938
1761336281394704400,2.277704345703125,0.04363806619644165,-0.33105632024891674,0.11286330411927774
1761336281404771300,2.287771240234375,-0.023306641307473182,-0.3686850264953449,0.025969869167357683
1761336281414837200,2.297837158203125,-0.05332651651799678,-0.3758014343718067,-0.050072775419056414
1761336281424904400,2.307904541015625,-0.03682897070348263,-0.40096579584255815,-0.03669160805940628
1761336281434970400,2.317970458984375,-0.040647652208805084,-0.39162557443678375,0.06433072561323643
1761336281445037300,2.328037353515625,-0.14000994371473788,-0.3413349915485829,0.1950723075820133
1761336281455103500,2.338103515625,-0.25385668764710423,-0.30513410788187756,0.2959297695491463
1761336281465170400,2.34817041015625,-0.38112230060100555,-0.28641079404298214,0.33383126485496756
1761336281475236400,2.358236328125,-0.5116477921336889,-0.28007110616005954,0.2841415339367464
1761336281485303300,2.36830322265625,-0.6217004044800997,-0.3217282276723534,0.16874628192074595
1761336281495369500,2.378369384765625,-0.7043442008972167,-0.2945628468438051,0.12678670686315743
1761336281505436400,2.3884365234375,-0.6427940459132194,-0.11739669149890541,0.3068637629523873
1761336281515502300,2.39850244140625,-0.4408814805150032,-0.08207030737809837,0.35744832381848246
1761336281525569500,2.408569580078125,-0.15879004750847817,-0.0523568129693158,0.2677518689434975
1761336281535635500,2.418635498046875,0.05217910004854202,-0.05017014397946186,0.1589097648980096
1761336281545702400,2.428702392578125,0.16219897916913031,-0.05130850949278101,0.08372370060831308
1761336281555768600,2.4387685546875,0.1782861906170845,-0.05087353387530893,0.02538483582101762
1761336281565835500,2.44883544921875,0.14985796851217745,-0.07693009494543075,0.0025841712743043897
1761336281575901200,2.458901123046875,0.11898352229893207,-0.08579281676625833,-0.017728000924922525
1761336281585968000,2.468968017578125,0.05413315672576427,-0.05762985800141468,-0.0291733048511669
1761336281596034300,2.479034423828125,-0.08294365614652634,-0.006857830005511641,0.02274988420754671
1761336281606101200,2.489101318359375,-0.2816039417505264,0.07393367134211584,0.11913820140399038
1761336281616167400,2.49916748046875,-0.3551169217288494,0.1456325876357965,0.22954689717907456
1761336281626234400,2.509234375,-0.28913550629913803,0.13640059411115943,0.2010043645121157
1761336281636300300,2.51930029296875,-0.12019172904491424,0.027075236593373117,0.03636117052864283
1761336281646366500,2.529366455078125,0.01976736126542091,0.013700900833308697,-0.07915438339877873
1761336281656433400,2.539433349609375,0.1787210749030113,0.021740022178413344,-0.11915632158257067
1761336281666499300,2.549499267578125,0.2085235079705715,0.029347437575366345,-0.05798055286891758
1761336281676566300,2.559566162109375,0.17220891653001308,0.07878231694968417,0.031658472730405625
1761336281686632400,2.569632568359375,0.059899465167522425,0.19951193399727343,0.10664663982782513
1761336281696699400,2.579699462890625,-0.09865034384429454,0.2666268652352504,0.13957031018845736
1761336281706765300,2.589765380859375,-0.21167875713109968,0.2069065012279898,0.162431765011698
1761336281716832500,2.59983251953125,-0.2609779178291559,0.10818654447989538,0.1197107771275565
1761336281726898400,2.6098984375,-0.32116847489774225,0.0824752166508697,0.030843466553092003
1761336281736965400,2.61996533203125,-0.39755613352954383,0.10560679365238174,-0.04747581772841513
1761336281747031600,2.630031494140625,-0.37406186069548125,0.0865660478947684,-0.15055596071369945
1761336281757098500,2.640098388671875,-0.2796966468244791,0.06860290477341041,-0.2856726890267804
1761336281767164400,2.650164306640625,-0.22426409793794153,0.09784887300198897,-0.3650117082774639
1761336281777231400,2.6602314453125,-0.1810650076806545,0.09444118345035239,-0.3564179578574374
1761336281787297500,2.670297607421875,-0.12248831554949283,0.10849845997327938,-0.2998277999009937
1761336281797364500,2.680364501953125,-0.06782032129466534,0.07065932584656402,-0.2616429576091468
1761336281807430100,2.69043017578125,-0.052664837738871574,0.015016294280812144,-0.23252193093448875
1761336281817497600,2.70049755859375,-0.06781856772899628,0.0010495455855503678,-0.2230135133549571
1761336281827563300,2.710563232421875,-0.03596621639430523,0.06064669420509599,-0.23403832684680817
1761336281837630200,2.720630126953125,0.08234218312203884,0.1360486662677955,-0.23480112791284918
1761336281847696400,2.7306962890625,0.2544733582407236,0.16687541001494974,-0.23406937957219778
1761336281857763300,2.740763427734375,0.29898294657468794,0.11258782991245388,-0.24104173933546988
1761336281867829200,2.750829345703125,0.22442776406705378,0.012619279609061777,-0.19816026365999131
1761336281877896200,2.760896240234375,0.12388123121261596,-0.028875180421117693,-0.11026285756360739
1761336281887962400,2.77096240234375,0.04285480686426162,-0.0030737814221531152,-0.05951488629672676
1761336281898029300,2.781029296875,-0.10074234768748283,0.02284797428715974,0.0010363938430324195
1761336281908095200,2.79109521484375,-0.22171792058646678,0.02897473180545494,0.08831336648613214
1761336281918162400,2.801162353515625,-0.2537561498820782,0.035755313589982685,0.07308741151001304
1761336281928228400,2.811228271484375,-0.24728549256324767,0.05382122296607122,-0.021899806716851888
1761336281938295300,2.82129541015625,-0.18528057954907418,0.061551378826703876,-0.11167002094779163
1761336281948361500,2.831361572265625,-0.15736498314142225,0.011864259990677237,-0.2039375684197992
1761336281958428400,2.841428466796875,-0.20701018079817293,0.011290423891786486,-0.17506240626499056
1761336281968494300,2.851494384765625,-0.25667992837429043,0.04015961296353489,-0.05919953673724085
1761336281978561300,2.861561279296875,-0.2517670218914747,0.0999215876228176,0.0928510464483872
1761336281988627500,2.87162744140625,-0.21275895358324048,0.12283100977363064,0.1509680486459285
1761336281998694400,2.8816943359375,-0.1488099207639694,0.136150217812974,0.1740425616979599
1761336282008760600,2.891760498046875,-0.08943009555637836,0.15061592900631948,0.16277243167553096
1761336282018827500,2.90182763671875,-0.059523033070564266,0.14834177352925762,0.1417944525113329
1761336282028893400,2.9118935546875,-0.008766074779629707,0.1451979225455783,0.08076846753191202
1761336282038960400,2.92196044921875,0.07823650136888027,0.13288763582045213,0.02362958965152502
1761336282049026600,2.932026611328125,0.07615268083214759,0.08399917481513694,0.01153301874231547
1761336282059093500,2.942093505859375,0.06411036086082458,0.022203520637471226,0.09348817530814557
1761336282069159200,2.9521591796875,0.013348141872882842,0.012838749312330037,0.1486059591570869
1761336282079226400,2.962226318359375,0.02233282783925533,0.037086909253615886,0.11880922517795114
1761336282089292300,2.972292236328125,-0.025241993284225463,0.03888732800539583,0.04274148268289864
1761336282099359200,2.982359130859375,-0.15047639267146587,0.07164700344335287,0.014582725169137119
1761336282109425400,2.99242529296875,-0.2488525957494974,0.10651265645092353,0.08026453659776597
1761336282119492400,3.002492431640625,-0.3532505433350801,0.07647654249165206,0.17383761371038853
1761336282129558300,3.012558349609375,-0.4605307683587074,0.025287896518874912,0.10390311327334492
1761336282139625200,3.022625244140625,-0.4470855958521366,0.12492478544879704,-0.003975442969612777
1761336282149691400,3.03269140625,-0.35702246308922764,0.12949638594696297,-0.20810520949326455
1761336282159758300,3.04275830078125,-0.1089870289415121,0.13078615176286548,-0.27958102108817545
1761336282169824300,3.05282421875,0.08726970265209674,0.07969420763021334,-0.2865939320575446
1761336282179891500,3.062891357421875,0.21320903543829917,0.12006477819699793,-0.22056261307150124
1761336282189957400,3.072957275390625,0.29189328057467934,0.12483201086511835,-0.19531499376408754
1761336282200024300,3.0830244140625,0.24942425815761088,0.1222420309045352,-0.16111571397706864
1761336282210090500,3.093090576171875,0.18190555015802382,0.07997707969220355,-0.13206804479956627
1761336282220157400,3.103157470703125,0.06408288833200931,0.04818434959026053,-0.05026986889373511
1761336282230223400,3.113223388671875,-0.012984569257497787,0.015393365698587149,-0.044931540073081845
1761336282240290300,3.123290283203125,-0.06045885261595249,-0.013790515345521271,-0.05386990267969668
1761336282250356500,3.1333564453125,-0.11677344503402709,-0.03692868648460135,-0.057852834836021064
1761336282260423400,3.14342333984375,-0.16089900248646735,-0.04973537842454388,-0.11488982324451208
1761336282270489300,3.1534892578125,-0.17081483182311058,-0.04270414634719491,-0.21625961864795534
1761336282280556500,3.163556640625,-0.1390729551255703,-0.04392753239599988,-0.2684916909927502
1761336282290622500,3.17362255859375,-0.10354103849530219,-0.029476836108695715,-0.2913430993460119
1761336282300689400,3.183689453125,-0.07323240947127342,-0.020184289769548922,-0.25943244195282456
1761336282310755600,3.193755615234375,-0.09543956510424613,-0.014548969030007719,-0.19017620610352604
1761336282320822500,3.203822509765625,-0.10210662177801132,-0.012743892369419335,-0.13048435580469667
1761336282330888200,3.21388818359375,-0.12196224584877491,0.017852357956953346,-0.09103603291567415
1761336282340955100,3.223955078125,-0.14557926827967166,0.05239628646317869,-0.05912245291303843
1761336282351021300,3.234021240234375,-0.13343582602143286,0.09492553290119395,-0.038230909923277795
1761336282361088300,3.244088134765625,-0.07449789936244487,0.07956742117907852,-0.04388166569396853
1761336282371154400,3.254154541015625,0.015766308930516244,0.040810733816027636,-0.038652386738359926
1761336282381221400,3.264221435546875,0.08097498642206191,0.020350805442873387,-0.06083733053952455
1761336282391287300,3.274287353515625,0.07325695939064025,-0.006441449490655214,-0.04960523097254336
1761336282401355000,3.28435498046875,0.06158990247249603,-0.02835353116719052,-0.04475994636584073
1761336282411421200,3.294421142578125,0.06976385657787322,-0.0067363955829292535,-0.06323200712371617
1761336282421488000,3.304488037109375,0.11626257290244102,-0.11785236284453421,-0.12608889732472597
1761336282431554000,3.314553955078125,0.021630232527852056,-0.07752501036496832,-0.13149824555497616
1761336282441621000,3.32462109375,-0.12147358554899691,0.09954033322026952,-0.13199972880370914
1761336282451687200,3.334687255859375,-0.19756781419217587,0.19550589495999737,-0.026458164140954612
1761336282461754000,3.344754150390625,-0.24262042336165904,0.0859073465240188,0.09372231285758316
1761336282471820000,3.354820068359375,-0.36410569934844966,-0.015277977424301207,0.015972462494485078
1761336282481886000,3.364885986328125,-0.3861544495493173,0.053794024431891733,-0.09736687990501522
1761336282491953000,3.374952880859375,-0.28035657203793524,0.05043916104603559,-0.16432722336947916
1761336282502018800,3.385018798828125,-0.1520516791641712,0.02204186380235478,-0.1239368703899905
1761336282512086000,3.3950859375,-0.10614391447007655,0.007776625350862741,-0.03222907569259405
1761336282522152000,3.40515185546875,-0.11046236219108103,0.011281455134041607,0.0071690148465335364
1761336282532219000,3.415218994140625,-0.13713877219259737,0.042515729369316246,-0.054266573847085234
1761336282542285000,3.42528515625,-0.1820978578597307,0.02841523475917056,-0.13215638067014515
1761336282552352000,3.43535205078125,-0.19609248094260692,-0.006580510901473462,-0.12775230049230157
1761336282562418000,3.44541796875,-0.17093699689805505,-0.029474023097101596,-0.09075834848545491
1761336282572484900,3.45548486328125,-0.1793792465507984,-0.020921444937679914,-0.04945099025890231
1761336282582551000,3.465551025390625,-0.15311667804718015,0.0014322978254407643,-0.019318375388905403
1761336282592618000,3.475617919921875,-0.04865560209751129,0.00896875774487853,-0.013777948124893009
1761336282602684000,3.485683837890625,0.0638046559125185,0.03307721695452928,-0.01811013211030513
1761336282612751000,3.495751220703125,0.09418401208519935,0.03841170985028147,-0.024441198295354842
1761336282622817000,3.505817138671875,0.07687690345346927,0.053461321878805756,-0.029441052409261464
1761336282632884000,3.515884033203125,0.04868307462632656,0.05699302140260115,-0.07689191835951059
1761336282642950100,3.5259501953125,-0.017579495832324026,0.00822710906472057,-0.12561083148419858
1761336282653017000,3.53601708984375,-0.06490180349946022,-0.04498949907170608,-0.11001377817336469
1761336282663083000,3.5460830078125,-0.042696985954046245,-0.042622696875128895,-0.0701073362533003
1761336282673150000,3.55614990234375,-0.012307108387351036,-0.037851390820089724,-0.023011165492236613
1761336282683216100,3.566216064453125,0.024030279406905174,-0.04979567551072687,0.04085475562084466
1761336282693283000,3.576282958984375,0.04282265816032886,-0.03206305320961401,0.06471866548489778
1761336282703349000,3.586348876953125,0.009041384589672088,-0.015656510146800428,0.04501249635480344
1761336282713416200,3.596416259765625,0.01645312215089798,-0.0071659278403036295,0.01981850693076849
1761336282723481900,3.60648193359375,0.03082300828695297,0.00460937522528693,-0.03287120952103287
1761336282733548800,3.616548828125,-0.02249240231513977,-0.011085183643270283,-0.015316044412367044
1761336282743615000,3.626614990234375,-0.06703881552815437,-0.008043715321831405,0.014499540397711097
1761336282753682000,3.636681884765625,-0.08056348301172256,0.002996423603314906,-0.01738320607524365
1761336282763747800,3.646747802734375,-0.0789449418991804,0.045296062536537646,-0.04514649799801409
1761336282773815000,3.65681494140625,-0.07950374482572078,0.06042043856801465,-0.04855462594106793
1761336282783881000,3.666880859375,-0.07830605947375296,-0.00955919791869819,-0.05670308027900755
1761336282793948000,3.676947998046875,-0.052259764069318766,-0.020640764832776038,-0.006274769420549273
1761336282804014000,3.68701416015625,-0.07015899337530136,-0.05321169449929147,0.035287659545615316
1761336282814081000,3.6970810546875,-0.1214478665858507,-0.06612016631327569,0.0441029072292149
1761336282824147000,3.70714697265625,-0.21937048067748546,-0.04998312437422573,0.039718993056565524
1761336282834214000,3.7172138671875,-0.25829671592116354,-0.035545433698967094,0.04642214395701885
1761336282844280000,3.727280029296875,-0.25035481700599194,-0.016729180879611522,-0.023029943257942793
1761336282854347000,3.737346923828125,-0.22205051354169844,-0.03070568378390744,-0.13310440210998056
1761336282864413000,3.747412841796875,-0.18690145874917505,-0.06119631831133738,-0.2184662983793765
1761336282874480000,3.757480224609375,-0.14540917240977286,-0.06654617317300289,-0.19708828704692422
1761336282884546000,3.767546142578125,-0.15306582464277743,-0.06016215295800939,-0.1255760524317622
1761336282894613000,3.777613037109375,-0.1533504868030548,-0.05368597921384498,-0.03466127127557993
1761336282904679200,3.78767919921875,-0.13371522748470305,-0.012931231635063887,0.02469393094740808
1761336282914746000,3.79774609375,-0.06564239273369311,-0.004788951309584081,0.046649815233051777
1761336282924812000,3.80781201171875,0.03168050189912319,-0.006378668186441064,0.06957279098518192
1761336282934879000,3.81787890625,0.06401157666146755,-0.03548186694346368,0.02592522630803287
1761336282944945200,3.827945068359375,0.03491758412420749,-0.03747736987592652,-0.045449791793525214
1761336282955012000,3.83801220703125,0.045620764446258545,-0.025866810651682316,-0.10802022973597049
1761336282965078000,3.848078125,0.04707973108291626,-0.019709950256068257,-0.13199446810670196
1761336282975145200,3.858145263671875,0.04411678962409496,-0.05374969209982082,-0.11441957538425922
1761336282985211000,3.8682109375,0.07112637710273266,-0.05990006795572116,-0.12772526635490358
1761336282995277800,3.87827783203125,0.06571487344801426,-0.0407014099563472,-0.16638028344176709
1761336283005344000,3.888343994140625,0.04940788176953792,-0.029664157108031212,-0.17330423748604953
1761336283015411000,3.898410888671875,0.08130757937729358,-0.03086155019905418,-0.1429993347890675
1761336283025476900,3.908476806640625,0.04580430431962013,-0.03849412743672728,-0.10746318037509918
1761336283035543800,3.918543701171875,-0.038597149419784545,-0.05974098667018115,-0.04590082349665463
1761336283045610000,3.92860986328125,-0.14577683667838573,-0.08558861769735812,0.014254589193314312
1761336283055677000,3.938677001953125,-0.2727022578924894,-0.06505602594679222,0.028539062068238853
1761336283065742800,3.948742919921875,-0.35532734960913653,-0.06804903375031426,0.028311025466024875
1761336283075809000,3.95880908203125,-0.40817105104625223,-0.054691028070542956,0.03668006375208497
1761336283085876000,3.9688759765625,-0.36046471249759193,-0.04902156759938225,0.06958769629336893
1761336283095942100,3.978942138671875,-0.24502163928449153,-0.04893021778780967,0.09319390506930648
1761336283106009000,3.989009033203125,-0.11143559113740921,-0.04935545746255666,0.0538525131534785
1761336283116075000,3.999074951171875,0.06338029302060603,-0.05774051530165598,-0.013555354882776736
1761336283126141200,4.00914111328125,0.19438684606850146,-0.07445515619926155,-0.03915156843215227
1761336283136208100,4.0192080078125,0.20856150189340114,-0.08656155438274145,0.013042217728868126
1761336283146274000,4.029274169921875,0.1364578041911125,-0.09640875719627365,0.09576916238479316
1761336283156341000,4.039341064453125,0.02973112139701843,-0.1007478823791258,0.16760814473628996
1761336283166407200,4.0494072265625,-0.11575170077085495,-0.08275870976736768,0.18680004420131444
1761336283176474000,4.05947412109375,-0.24665771605372427,-0.06755997159173711,0.13898440005928278
1761336283186539800,4.069539794921875,-0.2431149288803339,-0.046578996752854436,0.044290319560095666
1761336283196607200,4.079607177734375,-0.22751754677593708,-0.030524025340378284,-0.07523359322585164
1761336283206673000,4.0896728515625,-0.18284546135663984,-0.04797552914517,-0.1283222823999822
1761336283216739800,4.09973974609375,-0.1165904896825552,-0.07227067003333941,-0.11742109528779983
1761336283226806000,4.109805908203125,-0.09011106355786323,-0.06952900664238258,-0.07643113244734705
1761336283236873000,4.119873046875,-0.06861117941141129,-0.03445979388672858,-0.029649945919588208
1761336283246939000,4.12993896484375,0.013251695761084556,-0.001568089566938579,0.006471314905956387
1761336283257005800,4.140005859375,0.07083353163599967,-0.007152830896712839,0.04442322522476315
1761336283267072000,4.150072021484375,0.06468962205350398,-0.03190568895712494,0.10177161766998469
1761336283277139000,4.160138916015625,0.04249766398966312,-0.015401877798605709,0.1040616283033043
1761336283287204900,4.170204833984375,-0.05168167192041874,-0.002413545681443065,0.07414031809642911
1761336283297272000,4.18027197265625,-0.15785715057253838,-0.01615048594251275,0.051198418448120356
1761336283307338000,4.190337890625,-0.1923462801516056,-0.01638442256255075,0.03555756252817809
1761336283317405000,4.200405029296875,-0.22034312510192394,-0.014254242133442311,0.006081146544590592
1761336283327471000,4.21047119140625,-0.18631810590326786,-0.013734857901837675,-0.029997663378715515
1761336283337538000,4.2205380859375,-0.1412643276900053,0.004335508453659713,-0.05432758331932127
1761336283347604000,4.23060400390625,-0.0955757587045431,0.022044841210730373,-0.09660488255657255
1761336283357671000,4.2406708984375,-0.03208265295922756,0.033113676507398486,-0.15186433989852666
1761336283367737000,4.250737060546875,0.00845744722187519,0.013812745443638414,-0.13435469443202017
1761336283377804000,4.260803955078125,0.07286591424643993,0.0028079335602000355,-0.027023031482100484
1761336283387870000,4.270869873046875,0.0829360573619604,0.01577527768826112,0.01803586129769683
1761336283397937200,4.280937255859375,-0.034787235742807385,0.027071418934781103,-0.07087101410217583
1761336283408003000,4.291003173828125,-0.07341068864762783,0.04735372571870684,-0.06838533476628363
1761336283418070000,4.301070068359375,-0.06271744519770145,0.04951888612965122,-0.08194193175807594
1761336283428136200,4.31113623046875,-0.12963701826035975,0.062109359769336875,-0.07722754352204501
1761336283438203100,4.321203125,-0.2001362033754587,0.05972476618774235,-0.07343363113179803
1761336283448269000,4.33126904296875,-0.16905366736948488,0.03495685668867081,-0.0639917029172182
1761336283458336000,4.3413359375,-0.04402092803418636,0.007965334589686244,-0.0697900139324367
1761336283468402200,4.351402099609375,0.0742442168623209,-0.015930358652118594,-0.08967099164016544
1761336283478469000,4.36146923828125,0.08669161050319671,-0.026017343304585664,-0.09261515533328056
1761336283488535000,4.37153515625,0.03909516206979751,-0.02504208679795265,-0.0637304216325283
1761336283498602200,4.381602294921875,-0.028868367087841032,-0.03811389594748616,-0.03988163627237081
1761336283508668200,4.391668212890625,-0.1133832180738449,-0.06251587647730485,-0.010361161951348185
1761336283518734300,4.401734375,-0.18192659294605254,-0.07606250006435439,0.01677007914558053
1761336283528801300,4.41180126953125,-0.2272761392354965,-0.08538975239070132,0.016094737167283893
1761336283538867200,4.4218671875,-0.29027357041835783,-0.09637905617775396,0.009297916634008288
1761336283548934100,4.43193408203125,-0.31633623243570325,-0.05687556903539225,-0.002196706326678395
1761336283559001000,4.4420009765625,-0.24732114839851854,-0.04193206599615514,-0.026317002104595304
1761336283569067300,4.4520673828125,-0.1312865390330553,-0.050336193861905486,-0.012017550856247543
1761336283579134200,4.46213427734375,-0.04578852222859859,-0.0675622183477506,-0.01010506829842925
1761336283589200100,4.4722001953125,-0.0034071780949831007,-0.09197420881493017,-0.023958675475418568
1761336283599267000,4.48226708984375,-0.014638181683421134,-0.10383328117383643,-0.027571532210335134
1761336283609333000,4.4923330078125,-0.0251619137853384,-0.09206742179002612,-0.023113310692459345
1761336283619400000,4.50239990234375,0.002214168918132782,-0.08894527118150145,-0.03458652553893626
1761336283629466000,4.512466064453125,0.06342413216233253,-0.08946522166868671,-0.0508470477271825
1761336283639533000,4.522532958984375,0.15605448506474495,-0.10057486389977857,-0.02143361397720873
1761336283649599000,4.532598876953125,0.1610539007872343,-0.11913447507694364,0.012004545244202016
1761336283659666200,4.542666259765625,0.052426352807879446,-0.12291578371394425,0.03623911505155265
1761336283669732000,4.552732177734375,-0.14678981311321257,-0.11282189439665526,0.052198389270901674
1761336283679799000,4.562799072265625,-0.344403220012784,-0.0812365051687695,0.05597732328772544
1761336283689865200,4.572865234375,-0.3650198915839195,-0.053782114798389374,0.06147767426967621
1761336283699932200,4.58293212890625,-0.3020990327686071,-0.013160382482130079,0.04770721533149481
1761336283709998000,4.592998046875,-0.20461481009423732,0.0003257065567187965,0.005658610283583402
1761336283720065000,4.60306494140625,-0.10137713845968246,0.016658362399414182,-0.05683474383465945
1761336283730131200,4.613131103515625,-0.07007540674507617,0.033770185921061784,-0.1455100024357438
1761336283740198100,4.6231982421875,-0.03790098384916782,0.03827951657166704,-0.19537118093073366
1761336283750264000,4.63326416015625,-0.026726678884029388,0.05126994931437075,-0.20435038700439034
1761336283760331300,4.643331298828125,-0.015435469540953635,0.04790997136197984,-0.1553670142572373
1761336283770397200,4.653397216796875,-0.059523617592453955,0.044386217682622374,-0.1086312743064016
1761336283780464000,4.663464111328125,-0.08977320990562439,0.058163069828972215,-0.09616473757363855
1761336283790530300,4.6735302734375,-0.03482756775319576,0.09049156904174015,-0.11719612742550671
1761336283800597200,4.68359716796875,-0.0270440742701292,0.0985268087961711,-0.12010624271854757
1761336283810663200,4.6936630859375,-0.06124328099191188,0.046955428849812596,-0.10066409481950103
1761336283820730000,4.703730224609375,-0.03298924641013145,0.03715270449882373,-0.07034267937913537
1761336283830796300,4.71379638671875,0.00836859989464283,0.025853567577619103,-0.055727294049412006
1761336283840863200,4.72386328125,0.038620530295372005,-0.005731620720867067,-0.009737477095052599
1761336283850929000,4.733928955078125,0.06463818412721156,-0.005826989120431244,0.04974851190075278
1761336283860996000,4.74399609375,0.024952654948830602,0.015299549935292452,0.09702288877293468
1761336283871062000,4.75406201171875,-0.13947802879512308,0.029874183129519224,0.12736468941420315
1761336283881128200,4.764128173828125,-0.2673556361675262,0.009277074775379151,0.09831555893197655
1761336283891195100,4.774195068359375,-0.2689163096129894,0.011320892095286398,0.04969831608347595
1761336283901261000,4.784260986328125,-0.16313538323640822,0.0038938291007652877,-0.010195669191330671
1761336283911328000,4.794327880859375,-0.004658639460802078,-0.013285324036050587,-0.03839395499788224
1761336283921394200,4.804394287109375,0.043882980868220324,-0.028847598294448107,-0.046558629818260665
1761336283931461000,4.814461181640625,0.007906827601790428,-0.03253945681601762,-0.0759049166161567
1761336283941527000,4.824527099609375,-0.06560206072330474,-0.020203907785471528,-0.07643142470829188
1761336283951594200,4.83459423828125,-0.15329028104841708,-0.016938275319337844,-0.07177008183375
1761336283961660200,4.84466015625,-0.19562953960597515,-0.014382234160974621,-0.09613989539332687
1761336283971727000,4.85472705078125,-0.18485504761338234,-0.002709112828224897,-0.09614033378474414
1761336283981793300,4.864793212890625,-0.10514730464816092,0.0235055796793662,-0.09360665058866142
1761336283991860200,4.874860107421875,-0.054390346357226366,0.032992826606705786,-0.0932878669630736
1761336284001926100,4.884926025390625,0.04247779024541378,0.02648824875196442,-0.09576017536073922
1761336284011993000,4.8949931640625,0.10682312890589236,0.024368242656998336,-0.09363295407369732
1761336284022059300,4.905059326171875,0.03801145848631859,-0.010231836483255027,-0.06919292482212186
1761336284032126200,4.915126220703125,-0.09314648573100566,-0.029184776093252002,-0.058986515041068194
1761336284042192100,4.925192138671875,-0.19047171845138072,-0.009384298009518533,-0.09967384167313575
1761336284052259300,4.93525927734375,-0.22209493720531462,0.011430636080075055,-0.12356025562994181
1761336284062325200,4.9453251953125,-0.22082009496390817,-0.0061714917091652746,-0.10781528174839913
1761336284072392200,4.95539208984375,-0.09440437683761119,-0.03109912181459367,-0.07125555644035339
1761336284082458000,4.9654580078125,0.06976619466543198,-0.06586209989897907,-0.0404506683319807
1761336284092525000,4.975525146484375,0.1594634167253971,-0.11015928759127855,-0.029262773232907054
1761336284102591000,4.985591064453125,0.14132277987897396,-0.14309331494914368,-0.01972162242755294
1761336284112658000,4.995657958984375,0.040215690532326695,-0.19026596674621105,-0.016930530404299496
1761336284122724000,5.00572412109375,-0.08129413537383079,-0.24887340107550843,-0.007880377986282109
1761336284132791000,5.015791015625,-0.24326515100598334,-0.2957525132860988,-0.022838950730487702
1761336284142857000,5.02585693359375,-0.3252992910921573,-0.3404743561312556,-0.03561732989139855
1761336284152924200,5.035924072265625,-0.3647071723729372,-0.36786300605535505,-0.03454809322468936
1761336284162990000,5.045989990234375,-0.413124874061346,-0.372830053878203,-0.04267784286215901
1761336284173057000,5.05605712890625,-0.4117974248498678,-0.3347458954818547,-0.06282660466060042
1761336284183123200,5.066123291015625,-0.3735305302977562,-0.264212168776337,-0.1096303683463484
1761336284193190100,5.076190185546875,-0.3290905000686645,-0.20171349916215986,-0.16013539770282803
1761336284203256000,5.086256103515625,-0.25526304731369015,-0.15302870750278233,-0.1827707886852324
1761336284213323000,5.096322998046875,-0.13977087426185608,-0.09298504809159786,-0.17107852426059544
1761336284223389200,5.10638916015625,0.003942600145936012,-0.02763502590060234,-0.10682491900417954
1761336284233456000,5.1164560546875,0.13653496108055113,0.03125473250141367,-0.025469189636223015
1761336284243522000,5.12652197265625,0.1676712731003761,0.09555431405771524,0.019651589398644864
1761336284253589200,5.13658935546875,0.12622691755592821,0.15742456784155218,0.02430880408734083
1761336284263655200,5.1466552734375,0.04695756600797176,0.2031322068536654,0.0009736308051273226
1761336284273722000,5.15672216796875,-0.06906827552914618,0.2128633090068586,-0.016204042760655284
1761336284283788300,5.166788330078125,-0.1121504614084959,0.2580543767989613,-0.029587292479537425
1761336284293855200,5.176855224609375,-0.11546820765435695,0.2681107836500741,-0.06395202849395573
1761336284303921200,5.186921142578125,-0.12596446722745894,0.24479228750802576,-0.0758340433370322
1761336284313988000,5.196988037109375,-0.1458440566956997,0.24117669082675128,-0.07487721753623336
1761336284324054300,5.20705419921875,-0.2327057630687952,0.29266473987121133,-0.1546580622702837
1761336284334121200,5.217121337890625,-0.2737614115566015,0.3422233552230522,-0.2673061710026115
1761336284344187100,5.227187255859375,-0.209809456127882,0.35652919967956836,-0.330793029670231
1761336284354254000,5.237254150390625,-0.07141162378489971,0.34688046031389386,-0.33041290777884424
1761336284364320000,5.247320068359375,0.08980068243443966,0.326377697446011,-0.2763937693541869
1761336284374386200,5.25738623046875,0.21052257283329961,0.29627061887606976,-0.19284060300718991
1761336284384453000,5.267453125,0.2220996133804321,0.3020686010977253,-0.10124145631603897
1761336284394519000,5.27751904296875,0.04318038555681705,0.33470654985215514,-0.0283085047153756
1761336284404585500,5.28758544921875,-0.21660276952981947,0.3607810119051486,-0.007708857344277203
1761336284414651600,5.297651611328125,-0.3246013719558716,0.3737770889373496,0.01577770710736513
1761336284424718600,5.307718505859375,-0.2457902855694294,0.31802327220719306,0.013993636702187359
1761336284434784800,5.31778466796875,-0.04972527715563774,0.24832347557516768,0.013195252866111696
1761336284444851700,5.327851806640625,0.1760644229143858,0.21591405661329627,0.005713153482414782
1761336284454917600,5.337917724609375,0.3280342690140009,0.1845819114941172,0.006218691851757467
1761336284464984600,5.347984619140625,0.34932840145528316,0.15109804083430206,-0.004001198465377092
1761336284475050800,5.35805078125,0.2704769830584526,0.1839809133936651,0.010584741574153303
1761336284485117700,5.36811767578125,0.10717851821482181,0.23921717252312227,-0.014659187938831746
1761336284495183600,5.37818359375,0.013399579799175262,0.26784988595787435,-0.02418053806517273
1761336284505250800,5.388250732421875,0.012800444862246513,0.30079377712262795,-0.028716026070341467
1761336284515316700,5.398316650390625,0.02850070281922817,0.28180211293743923,-0.05618534001521766
1761336284525383700,5.4083837890625,0.0586982726842165,0.23418308734605087,-0.07578231314979493
1761336284535449600,5.41844970703125,0.07409633282423018,0.21146456639114766,-0.08341923776902258
1761336284545516800,5.428516845703125,-0.030919454398751257,0.1871442179964855,-0.12984342755265532
1761336284555582500,5.43858251953125,-0.1879974372923374,0.16380528185460716,-0.16833189243357627
1761336284565649400,5.4486494140625,-0.29407237817943094,0.14805828954591416,-0.17612064661365
1761336284575715600,5.458715576171875,-0.29724340943098065,0.13355586307137274,-0.15411752565279602
1761336284585782500,5.468782470703125,-0.1684609621733427,0.16252209190996364,-0.08363854307550936
1761336284595848400,5.478848388671875,-0.003042436435818672,0.15231247639167123,-0.05530833798497915
1761336284605915600,5.48891552734375,0.12660451869666575,0.13295419825064017,-0.0957200990786776
1761336284615981600,5.498981689453125,0.2152332347422838,0.12610101702078244,-0.15223090818859636
1761336284626048500,5.509048583984375,0.27137130154967304,0.10762018843456171,-0.1929600281357765
1761336284636114700,5.51911474609375,0.18378712612092493,0.08019823902905918,-0.21157631966993212
1761336284646181600,5.529181640625,-0.00578092148900032,0.06209779719570651,-0.26742895713206377
1761336284656247600,5.53924755859375,-0.09147066147327422,0.08114104543766007,-0.2987690480956808
1761336284666314500,5.549314453125,-0.14506430449485777,0.060170518927555525,-0.21357691890262065
1761336284676380700,5.559380615234375,-0.1385533151656389,-0.0060294528899714345,-0.1171441780425608
1761336284686447600,5.569447509765625,-0.03691080376803875,-0.042793632995244114,-0.06706058896854519
1761336284696513500,5.579513427734375,0.08429507075548172,-0.059247668461594724,-0.08148271674849092
1761336284706580700,5.589580810546875,0.17266776621341703,-0.08051756151076406,-0.07633603804241866
1761336284716646700,5.599646728515625,0.224776139113307,-0.07872832174012437,-0.05487352676428854
1761336284726713600,5.609713623046875,0.2334936985760927,-0.031199330786056814,0.048953744793869554
1761336284736779800,5.61977978515625,0.2105459537088871,0.031829043524339795,0.21633535076528787
1761336284746845700,5.629845703125,0.1515291165947914,0.06518208174556493,0.3400622316664085
1761336284756912600,5.63991259765625,0.03963292220830917,0.05703739026729017,0.3918069954182952
1761336284766978800,5.649978759765625,-0.17436872491240502,-0.043523646036535496,0.3389681528193876
1761336284777045800,5.660045654296875,-0.3866121301889419,-0.1464605446262285,0.1839238677104935
1761336284787111400,5.670111328125,-0.47437984549105167,-0.19571265131216495,-0.04540255511831492
1761336284797178600,5.6801787109375,-0.44563247443437576,-0.25394443899579344,-0.21734997116792945
1761336284807244500,5.69024462890625,-0.3491916233330965,-0.3614963205676526,-0.3021554391309619
1761336284817311500,5.7003115234375,-0.24121289465129375,-0.42747609202954917,-0.3397666827859357
1761336284827377700,5.710377685546875,-0.19455869550406932,-0.4112588609937578,-0.3745279803698882
1761336284837444600,5.720444580078125,-0.2425917817890644,-0.41294206484034657,-0.34807061994653193
1761336284847510500,5.730510498046875,-0.4303483960628509,-0.4001159010149538,-0.2804506435295567
1761336284857577500,5.740577392578125,-0.5894038165092468,-0.1479119855435565,0.042289501131698486
1761336284867643600,5.7506435546875,-0.5853384667664766,-0.10687222874462604,0.304755465561524
1761336284877710600,5.760710693359375,-0.5049439105808735,-0.1264381491538137,0.34678065320122986
1761336284887776500,5.770776611328125,-0.4488070128172636,-0.12285239962153136,0.3144416143281385
1761336284897843700,5.78084375,-0.3959031056255102,-0.12560049275327473,0.2671943811912089
1761336284907909600,5.79090966796875,-0.3014472908616066,-0.13151757130995392,0.17937836976796387
1761336284917976600,5.8009765625,-0.11780337260365485,-0.12852156783174723,0.10463957432173192
1761336284928042800,5.811042724609375,0.08820201506614685,-0.14958791939914226,0.08724665057007223
1761336284938109700,5.821109619140625,0.2514180623233318,-0.20178097490780053,0.0753385879702866
1761336284948175600,5.831175537109375,0.4112947360247373,-0.19868965782895684,0.013863909375295042
1761336284958242600,5.84124267578125,0.47024844477474687,-0.16022789829187095,-0.06901208836250007
1761336284968308700,5.851308837890625,0.30994448557198045,-0.1275473525047302,-0.12956727749239652
1761336284978375700,5.861375732421875,0.030012860947847365,-0.11228037139847874,-0.0984816544801928
1761336284988441600,5.871441650390625,-0.17991408407986162,-0.0700850148236379,-0.06181620377535
1761336284998508800,5.8815087890625,-0.2497369773685932,-0.06432257883939892,-0.042861638463847336
1761336285008574700,5.89157470703125,-0.20055355200469493,-0.06666866704151034,0.031102683744858948
1761336285018641700,5.9016416015625,-0.09631400985121727,-0.1050188924955204,0.09350907196570188
1761336285028707600,5.91170751953125,0.033606501525640486,-0.12467457354739307,0.12180376735143363
1761336285038774800,5.92177490234375,0.08040858471095562,-0.09527918691076338,0.12769074303079395
1761336285048840400,5.93184033203125,0.10795593232810496,-0.05469075407590717,0.09386612350875512
1761336285058907400,5.941907470703125,0.17217735234797,-0.01565503057576716,0.057789688205625855
1761336285068973600,5.9519736328125,0.21305764426887033,-0.005159465122409165,0.0663039253823459
1761336285079040500,5.96204052734375,0.27873803092539307,-0.019620317477546632,0.05979209580291062
1761336285089106400,5.9721064453125,0.3290174348324537,-0.03020670301951468,0.07015314815640449
1761336285099173600,5.982173583984375,0.19278525609076022,-0.025463709743507205,0.10151844662651419
1761336285109239600,5.992239501953125,-0.004781389057636261,-0.022297354667074977,0.15760796158444135
1761336285119306500,6.002306396484375,-0.23684359352588652,-0.02962864740323275,0.19016736520994454
1761336285129372700,6.01237255859375,-0.48252223541438577,-0.03310534707047045,0.18722802382241932
1761336285139438600,6.0224384765625,-0.5972042611271142,-0.031512488388456404,0.18119473500754682
1761336285149505500,6.032505615234375,-0.565482842695713,-0.03110997200217098,0.16684274985436348
1761336285159571700,6.04257177734375,-0.4876093294203281,-0.03547894433401525,0.1126060962215066
1761336285169638700,6.052638671875,-0.34091128624379635,-0.05536868987008929,0.037125871290825306
1761336285179704600,6.06270458984375,-0.16271745008528232,-0.07425930483359842,-0.031686054857075215
1761336285189771800,6.072771728515625,-0.14666297186315058,-0.10318495506662875,-0.05706743834568187
1761336285199837700,6.082837646484375,-0.24932956561148165,-0.08931041469946503,-0.030134386701975015
1761336285209904600,6.092904541015625,-0.3241892840236425,-0.037071985679119825,-0.019192410921677946
1761336285219970800,6.102970703125,-0.31573475941121576,0.005864069727808237,-0.0015845840440131722
1761336285230037800,6.113037841796875,-0.21221651726961135,0.02332351937703788,0.05663827141448855
1761336285240103700,6.123103759765625,-0.06950082172751426,-0.0020244184996932742,0.0695979802253656
1761336285250170600,6.133170654296875,0.05862228483855724,-0.025767953387089072,0.070719622932747
1761336285260236800,6.14323681640625,0.18108078977167605,-0.039691009071096774,0.05895655829422176
1761336285270303700,6.1533037109375,0.2628162391722202,-0.06220343126095831,0.03431550831152126
1761336285280369400,6.163369384765625,0.3099655283600092,-0.0790475254908204,-0.005625657862052321
1761336285290436600,6.1734365234375,0.2816875283807516,-0.08366265460345894,-0.024245438261236995
1761336285300502500,6.18350244140625,0.1570937649846077,-0.09686685796100646,0.0015826478152535855
1761336285310569500,6.193569580078125,-0.01780161415040493,-0.09448737894594669,-0.00667352294716984
1761336285320635600,6.2036357421875,-0.12176058579683303,-0.11036120337154716,-0.004257456515077501
1761336285330702600,6.21370263671875,-0.1771872894644737,-0.11215404160507023,0.021102043935284018
1761336285340768500,6.2237685546875,-0.16868132692575455,-0.12407288132719695,0.03003998641679063
1761336285350835500,6.23383544921875,-0.14413082303702832,-0.12961184728648512,-0.011510167589690536
1761336285360901600,6.243901611328125,-0.230988437756896,-0.12535232667848467,-0.060700990808755156
1761336285370968600,6.253968505859375,-0.33661095870137214,-0.1354221044678241,-0.06199625478368252
1761336285381034500,6.264034423828125,-0.34813480775654315,-0.12242829245794563,-0.08811627301145344
1761336285391101700,6.274101806640625,-0.3133230220943689,-0.10614661788381635,-0.10401504921521991
1761336285401167400,6.28416748046875,-0.2126280206799507,-0.10658329226803034,-0.037402185747865586
1761336285411234300,6.294234375,-0.07737082445025444,-0.08056878024134785,0.06351562810437754
1761336285421300500,6.304300537109375,0.01743161179423332,-0.038683439463749525,0.11779773744731209
1761336285431367400,6.314367431640625,0.04962590843439102,-0.011140402695536613,0.1053849767284002
1761336285441433300,6.324433349609375,0.014434183543920516,-0.035020204248465595,0.056503840513015165
1761336285451500300,6.334500244140625,0.008244681254029274,-0.07883987408950924,0.04710471939370036
1761336285461566500,6.34456640625,0.04242284518778324,-0.09896755656730383,0.046487391212955115
1761336285471633400,6.35463330078125,0.12171207047998904,-0.10425024621058254,0.0420839868885465
1761336285481699600,6.364699462890625,0.17560323514342308,-0.14762209921889005,0.06764084567506798
1761336285491766500,6.3747666015625,0.20108546692430973,-0.151041004284285,0.08966244300752878
1761336285501832400,6.38483251953125,0.1733235997736454,-0.13017587437741457,0.05329697989625856
1761336285511898600,6.394898681640625,0.09427987367510796,-0.10646540150940417,0.05172272545001469
1761336285521965600,6.404965576171875,0.024745149677991865,-0.07225508887171744,0.07405365815970581
1761336285532031500,6.415031494140625,-0.07503039880394935,-0.06600928981732576,0.0327201402953011
1761336285542098400,6.425098388671875,-0.13290624918937682,-0.09511742047779262,0.02370505234079901
1761336285552164600,6.43516455078125,-0.12120353643596171,-0.14372293635588138,0.0838495828771498
1761336285562231600,6.4452314453125,-0.08305296173989772,-0.15096552789527923,0.13490784393590874
1761336285572297500,6.45529736328125,-0.027601708152890203,-0.12466248125080019,0.12848664264883844
1761336285582364700,6.46536474609375,0.06289046367704867,-0.10461480520665645,0.052828604332683604
1761336285592430600,6.4754306640625,0.15647241821587085,-0.09341284504961223,0.05296115380432456
1761336285602497500,6.48549755859375,0.2965846532613039,-0.08853873620722442,0.05797863490646705
1761336285612563700,6.495563720703125,0.38806700517237186,-0.0796907918304205,0.03931392395358998
1761336285622630700,6.505630615234375,0.12285071912109852,-0.06141673786267638,0.007408413092978299
1761336285632696300,6.5156962890625,-0.191047472512722,-0.10073211855441332,-0.005287009625369683
1761336285642763500,6.525763427734375,-0.38091187272071836,-0.1429473854061216,-0.05509946274096146
1761336285652829400,6.535829345703125,-0.41899698096513743,-0.15869820450656116,-0.12934587156036867
1761336285662896400,6.545896484375,-0.3649731298327446,-0.20763313500210642,-0.12923399041742087
1761336285672962300,6.55596240234375,-0.29727848074436186,-0.31720987346507606,-0.08000767575986682
1761336285683029500,6.566029541015625,-0.2147241161763668,-0.3960730553649366,0.023632530527282505
1761336285693095400,6.576095458984375,-0.1533686069816351,-0.37714302170649167,0.09112215856285766
1761336285703162400,6.586162353515625,-0.058151160195469856,-0.326275807974115,0.10944642661418764
1761336285713228500,6.596228515625,-0.059548752033710475,-0.22773082420043647,0.056896648356039074
1761336285723295500,6.60629541015625,-0.24204057764708994,-0.17529205030240116,0.027131040167529135
1761336285733361400,6.616361328125,-0.34872634390890594,-0.06019625615701079,0.11785831766128539
1761336285743428400,6.626428466796875,-0.1404746386170387,0.05914915825687349,0.3212538881588727
1761336285753494500,6.63649462890625,-0.24399697241187093,-0.4101274458110332,0.10341003252677619
1761336285763561500,6.6465615234375,-0.24361878674924373,-0.3959457026582211,-0.12631846829690038
1761336285773627400,6.65662744140625,-0.22653730356693266,-0.3079837068930268,-0.1300567049771547
1761336285783694600,6.666694580078125,-0.14461539168357848,-0.341661154763028,-0.03836421744674444
1761336285793760500,6.676760498046875,-0.018188567641377447,-0.3092155137103051,0.06146795659326017
1761336285803827500,6.686827392578125,0.07147416762709617,-0.23819215859062967,0.09323876712433993
1761336285813893600,6.6968935546875,0.17897183479368686,-0.16191051761657,0.13396222451571374
1761336285823960600,6.706960693359375,0.2600496970683336,0.05311857285574078,0.22571963050849733
1761336285834026500,6.717026611328125,0.3500134611099958,-0.12970906058326362,0.18692370711360126
1761336285844092700,6.7270927734375,0.17191314845383165,-0.17974420740567146,0.18797632143907247
1761336285854159600,6.73715966796875,0.020564649122953412,-0.06356310224160551,0.17439459000602364
1761336285864225300,6.747225341796875,-0.14898703089654444,-0.1606421781811863,0.2717480259075761
1761336285874292700,6.757292724609375,-0.43147593878805635,-0.23436207890845834,0.27963497976511714
1761336285884358400,6.7673583984375,-0.6866010389357805,-0.22253201344832776,0.15248334857970475
1761336285894425300,6.77742529296875,-0.6667272946864367,-0.13327493637129664,0.04570077087990939
1761336285904491500,6.787491455078125,-0.4350467830121517,0.09492540503703058,0.06907419381327927
1761336285914558500,6.797558349609375,-0.28118191694617267,-0.19737141483724116,-0.017425547379627822
1761336285924624400,6.807624267578125,-0.11818272731006145,-0.25880714966133234,-0.03809248783327639
1761336285934691300,6.81769140625,-0.020734160470962524,-0.30195955123268065,0.04958608788065612
1761336285944757500,6.827757568359375,-0.03154197021126747,-0.39720169406868516,0.20236082062236962
1761336285954824400,6.837824462890625,-0.004140168544650077,-0.510826100487262,0.17911913430988788
1761336285964890400,6.847890380859375,0.07238543725311755,-0.259936519017443,0.2098533683348447
1761336285974957600,6.85795751953125,-0.004435936620831489,-0.12710223908573387,0.15467201773039996
1761336285985023500,6.8680234375,-0.11803542779386043,-0.17206161701381206,0.03154745010398328
1761336285995090400,6.87809033203125,-0.08664543327391147,-0.1820146365556866,0.024437837294489145
1761336286005156600,6.888156494140625,-0.09891513226032257,-0.1719965889535844,0.10205942163541912
1761336286015223600,6.8982236328125,-0.12554594955444334,-0.17343049421422183,0.1554607569552958
1761336286025289500,6.90828955078125,-0.06971884839236736,-0.15876374402344226,0.13919943104945123
1761336286035356400,6.9183564453125,-0.0041822541207075115,-0.14368746318370104,-0.006841244196891784
1761336286045422600,6.928422607421875,0.06820201408863068,-0.18989340710677205,-0.1640236373130232
1761336286055489500,6.938489501953125,0.09734276837706565,-0.2447130847919732,-0.2557080876674503
1761336286065555500,6.948555419921875,0.0014677344650030136,-0.24840046806782481,-0.25240816933922466
1761336286075622700,6.95862255859375,-0.12823708833456038,-0.2800084161873907,-0.2376921001140028
1761336286085688600,6.9686884765625,-0.20192893201112747,-0.27301651147343214,-0.18876622970774767
1761336286095755500,6.978755615234375,-0.2293506074219942,-0.16417743963524697,-0.1093164800915867
1761336286105821700,6.98882177734375,-0.17102525970339774,-0.07846329586207866,0.0019392974995076655
1761336286115888600,6.998888671875,-0.09526596210300922,0.29214104479067027,0.29208083903603255
1761336286125954300,7.008954345703125,-0.08757833020985126,0.46516149689927694,0.7130628563385456
1761336286136021500,7.019021484375,-0.10172609802782535,0.1927951198976487,0.6974236078538
1761336286146087400,7.02908740234375,0.017316460981965064,0.1455065683696419,0.5156307242900133
1761336286156154400,7.039154296875,0.14469956283569335,0.05655651141516864,0.39281756070032714
1761336286166220500,7.049220458984375,0.24078034845292567,-0.1070467815939337,0.2817145625181496
1761336286176287500,7.05928759765625,0.28679332708716393,-0.2563643596190959,0.16589461881667375
1761336286186353400,7.069353515625,0.30722236713171003,-0.33762853824608025,0.06467201333157718
1761336286196420400,7.07942041015625,0.32087212229967116,-0.33396658167243004,-0.02239829429090023
1761336286206486500,7.089486572265625,0.3390560137659311,-0.3708062929656356,-0.054230771881341934
1761336286216552400,7.099552490234375,0.2781716292142868,-0.47902569853551685,-0.10854578798003495
1761336286226619400,7.109619384765625,0.043376784911751745,-0.5943854773793369,-0.2769307623077184
1761336286236685600,7.119685546875,-0.23039514803886413,-0.5865102139595896,-0.33733013982139526
1761336286246752500,7.12975244140625,-0.40868133865594863,-0.15875110373757778,-0.010805179391801357
1761336286256818400,7.139818359375,-0.4843845221549272,-0.002476326985657215,0.2855117628440261
1761336286266885600,7.1498857421875,-0.43310909294784067,-0.06851685219146311,0.30921529451459645
1761336286276951600,7.15995166015625,-0.282962370622158,-0.05047741069719195,0.21675131115503607
1761336286287018500,7.1700185546875,-0.15279577552974224,-0.10505421953722834,0.13767784750536083
1761336286297084700,7.180084716796875,-0.11000701963901519,-0.14089768633469937,0.13969313285052776
1761336286307151600,7.190151611328125,-0.08851882593035697,-0.13442549464590847,0.18698307261802255
1761336286317217500,7.200217529296875,-0.09529694176316261,-0.12121040456816554,0.24526092793308196
1761336286327284500,7.210284423828125,-0.07847381725609302,-0.0990665964949876,0.25763847120814026
1761336286337350700,7.2203505859375,-0.04581833284497261,-0.08522694477811456,0.19050408635102212
1761336286347417600,7.23041748046875,-0.03760346220731735,-0.09494425586797296,0.11323219223059713
1761336286357483300,7.240483154296875,-0.06527005228996277,-0.0684877722274512,0.06640877399630844
1761336286367550700,7.25055078125,-0.12401976290047168,-0.06526829872429371,0.04983421742282808
1761336286377616400,7.260616455078125,-0.11256722551584243,-0.07089527176059782,0.04216105244643986
1761336286387683300,7.270683349609375,-0.03996200803220272,-0.10346234723590314,-0.045080081698298455
1761336286397749500,7.28074951171875,0.04728606730997562,-0.12069156832583249,-0.14813932802602647
1761336286407817000,7.29081689453125,0.13500234468579292,-0.13212284372672436,-0.20501944537237285
1761336286417883000,7.3008828125,0.11886603339910506,-0.14783011594638226,-0.21034663174450396
1761336286427949800,7.31094970703125,0.014509002345800399,-0.09761164844632148,-0.14661730609051882
1761336286438016000,7.32101611328125,-0.05372399140298366,-0.027352190371230243,-0.07934468180648982
1761336286448083000,7.3310830078125,-0.050071898636221884,-0.037638679651170966,-0.0697386490713805
1761336286458148900,7.34114892578125,-0.023059388548135756,-0.089770652622357,-0.051147053587064145
1761336286468216000,7.351216064453125,0.04200900368988514,-0.1390560770560056,-0.00007847206369042396
1761336286478282000,7.361281982421875,0.12765022835731504,-0.1793664601344615,0.07554433967545628
1761336286488349000,7.371348876953125,0.0940115781277418,-0.2465438073504716,0.11357866758070885
1761336286498415000,7.3814150390625,0.02073766760230064,-0.2094976136997342,0.15965682040564716
1761336286508482000,7.39148193359375,-0.01795417436361313,-0.15597294426113367,0.20419716920405626
1761336286518548000,7.4015478515625,-0.04447393249869346,-0.1678284364234656,0.1870798840560019
1761336286528614100,7.4116142578125,-0.11858487837016582,-0.177891273015365,0.15694792677313088
1761336286538681000,7.42168115234375,-0.26554186474382874,-0.20590243875198064,0.12059198040887713
1761336286548747000,7.4317470703125,-0.45501638885140416,-0.20842304327078162,0.027656507080048322
1761336286558814000,7.44181396484375,-0.5781710593551397,-0.16991737152673303,-0.023210341326147316
1761336286568880000,7.451880126953125,-0.5774450831681489,-0.09329531961716711,-0.06800378810279072
1761336286578947000,7.461947021484375,-0.407274394467473,-0.08856668366007506,-0.0934350203488022
1761336286589013000,7.472012939453125,-0.13003040149211884,-0.10903386375792323,-0.03462364267893135
1761336286599080200,7.482080078125,0.13017887005209922,-0.11349646918997168,0.004017711208760738
1761336286609145900,7.492145751953125,0.2631260357737541,-0.08603475402966142,0.016846432317420838
1761336286619213000,7.502213134765625,0.22032968109846113,-0.046132294164970514,0.010931436119973659
1761336286629279000,7.512279052734375,0.04341244074702263,-0.02509820089936256,0.003907382702082396
1761336286639346000,7.522345947265625,-0.11843056459128856,-0.003948883756250143,0.0266781635671854
1761336286649411800,7.532411865234375,-0.18604688774645328,-0.05640760446377098,-0.0539227288454771
1761336286659478800,7.542478759765625,-0.21064707599580287,-0.07270115213878452,-0.059309755646064874
1761336286669545000,7.552544921875,-0.18159166190326212,-0.08428367257863283,-0.08834339629821479
1761336286679612000,7.56261181640625,-0.13350070795118807,-0.08975837766267358,-0.15198855080008505
1761336286689678000,7.572677978515625,-0.08555413090586662,-0.08457914839386939,-0.1651125285282731
1761336286699745000,7.5827451171875,-0.0501017092525959,-0.09018244829364121,-0.17852021856866776
1761336286709811000,7.59281103515625,-0.004488543590903282,-0.109700584038347,-0.14223996778912842
1761336286719878000,7.6028779296875,0.023497779965400693,-0.10892981886155903,-0.09243906811401248
1761336286729944000,7.612944091796875,0.03947802390754223,-0.1110237224008888,-0.06348755278736352
1761336286740011000,7.623010986328125,0.00831014770567417,-0.07639094656743109,-0.028152839229628444
1761336286750077000,7.633076904296875,-0.06450725122392177,-0.029039120544865727,0.005293430233001709
1761336286760144000,7.643143798828125,-0.16794424482285975,-0.021895532400533557,-0.019215426471084356
1761336286770210000,7.6532099609375,-0.3181038266301155,-0.045819136562570924,-0.0818437320806086
1761336286780277000,7.663277099609375,-0.32467151458263394,-0.0813042914416641,-0.10406067845523356
1761336286790343200,7.67334326171875,-0.17629706262648104,-0.07615377681069076,-0.11454685502573847
1761336286800410000,7.68341015625,0.01927519383430481,-0.0747789082609117,-0.0964985726378858
1761336286810476000,7.69347607421875,0.1602951913744211,-0.10477752148769795,-0.04154854657128453
1761336286820542200,7.703542236328125,0.25075696806609626,-0.10604849127158522,0.0026106208898127076
1761336286830609200,7.713609130859375,0.2439198155224323,-0.09907039588727057,0.006279080269485712
1761336286840675000,7.723675048828125,0.1705032816559076,-0.09989069929420948,-0.03508227316662669
1761336286850742000,7.733741943359375,0.11779752738475799,-0.07308635206408798,-0.03496288457065821
1761336286860808000,7.743807861328125,0.1553933908075094,-0.056329424661025404,0.024131401693820952
1761336286870875000,7.753875,0.250748200237751,-0.07850647741667925,0.02418985388278961
1761336286880940800,7.76394091796875,0.35736207030713557,-0.11329232491999863,-0.032573359085619445
1761336286891008000,7.774008056640625,0.3554693884283304,-0.1408781779166311,-0.07409048760533332
1761336286901074000,7.784073974609375,0.22626433184444902,-0.15829101194515824,-0.030743659440428017
1761336286911140900,7.794140869140625,0.05705284356474876,-0.1348057992003858,0.017260346880555152
1761336286921207000,7.80420703125,-0.11158756682872771,-0.07434504688829183,0.021296470528841017
1761336286931274000,7.81427392578125,-0.23864625903367995,-0.017728695044666527,0.0014656886383891104
1761336286941340000,7.82433984375,-0.35430735891163345,-0.004884995562583208,-0.05928527879193425
1761336286951406800,7.83440673828125,-0.5119640184760094,-0.029958646542578935,-0.12128639241382479
1761336286961473000,7.84447314453125,-0.5621364548772573,-0.06230827987492084,-0.15015022945702075
1761336286971540000,7.8545400390625,-0.5009358439832925,-0.0909121508076787,-0.18868965734019874
1761336286981606000,7.86460595703125,-0.3573912964016199,-0.09826134452670812,-0.20089622796252368
1761336286991673000,7.874673095703125,-0.14720599269866944,-0.10769523556530475,-0.15257804112583398
1761336287001739000,7.884739013671875,-0.008829787665605545,-0.10526698550507425,-0.12030205755159258
1761336287011806000,7.894805908203125,-0.002148117944598198,-0.09150807087421417,-0.10079890018031
1761336287021872000,7.9048720703125,-0.05442717123627663,-0.1251896834626794,-0.03611643851995468
1761336287031939000,7.91493896484375,-0.13072890515029428,-0.14036971693783998,0.03179141492769122
1761336287042005000,7.9250048828125,-0.31703181348443027,-0.12936682301685212,0.06969152199402451
1761336287052072000,7.935072021484375,-0.44338674133419986,-0.14276771799027918,0.09375716497525573
1761336287062138000,7.94513818359375,-0.40218028619885443,-0.14531024207994342,0.11013166893199086
1761336287072205000,7.955205078125,-0.21290449953377247,-0.1415586344614625,0.04123801931738853
1761336287082271000,7.96527099609375,0.04550093745887279,-0.13293328332677481,-0.05980711070895195
1761336287092338200,7.975338134765625,0.21521102291047572,-0.10652239239364862,-0.09077771077305077
1761336287102403800,7.98540380859375,0.21231997764408586,-0.09367650095447898,-0.0368355465747416
1761336287112470000,7.995469970703125,0.07777122194468974,-0.07461275791376829,0.008171469887346029
1761336287122537000,8.005536865234374,-0.0675865125387907,-0.05970978781431913,0.06766732269003987
1761336287132603000,8.015602783203125,-0.1650099449366331,-0.04971723997965455,0.08903992719501257
1761336287142669800,8.025669921875,-0.1476519829005003,-0.08198796285688877,0.05839446743205189
1761336287152736000,8.035736083984375,-0.018739771783351896,-0.13749781476333736,0.0276455472946167
1761336287162803000,8.045802978515624,0.15128887809813021,-0.1959586254298687,0.0365216583199799
1761336287172868900,8.055868896484375,0.20535072315335273,-0.22757132278978823,0.06870148804336786
1761336287182936000,8.06593603515625,0.010957447344064711,-0.17327260023877022,0.0669930766902864
1761336287193002000,8.076001953125,-0.2667681916683912,-0.1281654844030738,0.053673576389998194
1761336287203068000,8.08606787109375,-0.4407569773524999,-0.10296718413010239,0.028259587539732456
1761336287213135000,8.096135009765625,-0.46237961109578607,-0.0677228522695601,0.01176511046513915
1761336287223201000,8.106200927734376,-0.3048269964277744,-0.10291749976947903,-0.007912234429270028
1761336287233268000,8.11626806640625,-0.055657005292177195,-0.1447302502349019,-0.07550298475176095
1761336287243334100,8.126334228515624,0.1409194597750902,-0.1490684255696833,-0.17894874617904424
1761336287253401000,8.136401123046875,0.2000625536173582,-0.14327391394674777,-0.20226430144533514
1761336287263467000,8.146467041015624,0.1384182906091213,-0.12247720963358878,-0.125924281347543
1761336287273534000,8.156533935546875,0.06461188064217567,-0.10463453282043338,-0.028026071044802665
1761336287283600100,8.16660009765625,0.13681786967515944,-0.08762173096016049,-0.011245470505207777
1761336287293667000,8.1766669921875,0.22958324713408945,-0.08377148527279496,-0.012936346201598644
1761336287303733000,8.18673291015625,0.2742337052434683,-0.05810059905201196,0.03460062712952494
1761336287313800200,8.19680029296875,0.13980243844389914,-0.0673664400473237,0.0404290410220623
1761336287323865900,8.206865966796874,-0.13185410978794096,-0.06694689946100116,-0.028389935921132564
1761336287333933000,8.21693310546875,-0.2714811916649341,-0.13446575359106064,-0.08262772206515073
1761336287343999000,8.2269990234375,-0.3154103497624397,-0.22881021693497894,-0.18606369275078177
1761336287354066000,8.23706591796875,-0.32535540519356726,-0.22105565728545187,-0.23030688523352144
1761336287364131800,8.2471318359375,-0.21524960135519502,-0.14763912341892718,-0.18254092545211315
1761336287374199000,8.257198974609375,-0.1783861438602209,-0.10213862435147165,-0.18338804380074142
1761336287384265000,8.267264892578124,-0.19579145216941832,-0.09516483981609344,-0.23332170301005242
