time,seconds_elapsed,z,y,x
1761336279200208100,0.0832080078125,0.17774532735347748,-0.6048934459686279,-0.38748490810394287
1761336279210274300,0.0932744140625,0.1767764687538147,-0.5418587923049927,-0.3611510396003723
1761336279220341200,0.10334130859375,0.19488537311553955,-0.4853312373161316,-0.3752341568470001
1761336279230407200,0.1134072265625,0.2642971873283386,-0.4805538058280945,-0.4395207464694977
1761336279240474000,0.12347412109375,0.3655239939689636,-0.47352614998817444,-0.528725266456604
1761336279250540300,0.133540283203125,0.44248828291893005,-0.4636452794075012,-0.6590111255645752
1761336279260607200,0.143607177734375,0.4906936287879944,-0.4349457323551178,-0.8070781230926514
1761336279270673200,0.153673095703125,0.4996788799762726,-0.38674357533454895,-0.9568569660186768
1761336279280740400,0.163740234375,0.4859873950481415,-0.3125219941139221,-1.092598557472229
1761336279290806300,0.17380615234375,0.49328285455703735,-0.16241292655467987,-1.199018955230713
1761336279300873200,0.183873291015625,0.5397745966911316,0.014032846316695213,-1.277785301208496
1761336279310939400,0.193939453125,0.6344044208526611,0.09455831348896027,-1.3396401405334473
1761336279321006300,0.20400634765625,0.7436674237251282,0.06317491084337234,-1.3680708408355713
1761336279331072300,0.214072265625,0.8437561988830566,0.0158366858959198,-1.3397960662841797
1761336279341139200,0.22413916015625,0.901729941368103,0.015247771516442299,-1.2538307905197144
1761336279351205400,0.234205322265625,0.924358069896698,0.08876140415668488,-1.1465797424316406
1761336279361272300,0.244272216796875,0.9368300437927246,0.2205067276954651,-1.0720875263214111
1761336279371338200,0.254338134765625,0.9588195085525513,0.3376365602016449,-1.0351425409317017
1761336279381405400,0.264405517578125,0.999525249004364,0.36281558871269226,-1.039123296737671
1761336279391472400,0.274472412109375,1.0454767942428589,0.24370677769184113,-1.0833176374435425
1761336279401537500,0.28453759765625,1.0796902179718018,0.010769400745630264,-1.1239484548568726
1761336279411603700,0.294603759765625,1.0998433828353882,-0.19392728805541992,-1.1007174253463745
1761336279421670700,0.304670654296875,1.1093682050704956,-0.2525404393672943,-0.993340253829956
1761336279431736800,0.31473681640625,1.1188868284225464,-0.199466273188591,-0.819847822189331
1761336279441803800,0.3248037109375,1.1218112707138062,-0.040196314454078674,-0.6135402917861938
1761336279451870700,0.33487060546875,1.0898208618164062,0.15720224380493164,-0.4048211872577667
1761336279461936600,0.3449365234375,1.0245591402053833,0.328487366437912,-0.21017222106456757
1761336279472003600,0.355003662109375,0.9328787326812744,0.4765215814113617,-0.04243649169802666
1761336279482069800,0.36506982421875,0.8532763123512268,0.6561706066131592,0.09985779970884323
1761336279492136700,0.37513671875,0.8083048462867737,0.8259998559951782,0.19001086056232452
1761336279502202600,0.38520263671875,0.7898405194282532,0.8977646827697754,0.21284882724285126
1761336279512269800,0.395269775390625,0.7600789070129395,0.8647308349609375,0.19719156622886658
1761336279522335500,0.40533544921875,0.7028062343597412,0.7926640510559082,0.15494005382061005
1761336279532402400,0.41540234375,0.6533808708190918,0.590413510799408,0.11346451938152313
1761336279542468600,0.425468505859375,0.6533002257347107,0.2891193628311157,0.0719461739063263
1761336279552535600,0.43553564453125,0.703254222869873,0.029945850372314453,0.027773655951023102
1761336279562601500,0.4456015625,0.7703110575675964,-0.1045212671160698,0.001097814179956913
1761336279572668700,0.455668701171875,0.819814145565033,-0.11289051175117493,0.0200619176030159
1761336279582734600,0.465734619140625,0.8346983194351196,-0.0238090381026268,0.0773865357041359
1761336279592801500,0.475801513671875,0.8164945244789124,0.08870258927345276,0.15642835199832916
1761336279602867700,0.48586767578125,0.7843620181083679,0.18783122301101685,0.23067417740821838
1761336279612934700,0.4959345703125,0.7640154957771301,0.285504013299942,0.28670573234558105
1761336279623000600,0.50600048828125,0.7761718034744263,0.309237003326416,0.2953058183193207
1761336279633067500,0.516067626953125,0.8106264472007751,0.19956563413143158,0.27179330587387085
1761336279643133700,0.5261337890625,0.8765826225280762,0.05930598825216293,0.2337285429239273
1761336279653200600,0.53620068359375,0.9296934604644775,-0.028887256979942322,0.19205965101718903
1761336279663266600,0.5462666015625,0.9200907945632935,-0.07221671938896179,0.14090609550476074
1761336279673333800,0.556333740234375,0.8585427403450012,-0.10244332998991013,0.0714697614312172
1761336279683399700,0.566399658203125,0.767379879951477,-0.15581025183200836,-0.015241985209286213
1761336279693466600,0.576466552734375,0.6690762042999268,-0.1686280518770218,-0.08835002034902573
1761336279703532800,0.58653271484375,0.5862334370613098,-0.14293473958969116,-0.1368730664253235
1761336279713599700,0.596599853515625,0.5083937644958496,-0.12395652383565903,-0.1625499278306961
1761336279723665700,0.606665771484375,0.4340750277042389,-0.10041669011116028,-0.17094485461711884
1761336279733732600,0.616732666015625,0.3865780830383301,-0.04514891281723976,-0.17491509020328522
1761336279743798800,0.626798828125,0.35397008061408997,0.037957169115543365,-0.18979904055595398
1761336279753865700,0.63686572265625,0.32175517082214355,0.10613089799880981,-0.19608010351657867
1761336279763931400,0.646931396484375,0.28260183334350586,0.15134742856025696,-0.18649336695671082
1761336279773998800,0.656998779296875,0.24327121675014496,0.19055528938770294,-0.1413639783859253
1761336279784064500,0.667064453125,0.21359525620937347,0.21868149936199188,-0.07563474774360657
1761336279794131500,0.67713134765625,0.1857958436012268,0.2365531623363495,-0.03204013407230377
1761336279804197600,0.68719775390625,0.10215019434690475,0.13644005358219147,0.0574599951505661
1761336279814264600,0.6972646484375,0.09129834175109863,0.01124377641826868,0.16736412048339844
1761336279824330500,0.70733056640625,0.12995463609695435,0.09167779237031937,0.16426214575767517
1761336279834397400,0.7173974609375,0.1939549297094345,0.07270703464746475,0.051087386906147
1761336279844463600,0.727463623046875,0.19458745419979095,-0.0009472817182540894,-0.03148586302995682
1761336279854530600,0.737530517578125,0.1277005672454834,-0.023547664284706116,-0.04257473349571228
1761336279864596500,0.747596435546875,0.01784113422036171,0.014162485487759113,0.0015979297459125519
1761336279874663700,0.75766357421875,-0.11035225540399551,0.09233611822128296,0.06418114900588989
1761336279884729600,0.7677294921875,-0.23389744758605957,0.1323707401752472,0.08864676207304001
1761336279894796500,0.777796630859375,-0.3006487488746643,0.11137065291404724,0.07202544063329697
1761336279904862700,0.78786279296875,-0.32964828610420227,0.08323021233081818,0.028263870626688004
1761336279914929700,0.7979296875,-0.3419257402420044,0.06070386618375778,-0.016182955354452133
1761336279924995600,0.80799560546875,-0.34582066535949707,0.06657147407531738,-0.05237969011068344
1761336279935062500,0.8180625,-0.3397534489631653,0.0914456695318222,-0.06580282002687454
1761336279945128700,0.828128662109375,-0.3305170238018036,0.09997092932462692,-0.06842643767595291
1761336279955195600,0.838195556640625,-0.3114416003227234,0.08732090890407562,-0.0702483057975769
1761336279965261800,0.84826171875,-0.28204235434532166,0.06461510807275772,-0.06832811236381531
1761336279975328800,0.858328857421875,-0.2551968991756439,0.03740452602505684,-0.07934960722923279
1761336279985394700,0.868394775390625,-0.22919036448001862,0.03885478153824806,-0.11841224879026413
1761336279995461600,0.878461669921875,-0.208761528134346,0.0868593230843544,-0.18183302879333496
1761336280005527800,0.88852783203125,-0.17587371170520782,0.13744671642780304,-0.24236001074314117
1761336280015594800,0.8985947265625,-0.14038123190402985,0.11254029721021652,-0.24202153086662292
1761336280025660400,0.908660400390625,-0.09761529415845871,0.11486032605171204,-0.20338599383831024
1761336280035727600,0.9187275390625,-0.06671702861785889,0.14307758212089539,-0.15663179755210876
1761336280045793500,0.92879345703125,-0.051434800028800964,0.14333871006965637,-0.12496741861104965
1761336280055860500,0.938860595703125,-0.03667556121945381,0.1142633929848671,-0.1129017025232315
1761336280065926700,0.9489267578125,-0.009638581424951553,0.08750779926776886,-0.09565840661525726
1761336280075993600,0.95899365234375,0.015333614312112331,0.07582370936870575,-0.061482593417167664
1761336280086059500,0.9690595703125,0.031834814697504044,0.07365161925554276,-0.023713044822216034
1761336280096126500,0.97912646484375,0.041709814220666885,0.07749589532613754,0.008974061347544193
1761336280106192600,0.989192626953125,0.04155844822525978,0.07868901640176773,0.028138726949691772
1761336280116259600,0.999259521484375,0.0356970950961113,0.07488761842250824,0.030572056770324707
1761336280126325500,1.009325439453125,0.038808710873126984,0.08499207347631454,0.03457166627049446
1761336280136392700,1.019392822265625,0.03575592860579491,0.11180824041366577,0.03630485013127327
1761336280146458600,1.029458740234375,0.03307250887155533,0.12307748943567276,0.020670244470238686
1761336280156525600,1.039525634765625,0.029685236513614655,0.13142569363117218,0.0028036292642354965
1761336280166591700,1.049591796875,0.029883138835430145,0.14292676746845245,-0.01945355162024498
1761336280176658700,1.05965869140625,0.021264351904392242,0.15318313241004944,-0.03360026329755783
1761336280186724600,1.069724609375,0.010901618748903275,0.16656944155693054,-0.04426192864775658
1761336280196791600,1.07979150390625,-0.0006802026182413101,0.18169352412223816,-0.046963170170784
1761336280206857700,1.089857666015625,-0.008671574294567108,0.18090592324733734,-0.0626099705696106
1761336280216924700,1.099924560546875,-0.017205141484737396,0.16648223996162415,-0.08178206533193588
1761336280226990600,1.109990478515625,-0.022775743156671524,0.15559867024421692,-0.09850331395864487
1761336280237057800,1.120057861328125,-0.027462106198072433,0.14372389018535614,-0.09971505403518677
1761336280247123700,1.130123779296875,-0.026128806173801422,0.1336556226015091,-0.09200502932071686
1761336280257190700,1.140190673828125,-0.022586271166801453,0.09614047408103943,-0.07729586213827133
1761336280267256800,1.1502568359375,-0.013894732110202312,0.07353124767541885,-0.04473166912794113
1761336280277323800,1.16032373046875,-0.002398665063083172,0.06476998329162598,-0.0008028238080441952
1761336280287389400,1.170389404296875,0.0034188299905508757,0.05897144228219986,0.048561036586761475
1761336280297456600,1.18045654296875,0.00560342101380229,0.06120743602514267,0.08605407923460007
1761336280307522600,1.1905224609375,0.013021836057305336,0.06609836220741272,0.08678801357746124
1761336280317589500,1.200589599609375,0.015025598928332329,0.0574827678501606,0.06729314476251602
1761336280327655700,1.21065576171875,0.022304881364107132,0.039979539811611176,0.027485646307468414
1761336280337722600,1.22072265625,0.027313753962516785,0.02513694390654564,-0.001236011739820242
1761336280347788500,1.23078857421875,0.03660905361175537,0.02435908280313015,-0.007470153737813234
1761336280357855500,1.24085546875,0.040001120418310165,0.021859174594283104,0.00022345222532749176
1761336280367921700,1.250921630859375,0.04182631894946098,-0.0011539123952388763,0.00889640860259533
1761336280377988600,1.260988525390625,0.04020099341869354,-0.004799513146281242,0.03687930852174759
1761336280388054500,1.271054443359375,0.038463082164525986,0.006323487497866154,0.07084718346595764
1761336280398122200,1.281122314453125,0.0333881638944149,0.026159778237342834,0.10782810300588608
1761336280408188400,1.2911884765625,0.02292655222117901,0.03903613239526749,0.12252000719308853
1761336280418255400,1.30125537109375,0.01727426052093506,0.04442077875137329,0.12260069698095322
1761336280428321300,1.3113212890625,0.009698456153273582,0.047033753246068954,0.11144496500492096
1761336280438388200,1.32138818359375,0.0075567420572042465,0.053594183176755905,0.09343026578426361
1761336280448454400,1.331454345703125,0.0025519314222037792,0.06515181809663773,0.08665844053030014
1761336280458521300,1.341521240234375,0.004065139219164848,0.09707406163215637,0.08708187937736511
1761336280468587500,1.35158740234375,0.022134527564048767,0.12760354578495026,0.08945898711681366
1761336280478654500,1.361654541015625,0.03407188132405281,0.11685024201869965,0.06528227776288986
1761336280488720100,1.37172021484375,0.04755232855677605,0.09074241667985916,0.03412255644798279
1761336280498787300,1.381787353515625,0.06419895589351654,0.07089734077453613,0.009164475835859776
1761336280508853200,1.391853271484375,0.07608114928007126,0.058112554252147675,-0.0029860716313123703
1761336280518920200,1.401920166015625,0.08826643973588943,0.05947742611169815,0.00908364076167345
1761336280528986000,1.411986083984375,0.10055210441350937,0.0667487233877182,0.027025168761610985
1761336280539053300,1.42205322265625,0.11581920832395554,0.06269779056310654,0.042068034410476685
1761336280549119200,1.432119140625,0.14094673097133636,0.0645887702703476,0.06023456156253815
1761336280559186200,1.442186279296875,0.1674899309873581,0.0836159884929657,0.08638041466474533
1761336280569252400,1.45225244140625,0.18258342146873474,0.10251122713088989,0.09961599111557007
1761336280579319300,1.4623193359375,0.19386084377765656,0.10582446306943893,0.09788094460964203
1761336280589385200,1.47238525390625,0.20560486614704132,0.09965083003044128,0.07825417071580887
1761336280599452200,1.4824521484375,0.2161685675382614,0.09415992349386215,0.06058089807629585
1761336280609518300,1.492518310546875,0.22305764257907867,0.09696104377508163,0.057491302490234375
1761336280619585300,1.502585205078125,0.2301432490348816,0.11666790395975113,0.061463408172130585
1761336280629651200,1.512651123046875,0.2442416250705719,0.1320960372686386,0.05660330504179001
1761336280639718400,1.522718505859375,0.2625764310359955,0.12987789511680603,0.03585940599441528
1761336280649784300,1.532784423828125,0.28669682145118713,0.09688194841146469,0.0019289767369627953
1761336280659851300,1.542851318359375,0.3025226593017578,0.05497444421052933,-0.011465657502412796
1761336280669917400,1.55291748046875,0.30843251943588257,0.029304269701242447,-0.0034901751205325127
1761336280679984400,1.562984375,0.3057224750518799,0.015477403067052364,0.020430071279406548
1761336280690050300,1.57305029296875,0.31369805335998535,-0.003349591977894306,0.052526168525218964
1761336280700117200,1.5831171875,0.3207447826862335,0.003561844117939472,0.07499419897794724
1761336280710183400,1.593183349609375,0.2969760298728943,0.052636872977018356,0.0979592353105545
1761336280720250400,1.60325048828125,0.2714157998561859,0.07313309609889984,0.0976622998714447
1761336280730316300,1.61331640625,0.2595488131046295,0.05029686540365219,0.07036975771188736
1761336280740383500,1.623383544921875,0.2607722878456116,0.02165110595524311,0.05118914693593979
1761336280750449200,1.63344921875,0.2529747486114502,0.003985783085227013,0.04969990253448486
1761336280760516400,1.643516357421875,0.24435408413410187,-0.011604628525674343,0.07683032751083374
1761336280770582300,1.653582275390625,0.22882556915283203,-0.014294073916971684,0.11992603540420532
1761336280780649200,1.663649169921875,0.22228564321994781,-0.009171484038233757,0.1542576402425766
1761336280790715100,1.673715087890625,0.2183639258146286,-0.015869658440351486,0.17870265245437622
1761336280800782000,1.683781982421875,0.2123126983642578,-0.022381354123353958,0.19488881528377533
1761336280810848300,1.69384814453125,0.21409115195274353,-0.017624948173761368,0.1955316960811615
1761336280820915200,1.703915283203125,0.21263466775417328,0.008766178973019123,0.19308558106422424
1761336280830981400,1.7139814453125,0.22000446915626526,0.02936912700533867,0.19535744190216064
1761336280841048300,1.72404833984375,0.2313884198665619,0.05295008420944214,0.20022623240947723
1761336280851114200,1.7341142578125,0.24931900203227997,0.07269389927387238,0.20071665942668915
1761336280861181200,1.74418115234375,0.26259830594062805,0.06534144282341003,0.1887180507183075
1761336280871247400,1.754247314453125,0.2765432596206665,0.06829407811164856,0.18331094086170197
1761336280881314300,1.764314208984375,0.28082242608070374,0.10196974873542786,0.1950749307870865
1761336280891380200,1.774380126953125,0.2765338122844696,0.1418205052614212,0.20091800391674042
1761336280901447400,1.784447509765625,0.2667650878429413,0.16914667189121246,0.19472268223762512
1761336280911513300,1.794513427734375,0.2541177272796631,0.19001519680023193,0.17133906483650208
1761336280921580300,1.804580322265625,0.24256327748298645,0.1931614875793457,0.13850724697113037
1761336280931646500,1.814646484375,0.2309180498123169,0.19372403621673584,0.08554267883300781
1761336280941713400,1.82471337890625,0.2144908756017685,0.1884632259607315,0.03835120424628258
1761336280951779300,1.834779296875,0.20287421345710754,0.20738589763641357,0.023554012179374695
1761336280961846300,1.84484619140625,0.1998262256383896,0.23233865201473236,0.03525248169898987
1761336280971912400,1.854912353515625,0.2043890357017517,0.2580791711807251,0.04155852273106575
1761336280981979400,1.8649794921875,0.20292909443378448,0.26018252968788147,0.04359983652830124
1761336280992045300,1.87504541015625,0.20064418017864227,0.2477312535047531,0.04575382173061371
1761336281002112500,1.885112548828125,0.19877997040748596,0.24474824965000153,0.04950568452477455
1761336281012178200,1.89517822265625,0.2031414657831192,0.2683289349079132,0.0746186375617981
1761336281022245400,1.905245361328125,0.2115360051393509,0.2974969446659088,0.0944778323173523
1761336281032311300,1.915311279296875,0.22968536615371704,0.308167427778244,0.08839650452136993
1761336281042378200,1.925378173828125,0.2528306245803833,0.29205289483070374,0.0484650693833828
1761336281052444200,1.935444091796875,0.27797263860702515,0.24596484005451202,-0.005742932669818401
1761336281062511000,1.945510986328125,0.30866101384162903,0.1921282410621643,-0.06418227404356003
1761336281072577300,1.955577392578125,0.3515990972518921,0.17057958245277405,-0.08560799807310104
1761336281082644200,1.965644287109375,0.39229273796081543,0.18266580998897552,-0.06645640730857849
1761336281092710100,1.975710205078125,0.431853711605072,0.20285530388355255,-0.019926171749830246
1761336281102777300,1.98577734375,0.46246835589408875,0.2038593292236328,0.021844711154699326
1761336281112843300,1.99584326171875,0.49345552921295166,0.19816111028194427,0.04012157768011093
1761336281122910200,2.00591015625,0.5170154571533203,0.1792348325252533,0.03559447079896927
1761336281132976400,2.015976318359375,0.5417306423187256,0.13468307256698608,0.020916402339935303
1761336281143043300,2.026043212890625,0.5666253566741943,0.10171128064393997,0.017203688621520996
1761336281153109200,2.036109130859375,0.5892989635467529,0.08163253962993622,0.03538542985916138
1761336281163176200,2.04617626953125,0.6005627512931824,0.07365398108959198,0.06671672314405441
1761336281173242400,2.056242431640625,0.6092080473899841,0.08902844786643982,0.10573554784059525
1761336281183309300,2.066309326171875,0.593984842300415,0.11211459338665009,0.12662245333194733
1761336281193375200,2.076375244140625,0.5697972178459167,0.11483553797006607,0.12308269739151001
1761336281203442400,2.0864423828125,0.5401570200920105,0.09568154811859131,0.10075262188911438
1761336281213508400,2.09650830078125,0.5176689624786377,0.09660882502794266,0.090208999812603
1761336281223575300,2.1065751953125,0.49960365891456604,0.09798727929592133,0.09598086774349213
1761336281233641500,2.116641357421875,0.49094849824905396,0.07563410699367523,0.09662511199712753
1761336281243708400,2.12670849609375,0.4651651382446289,0.06561076641082764,0.10304279625415802
1761336281253774300,2.1367744140625,0.43117645382881165,0.04660002142190933,0.12021633982658386
1761336281263841300,2.14684130859375,0.4132762849330902,0.060702789574861526,0.15714825689792633
1761336281273907200,2.1569072265625,0.40539783239364624,0.09164026379585266,0.20968478918075562
1761336281283974100,2.16697412109375,0.40902718901634216,0.1407284438610077,0.2599077522754669
1761336281294040300,2.177040283203125,0.4085032045841217,0.19806799292564392,0.30347323417663574
1761336281304107300,2.187107177734375,0.39752456545829773,0.24255716800689697,0.31598663330078125
1761336281314173200,2.197173095703125,0.3858352601528168,0.2927144765853882,0.27160343527793884
1761336281324240100,2.207240234375,0.38104262948036194,0.2565021514892578,0.1996016800403595
1761336281334306300,2.217306396484375,0.38060101866722107,0.20606690645217896,0.12206581234931946
1761336281344373200,2.227373291015625,0.38118264079093933,0.18810121715068817,0.060196589678525925
1761336281354439200,2.237439208984375,0.39128604531288147,0.1848430186510086,0.007021880708634853
1761336281364506400,2.24750634765625,0.40060895681381226,0.1827114224433899,-0.030368102714419365
1761336281374572300,2.257572265625,0.4081779420375824,0.18849048018455505,-0.05337914451956749
1761336281384639200,2.26763916015625,0.4030630588531494,0.18079687654972076,-0.07673080265522003
1761336281394704400,2.277704345703125,0.38748130202293396,0.17281439900398254,-0.10013982653617859
1761336281404771300,2.287771240234375,0.36721277236938477,0.17602351307868958,-0.12014628946781158
1761336281414837200,2.297837158203125,0.35165712237358093,0.16807113587856293,-0.14248797297477722
1761336281424904400,2.307904541015625,0.3506573736667633,0.15185168385505676,-0.17947395145893097
1761336281434970400,2.317970458984375,0.35296374559402466,0.11063353717327118,-0.20259514451026917
1761336281445037300,2.328037353515625,0.3717520534992218,0.07977096736431122,-0.21647793054580688
1761336281455103500,2.338103515625,0.3938823640346527,0.05904524773359299,-0.2154099941253662
1761336281465170400,2.34817041015625,0.4248533248901367,0.03693435341119766,-0.19558408856391907
1761336281475236400,2.358236328125,0.44865238666534424,0.039800975471735,-0.16043350100517273
1761336281485303300,2.36830322265625,0.4573793113231659,0.05772671476006508,-0.11688761413097382
1761336281495369500,2.378369384765625,0.4818856120109558,0.05051197111606598,-0.06938265264034271
1761336281505436400,2.3884365234375,0.5187839865684509,0.052578844130039215,-0.014787587337195873
1761336281515502300,2.39850244140625,0.5498654842376709,0.07143295556306839,0.012143690139055252
1761336281525569500,2.408569580078125,0.569296658039093,0.07516617327928543,0.009172668680548668
1761336281535635500,2.418635498046875,0.585408627986908,0.08312320709228516,-0.016334503889083862
1761336281545702400,2.428702392578125,0.6018081307411194,0.09884411096572876,-0.042344264686107635
1761336281555768600,2.4387685546875,0.6104875802993774,0.11096896231174469,-0.06225438416004181
1761336281565835500,2.44883544921875,0.6181226372718811,0.11135458946228027,-0.0805809274315834
1761336281575901200,2.458901123046875,0.6207559704780579,0.11281783133745193,-0.09764008224010468
1761336281585968000,2.468968017578125,0.6161606907844543,0.09940429031848907,-0.11377723515033722
1761336281596034300,2.479034423828125,0.6161401271820068,0.07815734297037125,-0.11327067762613297
1761336281606101200,2.489101318359375,0.622252345085144,0.08241333812475204,-0.07044652104377747
1761336281616167400,2.49916748046875,0.6299791932106018,0.08586399257183075,-0.020322568714618683
1761336281626234400,2.509234375,0.6328068971633911,0.03709937632083893,0.03338486701250076
1761336281636300300,2.51930029296875,0.6187083721160889,-0.00030272360891103745,0.07078060507774353
1761336281646366500,2.529366455078125,0.5968589782714844,-0.02994157373905182,0.07306133955717087
1761336281656433400,2.539433349609375,0.5778248906135559,-0.06993108987808228,0.046498142182826996
1761336281666499300,2.549499267578125,0.5642004609107971,-0.10625553876161575,0.0020110998302698135
1761336281676566300,2.559566162109375,0.5588386654853821,-0.10648562014102936,-0.04300268739461899
1761336281686632400,2.569632568359375,0.57088702917099,-0.08657476305961609,-0.0890820249915123
1761336281696699400,2.579699462890625,0.5882934331893921,-0.06452761590480804,-0.11062587052583694
1761336281706765300,2.589765380859375,0.5987806916236877,-0.0542595349252224,-0.11881695687770844
1761336281716832500,2.59983251953125,0.5998442769050598,-0.06212086230516434,-0.10977564752101898
1761336281726898400,2.6098984375,0.5983383059501648,-0.05397212132811546,-0.09224379062652588
1761336281736965400,2.61996533203125,0.5845462083816528,-0.04666907340288162,-0.06305372714996338
1761336281747031600,2.630031494140625,0.5514370203018188,-0.05482527241110802,-0.024860799312591553
1761336281757098500,2.640098388671875,0.5122328996658325,-0.06261182576417923,0.006562432274222374
1761336281767164400,2.650164306640625,0.4690404236316681,-0.08603885769844055,0.02706504613161087
1761336281777231400,2.6602314453125,0.435492604970932,-0.07521166652441025,0.034342799335718155
1761336281787297500,2.670297607421875,0.40121451020240784,-0.07381431013345718,0.026397526264190674
1761336281797364500,2.680364501953125,0.36650341749191284,-0.07882487773895264,0.013038380071520805
1761336281807430100,2.69043017578125,0.3378773629665375,-0.0738852471113205,0.006355976685881615
1761336281817497600,2.70049755859375,0.3053644299507141,-0.04521125927567482,0.010144323110580444
1761336281827563300,2.710563232421875,0.2753567099571228,-0.005446269176900387,0.01986672542989254
1761336281837630200,2.720630126953125,0.24049122631549835,0.04798860102891922,0.020046740770339966
1761336281847696400,2.7306962890625,0.21199913322925568,0.08094096183776855,0.0016349758952856064
1761336281857763300,2.740763427734375,0.19610892236232758,0.09338552504777908,-0.029780428856611252
1761336281867829200,2.750829345703125,0.1942252665758133,0.10607202351093292,-0.051941655576229095
1761336281877896200,2.760896240234375,0.1963798552751541,0.11880127340555191,-0.07133428007364273
1761336281887962400,2.77096240234375,0.2029203176498413,0.12453985959291458,-0.08146201819181442
1761336281898029300,2.781029296875,0.2120322287082672,0.11849593371152878,-0.08305776119232178
1761336281908095200,2.79109521484375,0.2216813862323761,0.1086297258734703,-0.07320939749479294
1761336281918162400,2.801162353515625,0.23465321958065033,0.09693283587694168,-0.05639262497425079
1761336281928228400,2.811228271484375,0.24672825634479523,0.08931885659694672,-0.0529925674200058
1761336281938295300,2.82129541015625,0.25501036643981934,0.08703073114156723,-0.048591818660497665
1761336281948361500,2.831361572265625,0.2566487491130829,0.07424995303153992,-0.05253782495856285
1761336281958428400,2.841428466796875,0.25616455078125,0.04886902496218681,-0.04479566961526871
1761336281968494300,2.851494384765625,0.2612922191619873,0.0334051139652729,-0.026916269212961197
1761336281978561300,2.861561279296875,0.2654077410697937,0.01629059389233589,-0.009452828206121922
1761336281988627500,2.87162744140625,0.2710709571838379,-0.002429031766951084,0.0024371203035116196
1761336281998694400,2.8816943359375,0.27972808480262756,-0.018654076382517815,0.0020992225036025047
1761336282008760600,2.891760498046875,0.29105237126350403,-0.02627551183104515,-0.0011801938526332378
1761336282018827500,2.90182763671875,0.2978811264038086,-0.017233464866876602,0.002468505874276161
1761336282028893400,2.9118935546875,0.302179217338562,0.009480438195168972,0.007781246677041054
1761336282038960400,2.92196044921875,0.2999601662158966,0.022082006558775902,-0.002327343448996544
1761336282049026600,2.932026611328125,0.3050992786884308,0.01977597363293171,-0.009477664716541767
1761336282059093500,2.942093505859375,0.310474693775177,-0.0014944486320018768,-0.012000713497400284
1761336282069159200,2.9521591796875,0.3119452893733978,-0.051297158002853394,-0.014464404433965683
1761336282079226400,2.962226318359375,0.31321829557418823,-0.07369726896286011,-0.023513885214924812
1761336282089292300,2.972292236328125,0.3137722313404083,-0.06911663711071014,-0.041884105652570724
1761336282099359200,2.982359130859375,0.31857606768608093,-0.037921492010354996,-0.07028499245643616
1761336282109425400,2.99242529296875,0.3251735270023346,-0.06749163568019867,-0.08320185542106628
1761336282119492400,3.002492431640625,0.34455931186676025,-0.11683620512485504,-0.06231226772069931
1761336282129558300,3.012558349609375,0.3396258056163788,-0.11609824001789093,-0.019196487963199615
1761336282139625200,3.022625244140625,0.3430292308330536,-0.10982833802700043,0.03230874612927437
1761336282149691400,3.03269140625,0.323233962059021,-0.09032946825027466,0.06498946249485016
1761336282159758300,3.04275830078125,0.3050367534160614,-0.07401775568723679,0.07280100136995316
1761336282169824300,3.05282421875,0.2723635137081146,-0.04239644110202789,0.056734152138233185
1761336282179891500,3.062891357421875,0.2534605860710144,-0.028883174061775208,0.03139439970254898
1761336282189957400,3.072957275390625,0.22853711247444153,-0.011584079824388027,0.0033081714063882828
1761336282200024300,3.0830244140625,0.22070366144180298,-0.016499482095241547,-0.026228830218315125
1761336282210090500,3.093090576171875,0.19971050322055817,0.004971987567842007,-0.060108765959739685
1761336282220157400,3.103157470703125,0.19968348741531372,0.02805769070982933,-0.07520857453346252
1761336282230223400,3.113223388671875,0.18679991364479065,0.037037868052721024,-0.0843016728758812
1761336282240290300,3.123290283203125,0.17980441451072693,0.0414888821542263,-0.08040463924407959
1761336282250356500,3.1333564453125,0.16975657641887665,0.041979167610406876,-0.06735329329967499
1761336282260423400,3.14342333984375,0.16216416656970978,0.025421764701604843,-0.04745255410671234
1761336282270489300,3.1534892578125,0.14141441881656647,0.022675246000289917,-0.028637854382395744
1761336282280556500,3.163556640625,0.12122727930545807,0.014912324026226997,-0.013455670326948166
1761336282290622500,3.17362255859375,0.09569848328828812,0.013181004673242569,-0.0053458125330507755
1761336282300689400,3.183689453125,0.07665634155273438,0.003827081061899662,-0.017386749386787415
1761336282310755600,3.193755615234375,0.06546174734830856,0.004314440302550793,-0.025575172156095505
1761336282320822500,3.203822509765625,0.05191788449883461,0.010832649655640125,-0.023064594715833664
1761336282330888200,3.21388818359375,0.04862089082598686,0.014148817397654057,-0.01859447918832302
1761336282340955100,3.223955078125,0.04385056719183922,0.020209331065416336,-0.00785799976438284
1761336282351021300,3.234021240234375,0.04323963820934296,0.030235067009925842,0.0035256827250123024
1761336282361088300,3.244088134765625,0.05056064948439598,0.04633553326129913,0.00869224313646555
1761336282371154400,3.254154541015625,0.05351409688591957,0.062691330909729,-0.0019161934033036232
1761336282381221400,3.264221435546875,0.052428022027015686,0.06614775210618973,-0.014179658144712448
1761336282391287300,3.274287353515625,0.05039549618959427,0.06857070326805115,-0.022719085216522217
1761336282401355000,3.28435498046875,0.04520029574632645,0.07341832667589188,-0.036695100367069244
1761336282411421200,3.294421142578125,0.026414889842271805,0.0030195293948054314,-0.03558136895298958
1761336282421488000,3.304488037109375,0.005205618217587471,-0.050257887691259384,-0.02156371995806694
1761336282431554000,3.314553955078125,0.005938786547631025,-0.004858450032770634,-0.02873082086443901
1761336282441621000,3.32462109375,0.00816681794822216,0.047413215041160583,-0.05524054169654846
1761336282451687200,3.334687255859375,0.020362764596939087,0.06780876964330673,-0.09044699370861053
1761336282461754000,3.344754150390625,0.025524083524942398,0.02861740253865719,-0.07476186752319336
1761336282471820000,3.354820068359375,0.028895646333694458,0.02778676338493824,-0.036089032888412476
1761336282481886000,3.364885986328125,0.025127144530415535,0.03288433700799942,0.005044963210821152
1761336282491953000,3.374952880859375,0.0210005771368742,0.033387407660484314,0.024382442235946655
1761336282502018800,3.385018798828125,0.016581617295742035,0.024064581841230392,0.025587450712919235
1761336282512086000,3.3950859375,0.01534830592572689,0.01138553861528635,0.02189737558364868
1761336282522152000,3.40515185546875,0.014462517574429512,-0.004018820822238922,0.020338431000709534
1761336282532219000,3.415218994140625,0.006948940455913544,-0.020768772810697556,0.024150479584932327
1761336282542285000,3.42528515625,-0.00024158041924238205,-0.04261334612965584,0.028985921293497086
1761336282552352000,3.43535205078125,-0.00322165759280324,-0.06624863296747208,0.029720421880483627
1761336282562418000,3.44541796875,-0.006478491239249706,-0.08206838369369507,0.030923258513212204
1761336282572484900,3.45548486328125,-0.013018681667745113,-0.08940938860177994,0.036643460392951965
1761336282582551000,3.465551025390625,-0.014474199153482914,-0.07859240472316742,0.04603060334920883
1761336282592618000,3.475617919921875,-0.018702499568462372,-0.06258281320333481,0.0480966791510582
1761336282602684000,3.485683837890625,-0.02422802522778511,-0.05459439754486084,0.03271399438381195
1761336282612751000,3.495751220703125,-0.03036608174443245,-0.04460035264492035,0.01659148558974266
1761336282622817000,3.505817138671875,-0.033697981387376785,-0.024659503251314163,0.009754687547683716
1761336282632884000,3.515884033203125,-0.04070662334561348,-0.004676206968724728,0.013104146346449852
1761336282642950100,3.5259501953125,-0.044827647507190704,0.008662561886012554,0.01208376232534647
1761336282653017000,3.53601708984375,-0.04318501055240631,0.020845193415880203,0.01626226305961609
1761336282663083000,3.5460830078125,-0.0401635468006134,0.029297612607479095,0.013305582106113434
1761336282673150000,3.55614990234375,-0.0396261140704155,0.03559545800089836,0.009356914088129997
1761336282683216100,3.566216064453125,-0.035996802151203156,0.03886071592569351,-0.00001119263470172882
1761336282693283000,3.576282958984375,-0.02916339784860611,0.04277130216360092,-0.0062096999026834965
1761336282703349000,3.586348876953125,-0.024555571377277374,0.05834770202636719,-0.012103878892958164
1761336282713416200,3.596416259765625,-0.026165451854467392,0.07729583233594894,-0.012189632281661034
1761336282723481900,3.60648193359375,-0.027537278831005096,0.08251375705003738,-0.02524566277861595
1761336282733548800,3.616548828125,-0.023149985820055008,0.08603791147470474,-0.03172140568494797
1761336282743615000,3.626614990234375,-0.02356397733092308,0.09890735894441605,-0.028705520555377007
1761336282753682000,3.636681884765625,-0.030146514996886253,0.12074395269155502,-0.02475365623831749
1761336282763747800,3.646747802734375,-0.038561560213565826,0.13800187408924103,-0.022191442549228668
1761336282773815000,3.65681494140625,-0.04206841066479683,0.14965692162513733,-0.011898323893547058
1761336282783881000,3.666880859375,-0.04606437683105469,0.1501547396183014,-0.0068135871551930904
1761336282793948000,3.676947998046875,-0.03651614487171173,0.13804134726524353,-0.010940954089164734
1761336282804014000,3.68701416015625,-0.01790400594472885,0.12270142883062363,-0.021315641701221466
1761336282814081000,3.6970810546875,-0.006070783827453852,0.08887422829866409,-0.02495538257062435
1761336282824147000,3.70714697265625,0.0021693971939384937,0.05902319401502609,-0.02086314558982849
1761336282834214000,3.7172138671875,0.013555742800235748,0.03287893906235695,-0.005618944298475981
1761336282844280000,3.727280029296875,0.017754463478922844,0.007908152416348457,0.005740785971283913
1761336282854347000,3.737346923828125,0.020530277863144875,-0.00853127520531416,0.01240135170519352
1761336282864413000,3.747412841796875,0.018535295501351357,-0.017871085554361343,0.017299450933933258
1761336282874480000,3.757480224609375,0.009780419059097767,-0.029237989336252213,0.020163947716355324
1761336282884546000,3.767546142578125,0.00819744449108839,-0.04028121381998062,0.02227502129971981
1761336282894613000,3.777613037109375,0.0032713955733925104,-0.03980743885040283,0.033262692391872406
1761336282904679200,3.78767919921875,0.0010058674961328506,-0.03590793535113335,0.050468239933252335
1761336282914746000,3.79774609375,0.001648221630603075,-0.020878121256828308,0.05170821025967598
1761336282924812000,3.80781201171875,0.003759408602491021,-0.016111349686980247,0.038557492196559906
1761336282934879000,3.81787890625,0.0017287484370172024,-0.015267660841345787,0.021776380017399788
1761336282944945200,3.827945068359375,-0.005036776885390282,0.0036227358505129814,0.012780038639903069
1761336282955012000,3.83801220703125,-0.01832568272948265,0.026122719049453735,0.010694516822695732
1761336282965078000,3.848078125,-0.03087359480559826,0.03880823403596878,0.00655272975564003
1761336282975145200,3.858145263671875,-0.036147184669971466,0.05233362689614296,-0.00008599786087870598
1761336282985211000,3.8682109375,-0.04088220000267029,0.0629439726471901,-0.011879808269441128
1761336282995277800,3.87827783203125,-0.05623159557580948,0.0763053148984909,-0.021030962467193604
1761336283005344000,3.888343994140625,-0.06908010691404343,0.09110899269580841,-0.02996053919196129
1761336283015411000,3.898410888671875,-0.08123183995485306,0.10360720753669739,-0.04407209903001785
1761336283025476900,3.908476806640625,-0.09047146141529083,0.09961988031864166,-0.05600424110889435
1761336283035543800,3.918543701171875,-0.09016546607017517,0.08123581111431122,-0.059293244034051895
1761336283045610000,3.92860986328125,-0.09014447778463364,0.06225872039794922,-0.054133761674165726
1761336283055677000,3.938677001953125,-0.08195152878761292,0.047059789299964905,-0.031001277267932892
1761336283065742800,3.948742919921875,-0.07703721523284912,0.03534816950559616,-0.0009383787401020527
1761336283075809000,3.95880908203125,-0.0712624117732048,0.022759143263101578,0.02822829596698284
1761336283085876000,3.9688759765625,-0.05726248398423195,0.015322222374379635,0.052254367619752884
1761336283095942100,3.978942138671875,-0.0462535098195076,0.00711489375680685,0.06472142040729523
1761336283106009000,3.989009033203125,-0.03619665279984474,0.007644232362508774,0.062009651213884354
1761336283116075000,3.999074951171875,-0.030436934903264046,0.015030530281364918,0.045833297073841095
1761336283126141200,4.00914111328125,-0.021954765543341637,0.025943633168935776,0.015443701297044754
1761336283136208100,4.0192080078125,-0.010327039286494255,0.02934681996703148,-0.016329683363437653
1761336283146274000,4.029274169921875,0.003731254953891039,0.03270826116204262,-0.034267671406269073
1761336283156341000,4.039341064453125,0.019807159900665283,0.03875629976391792,-0.041810810565948486
1761336283166407200,4.0494072265625,0.03484230488538742,0.032755132764577866,-0.027608169242739677
1761336283176474000,4.05947412109375,0.05016475170850754,0.031394053250551224,-0.00928414799273014
1761336283186539800,4.069539794921875,0.05597284436225891,0.027568422257900238,0.012599311769008636
1761336283196607200,4.079607177734375,0.05616643279790878,0.01746082305908203,0.02700149267911911
1761336283206673000,4.0896728515625,0.052624695003032684,0.019276302307844162,0.031667083501815796
1761336283216739800,4.09973974609375,0.04633908346295357,0.012491695582866669,0.03338564932346344
1761336283226806000,4.109805908203125,0.048307158052921295,0.012753484770655632,0.032141685485839844
1761336283236873000,4.119873046875,0.051814641803503036,0.020469974726438522,0.03138025477528572
1761336283246939000,4.12993896484375,0.057637378573417664,0.031673360615968704,0.021194463595747948
1761336283257005800,4.140005859375,0.06751416623592377,0.020830953493714333,0.0035147620365023613
1761336283267072000,4.150072021484375,0.07738224416971207,0.018022915348410606,-0.016237903386354446
1761336283277139000,4.160138916015625,0.08665739744901657,0.017542870715260506,-0.03227405622601509
1761336283287204900,4.170204833984375,0.09206254780292511,0.02237863838672638,-0.0291280634701252
1761336283297272000,4.18027197265625,0.09643782675266266,0.02730235457420349,-0.01712910830974579
1761336283307338000,4.190337890625,0.09851083159446716,0.02344796434044838,-0.007372085936367512
1761336283317405000,4.200405029296875,0.09532506763935089,0.02029053308069706,0.007468618452548981
1761336283327471000,4.21047119140625,0.08977264910936356,0.00741361640393734,0.00995867419987917
1761336283337538000,4.2205380859375,0.08476975560188293,-0.0003398265689611435,0.01507078018039465
1761336283347604000,4.23060400390625,0.07962319999933243,-0.002173946239054203,0.01303053181618452
1761336283357671000,4.2406708984375,0.07169022411108017,0.0004256106913089752,0.010725144296884537
1761336283367737000,4.250737060546875,0.06662888824939728,0.005688815377652645,0.0001350841484963894
1761336283377804000,4.260803955078125,0.066513292491436,0.01160955335944891,-0.018037203699350357
1761336283387870000,4.270869873046875,0.06837990134954453,0.0021119220182299614,-0.03846897557377815
1761336283397937200,4.280937255859375,0.06416469067335129,0.00371365062892437,-0.04414483159780502
1761336283408003000,4.291003173828125,0.05585215985774994,0.01798553206026554,-0.03809439390897751
1761336283418070000,4.301070068359375,0.049708325415849686,0.019971061497926712,-0.02941138483583927
1761336283428136200,4.31113623046875,0.0484185554087162,0.016807492822408676,-0.011696835979819298
1761336283438203100,4.321203125,0.04386626183986664,0.02592799812555313,0.005710300989449024
1761336283448269000,4.33126904296875,0.04039270058274269,0.03000716120004654,0.019340094178915024
1761336283458336000,4.3413359375,0.03200899437069893,0.03296099230647087,0.010263200849294662
1761336283468402200,4.351402099609375,0.02546880580484867,0.03001154214143753,-0.01231960579752922
1761336283478469000,4.36146923828125,0.015849504619836807,0.027803029865026474,-0.03579413890838623
1761336283488535000,4.37153515625,0.00942489504814148,0.0279681459069252,-0.04333141818642616
1761336283498602200,4.381602294921875,0.0001531001180410385,0.02747359871864319,-0.04971128702163696
1761336283508668200,4.391668212890625,-0.007290434557944536,0.010961731895804405,-0.05229881405830383
1761336283518734300,4.401734375,-0.005593839567154646,0.0006926935166120529,-0.04144129157066345
1761336283528801300,4.41180126953125,-0.0020092246122658253,-0.019256779924035072,-0.027798451483249664
1761336283538867200,4.4218671875,0.0014644712209701538,-0.03124411031603813,-0.0077849579975008965
1761336283548934100,4.43193408203125,0.0008402261883020401,-0.03637309372425079,0.018107358366250992
1761336283559001000,4.4420009765625,-0.00020000431686639786,-0.03471926599740982,0.03452254831790924
1761336283569067300,4.4520673828125,0.0008415356278419495,-0.038687482476234436,0.029190972447395325
1761336283579134200,4.46213427734375,0.004549188539385796,-0.03770237788558006,0.02344413846731186
1761336283589200100,4.4722001953125,0.012477334588766098,-0.03558753803372383,0.017916450276970863
1761336283599267000,4.48226708984375,0.01354179996997118,-0.03300267457962036,0.012349911034107208
1761336283609333000,4.4923330078125,0.014941176399588585,-0.022924721240997314,0.014220600947737694
1761336283619400000,4.50239990234375,0.013341415673494339,-0.00761447474360466,0.013376111164689064
1761336283629466000,4.512466064453125,0.018503231927752495,0.0075491731986403465,-0.0019447426311671734
1761336283639533000,4.522532958984375,0.02329505793750286,0.020167231559753418,-0.023386385291814804
1761336283649599000,4.532598876953125,0.032236505299806595,0.021926864981651306,-0.04954469949007034
1761336283659666200,4.542666259765625,0.03677373379468918,0.016004260629415512,-0.062326010316610336
1761336283669732000,4.552732177734375,0.046050891280174255,0.0037234006449580193,-0.048104822635650635
1761336283679799000,4.562799072265625,0.05473226308822632,0.0032701315358281136,-0.010946271941065788
1761336283689865200,4.572865234375,0.05766066908836365,-0.010326739400625229,0.018530940636992455
1761336283699932200,4.58293212890625,0.06543123722076416,-0.03227784484624863,0.02903551235795021
1761336283709998000,4.592998046875,0.0676090344786644,-0.04614340886473656,0.02586996741592884
1761336283720065000,4.60306494140625,0.060022227466106415,-0.055883124470710754,0.02382093109190464
1761336283730131200,4.613131103515625,0.0447692833840847,-0.058917853981256485,0.012950567528605461
1761336283740198100,4.6231982421875,0.02512500435113907,-0.055061861872673035,0.011998487636446953
1761336283750264000,4.63326416015625,0.005021678749471903,-0.04699207842350006,0.011717032641172409
1761336283760331300,4.643331298828125,-0.008902925997972488,-0.045273005962371826,0.013836642727255821
1761336283770397200,4.653397216796875,-0.02054023928940296,-0.042494773864746094,0.016164273023605347
1761336283780464000,4.663464111328125,-0.03694184869527817,-0.023111488670110703,0.023195017129182816
1761336283790530300,4.6735302734375,-0.05542231723666191,-0.014690682291984558,0.01994272693991661
1761336283800597200,4.68359716796875,-0.06852080672979355,-0.011989437974989414,0.02222239226102829
1761336283810663200,4.6936630859375,-0.08142419904470444,0.007199196144938469,0.021261606365442276
1761336283820730000,4.703730224609375,-0.09006375819444656,0.015460055321455002,0.02693680115044117
1761336283830796300,4.71379638671875,-0.09099753946065903,0.02049221843481064,0.01606573536992073
1761336283840863200,4.72386328125,-0.08394096791744232,0.017866872251033783,-0.004353518597781658
1761336283850929000,4.733928955078125,-0.07856803387403488,0.02100738137960434,-0.023647069931030273
1761336283860996000,4.74399609375,-0.07278364896774292,0.012463691644370556,-0.03549068048596382
1761336283871062000,4.75406201171875,-0.06135134771466255,0.007580437697470188,-0.02325655333697796
1761336283881128200,4.764128173828125,-0.049698688089847565,0.012490774504840374,0.005491738207638264
1761336283891195100,4.774195068359375,-0.04820627346634865,0.014877662993967533,0.02987810969352722
1761336283901261000,4.784260986328125,-0.05212431773543358,0.010395563207566738,0.03550137206912041
1761336283911328000,4.794327880859375,-0.04892655462026596,-0.00012245867401361465,0.017575036734342575
1761336283921394200,4.804394287109375,-0.049186479300260544,-0.010527428239583969,-0.0005227397195994854
1761336283931461000,4.814461181640625,-0.05156126618385315,-0.01651388220489025,-0.010437816381454468
1761336283941527000,4.824527099609375,-0.052386581897735596,-0.02156083844602108,-0.009027140215039253
1761336283951594200,4.83459423828125,-0.05321463197469711,-0.022150345146656036,0.0023844651877880096
1761336283961660200,4.84466015625,-0.05982299894094467,-0.015680726617574692,0.018653981387615204
1761336283971727000,4.85472705078125,-0.0689343586564064,-0.006127240136265755,0.034999605268239975
1761336283981793300,4.864793212890625,-0.07744821161031723,0.0009748777374625206,0.03623451292514801
1761336283991860200,4.874860107421875,-0.08596983551979065,0.0183921679854393,0.035524882376194
1761336284001926100,4.884926025390625,-0.09319845587015152,0.02795291692018509,0.01975390873849392
1761336284011993000,4.8949931640625,-0.1058134064078331,0.0204385444521904,-0.006733909249305725
1761336284022059300,4.905059326171875,-0.10591327399015427,0.008051648736000061,-0.015107952989637852
1761336284032126200,4.915126220703125,-0.10975675284862518,0.005565980449318886,-0.017253899946808815
1761336284042192100,4.925192138671875,-0.1190677061676979,0.006908213719725609,-0.0018254085443913937
1761336284052259300,4.93525927734375,-0.127458393573761,0.010735096409916878,0.01229109801352024
1761336284062325200,4.9453251953125,-0.1336345225572586,0.02452228218317032,0.029297243803739548
1761336284072392200,4.95539208984375,-0.13522548973560333,0.04208502545952797,0.031063398346304893
1761336284082458000,4.9654580078125,-0.13256658613681793,0.04607550799846649,0.015615997835993767
1761336284092525000,4.975525146484375,-0.12883462011814117,0.053624384105205536,-0.013672873377799988
1761336284102591000,4.985591064453125,-0.12235382199287415,0.06158510595560074,-0.029850512742996216
1761336284112658000,4.995657958984375,-0.11563577502965927,0.0598880909383297,-0.040221504867076874
1761336284122724000,5.00572412109375,-0.09972312301397324,0.036482904106378555,-0.033862143754959106
1761336284132791000,5.015791015625,-0.08878610283136368,0.004346068017184734,-0.014545563608407974
1761336284142857000,5.02585693359375,-0.07586098462343216,-0.04076042398810387,0.002179620787501335
1761336284152924200,5.035924072265625,-0.07024458795785904,-0.09362812340259552,0.022059164941310883
1761336284162990000,5.045989990234375,-0.05737140029668808,-0.14464257657527924,0.043076831847429276
1761336284173057000,5.05605712890625,-0.05549447983503342,-0.1820521503686905,0.06537596881389618
1761336284183123200,5.066123291015625,-0.06033797562122345,-0.21826981008052826,0.09149332344532013
1761336284193190100,5.076190185546875,-0.06840483099222183,-0.23881226778030396,0.11078223586082458
1761336284203256000,5.086256103515625,-0.07917385548353195,-0.24380357563495636,0.13089735805988312
1761336284213323000,5.096322998046875,-0.09053152054548264,-0.22475002706050873,0.13758189976215363
1761336284223389200,5.10638916015625,-0.09936629235744476,-0.20006360113620758,0.13061641156673431
1761336284233456000,5.1164560546875,-0.1012430265545845,-0.18748770654201508,0.11109064519405365
1761336284243522000,5.12652197265625,-0.09929652512073517,-0.17473863065242767,0.0896599143743515
1761336284253589200,5.13658935546875,-0.10020701587200165,-0.1585875302553177,0.0717681497335434
1761336284263655200,5.1466552734375,-0.10877227783203125,-0.14643418788909912,0.06735449284315109
1761336284273722000,5.15672216796875,-0.11321696639060974,-0.13324841856956482,0.07445915788412094
1761336284283788300,5.166788330078125,-0.1188916340470314,-0.12136805802583694,0.08502817898988724
1761336284293855200,5.176855224609375,-0.12579098343849182,-0.12313881516456604,0.08833687007427216
1761336284303921200,5.186921142578125,-0.13142730295658112,-0.13108807802200317,0.08531497418880463
1761336284313988000,5.196988037109375,-0.1416298896074295,-0.15169556438922882,0.08548976480960846
1761336284324054300,5.20705419921875,-0.16047175228595734,-0.16570432484149933,0.09648595005273819
1761336284334121200,5.217121337890625,-0.18986302614212036,-0.16664685308933258,0.11591611057519913
1761336284344187100,5.227187255859375,-0.2266269028186798,-0.16099989414215088,0.11938674747943878
1761336284354254000,5.237254150390625,-0.25180113315582275,-0.15534506738185883,0.11219027638435364
1761336284364320000,5.247320068359375,-0.2746331989765167,-0.1421046257019043,0.08368805795907974
1761336284374386200,5.25738623046875,-0.2882862985134125,-0.1325419396162033,0.05201227590441704
1761336284384453000,5.267453125,-0.3047430217266083,-0.13276058435440063,0.021979808807373047
1761336284394519000,5.27751904296875,-0.3223807215690613,-0.1334785372018814,0.02286357991397381
1761336284404585500,5.28758544921875,-0.32924023270606995,-0.10580217093229294,0.06166130676865578
1761336284414651600,5.297651611328125,-0.3331291675567627,-0.07733629643917084,0.10911989212036133
1761336284424718600,5.307718505859375,-0.3407266438007355,-0.05664300173521042,0.13136260211467743
1761336284434784800,5.31778466796875,-0.35192716121673584,-0.046720102429389954,0.11949658393859863
1761336284444851700,5.327851806640625,-0.3562215268611908,-0.03475319221615791,0.08344323188066483
1761336284454917600,5.337917724609375,-0.35722965002059937,-0.020579932257533073,0.03488118201494217
1761336284464984600,5.347984619140625,-0.3591548502445221,-0.008555760607123375,-0.010528909973800182
1761336284475050800,5.35805078125,-0.35726797580718994,0.005166340619325638,-0.04385308921337128
1761336284485117700,5.36811767578125,-0.35982540249824524,0.021957039833068848,-0.055209606885910034
1761336284495183600,5.37818359375,-0.36411619186401367,0.039429593831300735,-0.060973264276981354
1761336284505250800,5.388250732421875,-0.3697035014629364,0.044963639229536057,-0.0687028169631958
1761336284515316700,5.398316650390625,-0.37295469641685486,0.04597792401909828,-0.0811973437666893
1761336284525383700,5.4083837890625,-0.3804054260253906,0.041183169931173325,-0.09386254101991653
1761336284535449600,5.41844970703125,-0.3894447088241577,0.025200054049491882,-0.11324290931224823
1761336284545516800,5.428516845703125,-0.4004789888858795,0.010992088355123997,-0.10874509811401367
1761336284555582500,5.43858251953125,-0.41849514842033386,0.014346422627568245,-0.07678113877773285
1761336284565649400,5.4486494140625,-0.4417421519756317,0.037512198090553284,-0.04520883411169052
1761336284575715600,5.458715576171875,-0.46731793880462646,0.05258810520172119,-0.019641604274511337
1761336284585782500,5.468782470703125,-0.47709572315216064,0.05837275832891464,-0.01624288037419319
1761336284595848400,5.478848388671875,-0.48411500453948975,0.05743904784321785,-0.030532922595739365
1761336284605915600,5.48891552734375,-0.4910197854042053,0.05096038058400154,-0.061175789684057236
1761336284615981600,5.498981689453125,-0.4981791377067566,0.045713793486356735,-0.09370312094688416
1761336284626048500,5.509048583984375,-0.5034894943237305,0.038790371268987656,-0.13038337230682373
1761336284636114700,5.51911474609375,-0.5151138305664062,0.04286684840917587,-0.1528530716896057
1761336284646181600,5.529181640625,-0.5364153981208801,0.06785449385643005,-0.14932945370674133
1761336284656247600,5.53924755859375,-0.5676036477088928,0.09894236922264099,-0.1257108896970749
1761336284666314500,5.549314453125,-0.5911816954612732,0.11644919961690903,-0.10135973244905472
1761336284676380700,5.559380615234375,-0.6025072336196899,0.1301279217004776,-0.08930832892656326
1761336284686447600,5.569447509765625,-0.6066247820854187,0.12680482864379883,-0.09201595932245255
1761336284696513500,5.579513427734375,-0.6088384389877319,0.12437981367111206,-0.11336452513933182
1761336284706580700,5.589580810546875,-0.6022186279296875,0.11641617119312286,-0.14506332576274872
1761336284716646700,5.599646728515625,-0.5902537107467651,0.09667108207941055,-0.17171111702919006
1761336284726713600,5.609713623046875,-0.564123272895813,0.07269890606403351,-0.18739047646522522
1761336284736779800,5.61977978515625,-0.5272870659828186,0.039823856204748154,-0.18996143341064453
1761336284746845700,5.629845703125,-0.48192304372787476,-0.00015818048268556595,-0.1792784333229065
1761336284756912600,5.63991259765625,-0.44260430335998535,-0.0620315819978714,-0.1651403307914734
1761336284766978800,5.649978759765625,-0.4075011610984802,-0.09410110861063004,-0.13734759390354156
1761336284777045800,5.660045654296875,-0.3973812162876129,-0.07533124089241028,-0.10298256576061249
1761336284787111400,5.670111328125,-0.41479402780532837,-0.03653191402554512,-0.06857452541589737
1761336284797178600,5.6801787109375,-0.4526227116584778,-0.0005274973809719086,-0.04679934307932854
1761336284807244500,5.69024462890625,-0.49167585372924805,0.02105582505464554,-0.050411656498909
1761336284817311500,5.7003115234375,-0.5355732440948486,0.035669002681970596,-0.0686262995004654
1761336284827377700,5.710377685546875,-0.5765931010246277,0.04572456702589989,-0.08581807464361191
1761336284837444600,5.720444580078125,-0.625555694103241,0.060301996767520905,-0.09035646170377731
1761336284847510500,5.730510498046875,-0.6437392234802246,0.03523152694106102,-0.06690626591444016
1761336284857577500,5.740577392578125,-0.6268911361694336,0.018802138045430183,-0.014042897149920464
1761336284867643600,5.7506435546875,-0.6036462783813477,-0.006413736380636692,0.038841888308525085
1761336284877710600,5.760710693359375,-0.5881704688072205,-0.043734826147556305,0.06837185472249985
1761336284887776500,5.770776611328125,-0.572149395942688,-0.08118126541376114,0.09738167375326157
1761336284897843700,5.78084375,-0.5566496849060059,-0.09414366632699966,0.12060468643903732
1761336284907909600,5.79090966796875,-0.5464495420455933,-0.09399186074733734,0.1439126580953598
1761336284917976600,5.8009765625,-0.5367014408111572,-0.0905759334564209,0.14104293286800385
1761336284928042800,5.811042724609375,-0.5261132717132568,-0.09381460398435593,0.11523450911045074
1761336284938109700,5.821109619140625,-0.5190756320953369,-0.09696703404188156,0.07147812843322754
1761336284948175600,5.831175537109375,-0.5189802646636963,-0.10214634984731674,0.01423268299549818
1761336284958242600,5.84124267578125,-0.5244494676589966,-0.10469885915517807,-0.04221726581454277
1761336284968308700,5.851308837890625,-0.5344009399414062,-0.1017209142446518,-0.0652054101228714
1761336284978375700,5.861375732421875,-0.5482050180435181,-0.07883097231388092,-0.055008579045534134
1761336284988441600,5.871441650390625,-0.5582595467567444,-0.03169728070497513,-0.01888785883784294
1761336284998508800,5.8815087890625,-0.5725408792495728,0.0029605505988001823,0.023270539939403534
1761336285008574700,5.89157470703125,-0.5785292387008667,0.021722786128520966,0.04393826797604561
1761336285018641700,5.9016416015625,-0.5767499208450317,0.03863473981618881,0.04384709149599075
1761336285028707600,5.91170751953125,-0.574941098690033,0.042561572045087814,0.03028520941734314
1761336285038774800,5.92177490234375,-0.5755102634429932,0.048554666340351105,0.01861080527305603
1761336285048840400,5.93184033203125,-0.5679514408111572,0.0742935836315155,0.004254769533872604
1761336285058907400,5.941907470703125,-0.5654267072677612,0.10140694677829742,-0.006221942603588104
1761336285068973600,5.9519736328125,-0.5614641904830933,0.1247548833489418,-0.03274782747030258
1761336285079040500,5.96204052734375,-0.5470547080039978,0.12668737769126892,-0.07091914862394333
1761336285089106400,5.9721064453125,-0.532542884349823,0.09332410246133804,-0.11489886045455933
1761336285099173600,5.982173583984375,-0.5152801871299744,0.03689207136631012,-0.16063562035560608
1761336285109239600,5.992239501953125,-0.4992724359035492,-0.0044974470511078835,-0.1752622276544571
1761336285119306500,6.002306396484375,-0.4836297035217285,-0.027759011834859848,-0.15812888741493225
1761336285129372700,6.01237255859375,-0.47501784563064575,-0.02566709741950035,-0.11448633670806885
1761336285139438600,6.0224384765625,-0.47171345353126526,-0.00909247063100338,-0.05787913128733635
1761336285149505500,6.032505615234375,-0.4714423418045044,0.002304527908563614,-0.004341070540249348
1761336285159571700,6.04257177734375,-0.47393375635147095,0.0006683478131890297,0.028002414852380753
1761336285169638700,6.052638671875,-0.4813069999217987,-0.004929349757730961,0.0462794229388237
1761336285179704600,6.06270458984375,-0.492651104927063,-0.02723926678299904,0.04573117569088936
1761336285189771800,6.072771728515625,-0.5042558312416077,-0.05211105942726135,0.041502077132463455
1761336285199837700,6.082837646484375,-0.5056120753288269,-0.05855103209614754,0.06282883882522583
1761336285209904600,6.092904541015625,-0.5132332444190979,-0.05136822164058685,0.09924037754535675
1761336285219970800,6.102970703125,-0.5119902491569519,-0.04539094120264053,0.1206778734922409
1761336285230037800,6.113037841796875,-0.5064164996147156,-0.04615926742553711,0.12880291044712067
1761336285240103700,6.123103759765625,-0.49567362666130066,-0.054337501525878906,0.11912619322538376
1761336285250170600,6.133170654296875,-0.48883116245269775,-0.0559774786233902,0.09540727734565735
1761336285260236800,6.14323681640625,-0.4816920757293701,-0.05241964012384415,0.06798200309276581
1761336285270303700,6.1533037109375,-0.478119432926178,-0.04643764719367027,0.028346972540020943
1761336285280369400,6.163369384765625,-0.48549219965934753,-0.048597510904073715,-0.008791131898760796
1761336285290436600,6.1734365234375,-0.48631858825683594,-0.04628721624612808,-0.041341885924339294
1761336285300502500,6.18350244140625,-0.4874328374862671,-0.05142499506473541,-0.05294453352689743
1761336285310569500,6.193569580078125,-0.4879492223262787,-0.044283460825681686,-0.04653776437044144
1761336285320635600,6.2036357421875,-0.4874449670314789,-0.027421575039625168,-0.033288367092609406
1761336285330702600,6.21370263671875,-0.4878060817718506,-0.02665964514017105,-0.021978989243507385
1761336285340768500,6.2237685546875,-0.48614829778671265,-0.025491684675216675,-0.013679711148142815
1761336285350835500,6.23383544921875,-0.4870487153530121,-0.04462915658950806,-0.012854663655161858
1761336285360901600,6.243901611328125,-0.4819267988204956,-0.056357529014348984,0.0012937970459461212
1761336285370968600,6.253968505859375,-0.4759541153907776,-0.047695599496364594,0.030273517593741417
1761336285381034500,6.264034423828125,-0.4771868586540222,-0.03850961849093437,0.06279750168323517
1761336285391101700,6.274101806640625,-0.4774947166442871,-0.03939991444349289,0.08015704900026321
1761336285401167400,6.28416748046875,-0.4734853506088257,-0.05090557038784027,0.08103248476982117
1761336285411234300,6.294234375,-0.4680463671684265,-0.06466346234083176,0.07318654656410217
1761336285421300500,6.304300537109375,-0.45613837242126465,-0.07209036499261856,0.05349929630756378
1761336285431367400,6.314367431640625,-0.4437461495399475,-0.07826410233974457,0.04211774468421936
1761336285441433300,6.324433349609375,-0.4357845187187195,-0.081098273396492,0.03768057003617287
1761336285451500300,6.334500244140625,-0.41983193159103394,-0.07501587271690369,0.031777407974004745
1761336285461566500,6.34456640625,-0.4095904529094696,-0.06996231526136398,0.025127142667770386
1761336285471633400,6.35463330078125,-0.4037695825099945,-0.0751514881849289,-0.000052513089030981064
1761336285481699600,6.364699462890625,-0.3948529064655304,-0.08865927904844284,-0.030190832912921906
1761336285491766500,6.3747666015625,-0.39320412278175354,-0.10517753660678864,-0.05957295745611191
1761336285501832400,6.38483251953125,-0.3919408917427063,-0.11365919560194016,-0.08313648402690887
1761336285511898600,6.394898681640625,-0.3912721574306488,-0.11324907094240189,-0.10078631341457367
1761336285521965600,6.404965576171875,-0.3843618929386139,-0.10485807061195374,-0.10376980900764465
1761336285532031500,6.415031494140625,-0.3867667317390442,-0.0974116101861,-0.09438802301883698
1761336285542098400,6.425098388671875,-0.3784160315990448,-0.08929899334907532,-0.09282399713993073
1761336285552164600,6.43516455078125,-0.36786165833473206,-0.08497482538223267,-0.09140878915786743
1761336285562231600,6.4452314453125,-0.35384055972099304,-0.09005651623010635,-0.09799820929765701
1761336285572297500,6.45529736328125,-0.34399643540382385,-0.0976337417960167,-0.11035820841789246
1761336285582364700,6.46536474609375,-0.34141668677330017,-0.10745131969451904,-0.13899797201156616
1761336285592430600,6.4754306640625,-0.34337571263313293,-0.12092398852109909,-0.17237910628318787
1761336285602497500,6.48549755859375,-0.3383471369743347,-0.13384957611560822,-0.2348695695400238
1761336285612563700,6.495563720703125,-0.3297256827354431,-0.19825759530067444,-0.29758965969085693
1761336285622630700,6.505630615234375,-0.31487932801246643,-0.23755110800266266,-0.31353622674942017
1761336285632696300,6.5156962890625,-0.2991379201412201,-0.20971521735191345,-0.267894446849823
1761336285642763500,6.525763427734375,-0.2947763502597809,-0.17133712768554688,-0.2063898891210556
1761336285652829400,6.535829345703125,-0.3051251173019409,-0.14288896322250366,-0.15823833644390106
1761336285662896400,6.545896484375,-0.3206973671913147,-0.13542647659778595,-0.129473477602005
1761336285672962300,6.55596240234375,-0.3324131369590759,-0.1447848379611969,-0.12816107273101807
1761336285683029500,6.566029541015625,-0.33776789903640747,-0.16474731266498566,-0.13394619524478912
1761336285693095400,6.576095458984375,-0.3385317027568817,-0.16360215842723846,-0.14202702045440674
1761336285703162400,6.586162353515625,-0.33433768153190613,-0.1758262813091278,-0.14293397963047028
1761336285713228500,6.596228515625,-0.33812764286994934,-0.20233245193958282,-0.14174409210681915
1761336285723295500,6.60629541015625,-0.34084323048591614,-0.22591492533683777,-0.11318660527467728
1761336285733361400,6.616361328125,-0.28725430369377136,-0.29736143350601196,-0.07742035388946533
1761336285743428400,6.626428466796875,-0.30817854404449463,-0.25327110290527344,-0.07555248588323593
1761336285753494500,6.63649462890625,-0.2954382598400116,-0.2231539487838745,-0.052816279232501984
1761336285763561500,6.6465615234375,-0.31550055742263794,-0.23333917558193207,-0.0488814041018486
1761336285773627400,6.65662744140625,-0.31681668758392334,-0.23791635036468506,-0.04370635002851486
1761336285783694600,6.666694580078125,-0.30221956968307495,-0.23841404914855957,-0.05624525249004364
1761336285793760500,6.676760498046875,-0.28798869252204895,-0.2534915506839752,-0.07440774887800217
1761336285803827500,6.686827392578125,-0.27386239171028137,-0.2551881670951843,-0.09335649758577347
1761336285813893600,6.6968935546875,-0.2667781114578247,-0.2595629394054413,-0.11729378998279572
1761336285823960600,6.706960693359375,-0.25249767303466797,-0.31114494800567627,-0.15886980295181274
1761336285834026500,6.717026611328125,-0.2561019957065582,-0.24653694033622742,-0.1924687772989273
1761336285844092700,6.7270927734375,-0.23473165929317474,-0.24594157934188843,-0.20319409668445587
1761336285854159600,6.73715966796875,-0.2280617654323578,-0.26775285601615906,-0.1942346841096878
1761336285864225300,6.747225341796875,-0.20759910345077515,-0.281307190656662,-0.1759430468082428
1761336285874292700,6.757292724609375,-0.18696865439414978,-0.29648587107658386,-0.13247093558311462
1761336285884358400,6.7673583984375,-0.1706138700246811,-0.291496604681015,-0.049224112182855606
1761336285894425300,6.77742529296875,-0.12443386763334274,-0.2914300262928009,0.049896612763404846
1761336285904491500,6.787491455078125,-0.13828276097774506,-0.22991736233234406,0.11142927408218384
1761336285914558500,6.797558349609375,-0.1255970597267151,-0.18295837938785553,0.1569613516330719
1761336285924624400,6.807624267578125,-0.1304054856300354,-0.17635484039783478,0.14650975167751312
1761336285934691300,6.81769140625,-0.133238285779953,-0.18235734105110168,0.10471384972333908
1761336285944757500,6.827757568359375,-0.1324600875377655,-0.15179665386676788,0.053931824862957
1761336285954824400,6.837824462890625,-0.12942355871200562,-0.15563800930976868,0.014637146145105362
1761336285964890400,6.847890380859375,-0.10870364308357239,-0.16982246935367584,-0.006763719022274017
1761336285974957600,6.85795751953125,-0.0948333665728569,-0.15162456035614014,-0.0019660345278680325
1761336285985023500,6.8680234375,-0.0842941477894783,-0.10119154304265976,0.022694217041134834
1761336285995090400,6.87809033203125,-0.08958344906568527,-0.06861389428377151,0.0431843101978302
1761336286005156600,6.888156494140625,-0.08894607424736023,-0.07488911598920822,0.04975862056016922
1761336286015223600,6.8982236328125,-0.07715865224599838,-0.07492586970329285,0.05215786397457123
1761336286025289500,6.90828955078125,-0.0701131746172905,-0.07337736338376999,0.049942631274461746
1761336286035356400,6.9183564453125,-0.06601110100746155,-0.06723079085350037,0.03943752497434616
1761336286045422600,6.928422607421875,-0.07585012912750244,-0.06163005530834198,0.02691633813083172
1761336286055489500,6.938489501953125,-0.08886633068323135,-0.07028000801801682,0.01097119227051735
1761336286065555500,6.948555419921875,-0.10412905365228653,-0.0807780995965004,0.002104366198182106
1761336286075622700,6.95862255859375,-0.11304131895303726,-0.07503020763397217,0.015541345812380314
1761336286085688600,6.9686884765625,-0.11959245800971985,-0.06879974901676178,0.031579554080963135
1761336286095755500,6.978755615234375,-0.12004359066486359,-0.05778385326266289,0.05107229948043823
1761336286105821700,6.98882177734375,-0.1104997918009758,-0.047352999448776245,0.07073274999856949
1761336286115888600,6.998888671875,-0.023765169084072113,-0.10877374559640884,0.10375355184078217
1761336286125954300,7.008954345703125,0.04287412017583847,-0.12317517399787903,0.1399662047624588
1761336286136021500,7.019021484375,0.1127147227525711,-0.13296815752983093,0.15435312688350677
1761336286146087400,7.02908740234375,0.14519906044006348,-0.15304356813430786,0.15031206607818604
1761336286156154400,7.039154296875,0.16260309517383575,-0.1631697118282318,0.11591547727584839
1761336286166220500,7.049220458984375,0.16932260990142822,-0.17322583496570587,0.0604681670665741
1761336286176287500,7.05928759765625,0.16608767211437225,-0.1797710806131363,0.000330531969666481
1761336286186353400,7.069353515625,0.1703585833311081,-0.1701052337884903,-0.05775512382388115
1761336286196420400,7.07942041015625,0.1602068692445755,-0.1579742729663849,-0.11493638902902603
1761336286206486500,7.089486572265625,0.14441674947738647,-0.13951517641544342,-0.16402359306812286
1761336286216552400,7.099552490234375,0.11041563749313354,-0.12309864163398743,-0.20685414969921112
1761336286226619400,7.109619384765625,0.054009322077035904,-0.09234786778688431,-0.21983323991298676
1761336286236685600,7.119685546875,0.016365274786949158,-0.047856830060482025,-0.1858164221048355
1761336286246752500,7.12975244140625,0.020317193120718002,-0.023473944514989853,-0.12471966445446014
1761336286256818400,7.139818359375,0.04461214691400528,0.004516943357884884,-0.060590215027332306
1761336286266885600,7.1498857421875,0.06534580141305923,0.01695515401661396,-0.022419296205043793
1761336286276951600,7.15995166015625,0.07399947941303253,0.009602166712284088,-0.009156754240393639
1761336286287018500,7.1700185546875,0.08723726868629456,-0.0009386343881487846,-0.009326184168457985
1761336286297084700,7.180084716796875,0.09848512709140778,-0.010269551537930965,-0.01694229245185852
1761336286307151600,7.190151611328125,0.11490700393915176,-0.021087633445858955,-0.02437712624669075
1761336286317217500,7.200217529296875,0.1296529322862625,-0.027082141488790512,-0.022733421996235847
1761336286327284500,7.210284423828125,0.15085887908935547,-0.024955717846751213,-0.024525977671146393
1761336286337350700,7.2203505859375,0.15492552518844604,-0.03136860951781273,-0.026744123548269272
1761336286347417600,7.23041748046875,0.15726906061172485,-0.03412950411438942,-0.02589574083685875
1761336286357483300,7.240483154296875,0.14924761652946472,-0.030543822795152664,-0.019300952553749084
1761336286367550700,7.25055078125,0.14019234478473663,-0.012615787796676159,-0.009729865938425064
1761336286377616400,7.260616455078125,0.1310872584581375,0.006757376715540886,0.0013254480436444283
1761336286387683300,7.270683349609375,0.12134788185358047,0.019367370754480362,-0.0019104834645986557
1761336286397749500,7.28074951171875,0.1064339131116867,0.025347232818603516,-0.018380537629127502
1761336286407817000,7.29081689453125,0.080333411693573,0.02511686086654663,-0.04252100735902786
1761336286417883000,7.3008828125,0.06837236136198044,0.029431447386741638,-0.05832766741514206
1761336286427949800,7.31094970703125,0.060322538018226624,0.03503870964050293,-0.06353688985109329
1761336286438016000,7.32101611328125,0.045761968940496445,0.059079065918922424,-0.05634262412786484
1761336286448083000,7.3310830078125,0.037466034293174744,0.08021378517150879,-0.04751287400722504
1761336286458148900,7.34114892578125,0.031228642910718918,0.08417683839797974,-0.05199577286839485
1761336286468216000,7.351216064453125,0.032742690294981,0.05268557742238045,-0.07212433218955994
1761336286478282000,7.361281982421875,0.04649631679058075,0.0296710766851902,-0.1114530935883522
1761336286488349000,7.371348876953125,0.05671288073062897,0.0007546553388237953,-0.14227348566055298
1761336286498415000,7.3814150390625,0.07739312946796417,-0.029241859912872314,-0.1538659632205963
1761336286508482000,7.39148193359375,0.09597036242485046,-0.036042939871549606,-0.1537570357322693
1761336286518548000,7.4015478515625,0.10432949662208557,-0.05079445242881775,-0.1523439586162567
1761336286528614100,7.4116142578125,0.11279197037220001,-0.07235115021467209,-0.15218369662761688
1761336286538681000,7.42168115234375,0.11818727105855942,-0.08983613550662994,-0.1317031979560852
1761336286548747000,7.4317470703125,0.11601172387599945,-0.07932847738265991,-0.08715914189815521
1761336286558814000,7.44181396484375,0.10623446106910706,-0.0531807616353035,-0.025660621002316475
1761336286568880000,7.451880126953125,0.09417497366666794,-0.03442376106977463,0.03235389664769173
1761336286578947000,7.461947021484375,0.08663849532604218,-0.016577918082475662,0.053643472492694855
1761336286589013000,7.472012939453125,0.08472098410129547,-0.010677250102162361,0.05265609547495842
1761336286599080200,7.482080078125,0.08801744133234024,-0.007937656715512276,0.018138600513339043
1761336286609145900,7.492145751953125,0.08721879869699478,-0.007772976066917181,-0.017646154388785362
1761336286619213000,7.502213134765625,0.08327998220920563,-0.015048998408019543,-0.03978261724114418
1761336286629279000,7.512279052734375,0.08636734634637833,-0.012393125332891941,-0.04704173281788826
1761336286639346000,7.522345947265625,0.08575748652219772,-0.012048779055476189,-0.029622796922922134
1761336286649411800,7.532411865234375,0.08191703259944916,-0.02132708951830864,-0.016181571409106255
1761336286659478800,7.542478759765625,0.07979635894298553,-0.025276023894548416,-0.00029182061553001404
1761336286669545000,7.552544921875,0.06651387363672256,-0.026528682559728622,0.00885042268782854
1761336286679612000,7.56261181640625,0.056184008717536926,-0.030592933297157288,0.008748956955969334
1761336286689678000,7.572677978515625,0.04253498837351799,-0.029238011687994003,0.010753696784377098
1761336286699745000,7.5827451171875,0.03291005641222,-0.03655291721224785,-0.0010305242612957954
1761336286709811000,7.59281103515625,0.026024697348475456,-0.055494703352451324,-0.015747636556625366
1761336286719878000,7.6028779296875,0.024398040026426315,-0.07274851948022842,-0.032701585441827774
1761336286729944000,7.612944091796875,0.020508430898189545,-0.08645493537187576,-0.04684358090162277
1761336286740011000,7.623010986328125,0.014010317623615265,-0.09946022182703018,-0.0576096773147583
1761336286750077000,7.633076904296875,0.008497696369886398,-0.10484132170677185,-0.05609496682882309
1761336286760144000,7.643143798828125,0.004822534043341875,-0.10690979659557343,-0.03390257805585861
1761336286770210000,7.6532099609375,0.007625435013324022,-0.09136880934238434,0.007403005845844746
1761336286780277000,7.663277099609375,0.007715183775871992,-0.05478602275252342,0.049906257539987564
1761336286790343200,7.67334326171875,-0.0017113410867750645,-0.0331592932343483,0.058878183364868164
1761336286800410000,7.68341015625,-0.013191429898142815,-0.031698014587163925,0.04355515167117119
1761336286810476000,7.69347607421875,-0.010726787149906158,-0.026331454515457153,0.010601012036204338
1761336286820542200,7.703542236328125,-0.006582643371075392,-0.021089822053909302,-0.02506696991622448
1761336286830609200,7.713609130859375,-0.00160154327750206,-0.02462025359272957,-0.05388054996728897
1761336286840675000,7.723675048828125,-0.00731988251209259,-0.024317186325788498,-0.07412111014127731
1761336286850742000,7.733741943359375,-0.00945778377354145,-0.03394613042473793,-0.09079645574092865
1761336286860808000,7.743807861328125,0.001838546246290207,-0.02023085206747055,-0.1171519011259079
1761336286870875000,7.753875,0.010378801263868809,-0.0038390997797250748,-0.15189507603645325
1761336286880940800,7.76394091796875,0.012199338525533676,-0.00877660047262907,-0.20437932014465332
1761336286891008000,7.774008056640625,0.018918180838227272,-0.03885401040315628,-0.2622835040092468
1761336286901074000,7.784073974609375,0.026923909783363342,-0.0708678737282753,-0.29329735040664673
1761336286911140900,7.794140869140625,0.02842482179403305,-0.07421593368053436,-0.2928372621536255
1761336286921207000,7.80420703125,0.02342926524579525,-0.05157533288002014,-0.2837257981300354
1761336286931274000,7.81427392578125,0.014485927298665047,-0.02505091205239296,-0.24148434400558472
1761336286941340000,7.82433984375,-0.002532204147428274,-0.024175530299544334,-0.2033689171075821
1761336286951406800,7.83440673828125,-0.018437491729855537,-0.037511713802814484,-0.16347022354602814
1761336286961473000,7.84447314453125,-0.02916337177157402,-0.03291349858045578,-0.11547420918941498
1761336286971540000,7.8545400390625,-0.04560599476099014,-0.012330461293458939,-0.06889072805643082
1761336286981606000,7.86460595703125,-0.05547939985990524,0.007679466158151627,-0.035847291350364685
1761336286991673000,7.874673095703125,-0.0659649521112442,0.021526280790567398,-0.025771567597985268
1761336287001739000,7.884739013671875,-0.07249262928962708,-0.008844411000609398,-0.042241618037223816
1761336287011806000,7.894805908203125,-0.0677812397480011,-0.03977808356285095,-0.049447283148765564
1761336287021872000,7.9048720703125,-0.06311804801225662,-0.06672794371843338,-0.05159352719783783
1761336287031939000,7.91493896484375,-0.05576426908373833,-0.08514620363712311,-0.04162503033876419
1761336287042005000,7.9250048828125,-0.05908922478556633,-0.0987994372844696,-0.013545725494623184
1761336287052072000,7.935072021484375,-0.05808362737298012,-0.08399278670549393,0.017627159133553505
1761336287062138000,7.94513818359375,-0.05531473830342293,-0.05122178792953491,0.057765256613492966
1761336287072205000,7.955205078125,-0.05883729085326195,-0.016375398263335228,0.07169433683156967
1761336287082271000,7.96527099609375,-0.05582578480243683,0.014490372501313686,0.05676838010549545
1761336287092338200,7.975338134765625,-0.05217425152659416,0.01072507444769144,0.029443059116601944
1761336287102403800,7.98540380859375,-0.04351045563817024,-0.009850773960351944,0.0008345860987901688
1761336287112470000,7.995469970703125,-0.03376412019133568,-0.0208920706063509,-0.01214207336306572
1761336287122537000,8.005536865234374,-0.024150792509317398,-0.013596897013485432,-0.00009668013080954552
1761336287132603000,8.015602783203125,-0.022918816655874252,0.015487484633922577,0.021319396793842316
1761336287142669800,8.025669921875,-0.022905606776475906,0.03708483278751373,0.029307592660188675
1761336287152736000,8.035736083984375,-0.018366515636444092,0.03993414714932442,0.01071686577051878
1761336287162803000,8.045802978515624,0.0005708360113203526,0.025087475776672363,-0.02829914540052414
1761336287172868900,8.055868896484375,0.017765801399946213,-0.0017175078392028809,-0.05827542021870613
1761336287182936000,8.06593603515625,0.02631719596683979,-0.02731606736779213,-0.06326746940612793
1761336287193002000,8.076001953125,0.024799460545182228,-0.03681636229157448,-0.028511613607406616
1761336287203068000,8.08606787109375,0.02309585176408291,-0.05504810810089111,0.012392091564834118
1761336287213135000,8.096135009765625,0.024346739053726196,-0.07281378656625748,0.04451753944158554
1761336287223201000,8.106200927734376,0.021300509572029114,-0.06613045185804367,0.05098215863108635
1761336287233268000,8.11626806640625,0.002123884856700897,-0.05379921570420265,0.026827819645404816
1761336287243334100,8.126334228515624,-0.008207681588828564,-0.041253842413425446,-0.0019468078389763832
1761336287253401000,8.136401123046875,0.000897399615496397,-0.022192534059286118,-0.0170059185475111
1761336287263467000,8.146467041015624,0.013261140324175358,0.015244047157466412,-0.010793880559504032
1761336287273534000,8.156533935546875,0.02246023155748844,0.06262780725955963,-0.0008515017107129097
1761336287283600100,8.16660009765625,0.021146060898900032,0.12043516337871552,-0.0009378171525895596
1761336287293667000,8.1766669921875,0.007649959530681372,0.16340206563472748,-0.012376626953482628
1761336287303733000,8.18673291015625,-0.01507466472685337,0.15871268510818481,-0.04589501768350601
1761336287313800200,8.19680029296875,-0.04595188796520233,0.20869676768779755,-0.02795090712606907
1761336287323865900,8.206865966796874,-0.05775480717420578,0.12220354378223419,-0.05648677051067352
1761336287333933000,8.21693310546875,-0.03665032610297203,0.035316575318574905,-0.06975863873958588
1761336287343999000,8.2269990234375,-0.025237174704670906,-0.017258623614907265,-0.06581980735063553
1761336287354066000,8.23706591796875,-0.04278953745961189,-0.045540060847997665,-0.05668570101261139
1761336287364131800,8.2471318359375,-0.05544891953468323,-0.03727594390511513,-0.03449663519859314
1761336287374199000,8.257198974609375,-0.07060283422470093,0.01028092298656702,0.000023525673896074295
1761336287384265000,8.267264892578124,-0.09542249888181686,0.014221030287444592,0.018948957324028015
