time,seconds_elapsed,z,y,x
1761391560627241700,0.07624169921875,0.7067296347290277,-0.4933020246366039,0.223276182879135
1761391560637308000,0.086307861328125,0.7331038469135761,-0.5932060583364218,0.052383828840404746
1761391560647373600,0.09637353515625,0.9403478364676237,-0.7714731789268553,-0.06215959211923182
1761391560657440800,0.106440673828125,1.0960182906508444,-0.9410547426279634,-0.09722337978109717
1761391560667506700,0.116506591796875,1.0516752910554408,-1.0491334976181388,-0.028423692060261962
1761391560677572600,0.126572509765625,0.863742151170969,-0.9745798494804649,0.03073065382838249
1761391560687638800,0.136638671875,0.5675514656633138,-0.7101654543966055,0.023810279980674386
1761391560697704700,0.14670458984375,0.2616775905311107,-0.4646677950982004,0.09131700528152287
1761391560707771000,0.15677099609375,0.021525018587708472,-0.2952224615300074,0.2201606081418693
1761391560717837800,0.166837890625,-0.277091432762146,-0.16922887780591844,0.3382498850148171
1761391560727903700,0.17690380859375,-0.698217242449522,-0.12574834025874734,0.3985413451746106
1761391560737970000,0.186969970703125,-1.0399679021269082,-0.13921221746578813,0.44116723865382373
1761391560748035600,0.19703564453125,-1.247668403276801,-0.14443272859305142,0.4776479073762893
1761391560758101800,0.207101806640625,-1.2345488094627857,-0.15072357236556708,0.5394644582115113
1761391560768168700,0.217168701171875,-0.9073387163132428,-0.09595339637789875,0.6319462694887071
1761391560778234600,0.227234619140625,-0.309676774546504,-0.019781024464592338,0.7809994974892586
1761391560788300800,0.23730078125,0.2443126142323017,-0.023960027182288467,0.9499837528843432
1761391560798366700,0.24736669921875,0.7079664830476046,-0.0646006651284173,1.073578641436249
1761391560808433000,0.257432861328125,0.9512971005052328,-0.1691844724086113,1.1594668266020716
1761391560818498800,0.267498779296875,1.0254688366532325,-0.3101243721835315,1.196362725061923
1761391560828565800,0.277565673828125,1.161846561345458,-0.4020829633042216,1.1236302279368042
1761391560838632000,0.2876318359375,1.4056716843217612,-0.4200057926815003,1.050337978037074
1761391560848697600,0.297697509765625,1.5807073487102985,-0.4034344875110313,1.053877477274835
1761391560858763800,0.307763671875,1.4986989275872706,-0.41880993396043775,1.1384667817365377
1761391560868829700,0.31782958984375,1.2589251258283853,-0.5123816228335722,1.2296395562417803
1761391560878896600,0.327896728515625,1.01350016644001,-0.5945444673333317,1.2065223000265657
1761391560888962800,0.337962890625,0.7352800219088792,-0.671258508375287,1.0073775919064878
1761391560899028700,0.34802880859375,0.5407599048495292,-0.7598311833847313,0.7353906426765024
1761391560909095000,0.358094970703125,0.35895430793464184,-0.8889930584140121,0.47748953847680237
1761391560919160800,0.368160888671875,0.10139116698503493,-1.085900655131787,0.2530333155002445
1761391560929226800,0.378226806640625,-0.24576865825951097,-1.236150107179582,0.05392356909569353
1761391560939294000,0.3882939453125,-0.6385334658592939,-1.295535046953708,-0.14329678336568175
1761391560949359600,0.398359619140625,-0.9448317038834094,-1.3174071254134176,-0.36976617279555646
1761391560959425800,0.40842578125,-1.040887939581275,-1.2907654944643379,-0.5335098241234197
1761391560969491700,0.41849169921875,-1.0993798760384321,-1.3021911438420415,-0.6188477184627205
1761391560979557600,0.4285576171875,-1.0218395402401685,-1.3451380129039288,-0.6026427258539945
1761391560989624800,0.438624755859375,-0.6069020637989044,-1.3651520424067973,-0.5804021063428372
1761391560999690800,0.448690673828125,0.04795183774232864,-1.488934781681001,-0.5306736873820423
1761391561009757000,0.4587568359375,0.7695195606410503,-1.7158453024744986,-0.4393314380614087
1761391561019822800,0.46882275390625,1.2528916908830403,-1.9609740553952753,-0.2897252888858318
1761391561029888800,0.478888671875,1.3698024985611439,-2.1574749710083005,-0.12757044111937282
1761391561039954700,0.48895458984375,1.202934358537197,-2.2531394309096036,-0.018641060649231076
1761391561050021600,0.499021728515625,0.687517569258809,-2.2243229401394724,-0.06067033994216472
1761391561060087800,0.509087890625,0.03971592431664467,-2.079838189098239,-0.14311039394810796
1761391561070153700,0.51915380859375,-0.5905097319245338,-1.8463659717015921,-0.1493655088201165
1761391561080219600,0.5292197265625,-1.2300099969893694,-1.7023410932570695,-0.1250087739378214
1761391561090285800,0.539285888671875,-1.7970400691270827,-1.6686521741449831,-0.035368981153517956
1761391561100352800,0.549352783203125,-2.165967489543557,-1.6063807191491126,0.15384996075779198
1761391561110418700,0.559418701171875,-2.4992758995682,-1.4555927763104437,0.48531230452433227
1761391561120484900,0.56948486328125,-2.980035216963291,-1.2771359053015707,0.8593461081691086
1761391561130550800,0.57955078125,-3.3057109401524065,-1.0608520655278115,1.149170400450006
1761391561140616700,0.58961669921875,-3.2961756345659494,-0.8453774232450872,1.3135503038547933
1761391561150684000,0.599683837890625,-3.049109337711334,-0.6623804245885461,1.4500703596271574
1761391561160749600,0.60974951171875,-2.7314550084143874,-0.7024941891163587,1.5358492391996086
1761391561170815700,0.619815673828125,-2.4393150596022606,-0.9229615981850773,1.3040221586614846
1761391561180881700,0.629881591796875,-2.167987012672424,-0.9153536073993891,0.6161085027571768
1761391561190947800,0.63994775390625,-1.8948235670089721,-0.7054285620678216,-0.17535152540467677
1761391561201013800,0.650013671875,-1.7273182981252668,-0.6444686280619353,-0.440888713973388
1761391561211080700,0.660080810546875,-1.927742670792341,-0.8064062528811394,-0.2267367716617882
1761391561221147000,0.67014697265625,-2.4264672684669493,-0.8483094581089914,0.047104573263227936
1761391561231212800,0.680212890625,-2.8479952292144297,-0.5372643908839673,0.2470224577128887
1761391561241278700,0.69027880859375,-2.8361709359079597,-0.007188194471038877,0.4420386877261102
1761391561251344600,0.7003447265625,-2.085643660506606,0.42539924922287464,0.7467565246909856
1761391561261411600,0.71041162109375,-0.9498772968351841,0.4762920723205432,1.1192594655066728
1761391561271477800,0.720477783203125,-0.26645664150118825,-0.13413610151158645,1.5196321177616714
1761391561281543700,0.730543701171875,0.12023849079608917,-0.7192158260103315,1.3682701744273305
1761391561291609900,0.74060986328125,-0.6121575001090764,-0.33001521369814873,0.8834656732946634
1761391561301675800,0.75067578125,-2.4704472799688575,0.2496924075745046,0.4301552115783095
1761391561311742000,0.760741943359375,-4.2503778088629245,0.5283521490992978,0.779791509938985
1761391561321809000,0.770808837890625,-4.987597274401784,1.0506715208403765,0.6508303451135754
1761391561331874800,0.780874755859375,-4.50438121150434,1.8251270765788852,0.4289095954313874
1761391561341941000,0.79094091796875,-3.223843973326683,2.1098509039156137,0.4770763910986483
1761391561352006700,0.801006591796875,-1.6719810263067483,2.0793340389683843,0.7095198499694466
1761391561362072800,0.81107275390625,-0.012332242828607558,1.9910633425801991,0.6816374982442707
1761391561372139800,0.821139892578125,1.4695511590361594,1.5946140012487768,0.5371214022167027
1761391561382205400,0.831205322265625,2.454935822582245,0.5316298921283334,0.37196678811237216
1761391561392271600,0.841271728515625,3.007119038721919,0.5396010171379894,0.5469175506964326
1761391561402337500,0.851337646484375,2.9833523786872624,0.7685049767710268,0.41225495935901996
1761391561412403500,0.861403564453125,2.4920593923181293,0.7592404509499668,0.7600338663499802
1761391561422469600,0.8714697265625,1.6819740125328302,0.6404939522773027,1.248127252960205
1761391561432536600,0.88153662109375,0.9748059863865375,0.8436224693365395,1.6142250029087066
1761391561442602800,0.891602783203125,0.5343307485848665,1.0423565508291124,1.6356828014791012
1761391561452668700,0.901668701171875,0.24936697501242158,1.084182014645636,1.4627389948032796
1761391561462734600,0.911734619140625,0.15366905123293398,0.883146378212422,1.2561945318207144
1761391561472800500,0.921800537109375,0.33402561838328837,0.7031934234268963,0.5339601617068052
1761391561482867500,0.931867431640625,0.5569938312917947,0.6641396162807941,0.39966779192127283
1761391561492933600,0.94193359375,0.9046171823948621,0.3692277185373008,0.49372328225597734
1761391561502999600,0.95199951171875,1.106588199982047,0.00604191051274538,0.5613567026764155
1761391561513065500,0.9620654296875,1.2954115667045116,0.2990596650727093,0.07174465513154864
1761391561523131600,0.972131591796875,1.4759148488491773,0.6248724586449563,-0.4244706631358713
1761391561533198600,0.982198486328125,1.6336685390472412,0.6234346809267998,-0.5981748962575569
1761391561543264500,0.992264404296875,1.660196480488777,0.5869738128833473,-0.5337927327180281
1761391561553330700,1.00233056640625,1.4086960005789995,0.5693070771589875,-0.14011687468793244
1761391561563396600,1.012396728515625,1.151466037106514,0.47562078546285624,0.31553152845669535
1761391561573462500,1.022462646484375,1.0126064324706792,0.4516533421590924,0.39834998732097443
1761391561583528400,1.032528564453125,0.8738993880480528,0.3192785694979131,0.40338703164011236
1761391561593595400,1.042595458984375,0.723669079092145,-0.15395459017604587,0.6631011400785297
1761391561603661600,1.05266162109375,1.0612672952651976,-0.10433847248330712,0.12054613197315484
1761391561613727500,1.0627275390625,2.1574989364057777,0.03819251414164901,-0.1804289382668212
1761391561623793700,1.072793701171875,2.7384154950767754,-0.15958338984325526,-0.023451127812080082
1761391561633859600,1.082859619140625,2.647756149986386,-0.6263374166309833,0.45464419453814625
1761391561643925800,1.09292578125,2.46667536021471,-0.9294524945743381,0.5217916946051642
1761391561653992700,1.10299267578125,2.211400622463226,-0.9648390113845468,0.3326586408790201
1761391561664058600,1.11305859375,1.7190438062548636,-1.2028320672065018,0.16781570480605587
1761391561674124500,1.12312451171875,1.0611509754091502,-1.471946529740095,-0.0007028875723481178
1761391561684190500,1.1331904296875,0.4931342303216457,-1.4882418309807777,-0.3702116515407339
1761391561694256600,1.143256591796875,-0.021762334474921225,-1.1254878385022282,-0.7113581713125109
1761391561704323600,1.153323486328125,-0.2682166369110346,-0.8922659426048397,-0.9544716388881206
1761391561714389500,1.163389404296875,-0.24326573552787303,-0.95843133629933,-1.0937106712955982
1761391561724455700,1.17345556640625,-0.24980127477645872,-1.172340044439584,-1.1491320412009953
1761391561734521600,1.183521484375,-0.41211832736730575,-1.214691139565408,-1.231677637940645
1761391561744587800,1.193587890625,-0.5836018522322177,-1.1755584219641984,-1.302354225449264
1761391561754653700,1.20365380859375,-0.5815642089247703,-1.1008788824245332,-1.2756371911764144
1761391561764720600,1.213720703125,-0.4066214835166931,-0.9764074302338063,-1.074819435277581
1761391561774786800,1.223786865234375,-0.1924246060848236,-0.8311283139444887,-0.6533242808211595
1761391561784852500,1.2338525390625,-0.036135727742314334,-0.6686126700416207,-0.14570212747436015
1761391561794918700,1.243918701171875,0.012657821521162986,-0.4147784864872694,0.2317396579829976
1761391561804984600,1.253984619140625,-0.11664075856506824,-0.1541936596289277,0.5212433765400201
1761391561815051500,1.264051513671875,-0.5734036988228559,0.028899785139411688,0.7085922867957503
1761391561825117700,1.27411767578125,-1.0018711034446954,-0.04652706563621759,0.8259529571332037
1761391561835183600,1.28418359375,-0.8905810582578182,-0.13812646805569528,0.6001478402983397
1761391561845249500,1.29424951171875,-0.3081558485895395,0.0060553545162081715,0.056996181474067265
1761391561855315700,1.304315673828125,0.26075053881406784,0.18791896522864698,-0.3166226481616497
1761391561865381400,1.31438134765625,0.38885084902644157,0.3207840056248009,-0.3268682939745486
1761391561875448600,1.324448486328125,0.038517069920897484,0.140345459279418,0.023710838194191456
1761391561885514500,1.334514404296875,-0.40912499077022074,-0.19495675491094588,0.4190274491686374
1761391561895580400,1.344580322265625,-0.8133277227073907,-0.31998525646254417,0.6304440482322127
1761391561905646600,1.354646484375,-1.1203420000463724,-0.22402254426702856,0.7780002426080406
1761391561915712500,1.36471240234375,-1.2409767966836691,0.09420315517708659,0.8844194668881594
1761391561925779500,1.374779541015625,-1.2496259670853613,0.4899228670597076,1.09411749853082
1761391561935845600,1.384845703125,-1.4674977336376904,0.9706661101028322,1.1539791889712214
1761391561945911600,1.39491162109375,-1.7213421463251113,1.3528051865309476,1.2457134698167442
1761391561955977700,1.404977783203125,-1.7596183932274578,1.48659157955572,1.5173578892193733
1761391561966043600,1.415043701171875,-1.5085440297752617,1.4992546617738902,1.8203312206044793
1761391561976109600,1.425109619140625,-1.0697913779824972,1.5150972508110105,2.0166487424746156
1761391561986176500,1.435176513671875,-0.3761743228048086,1.5137377990260719,2.1343957087159158
1761391561996242400,1.445242431640625,0.4136456830650568,1.3297425831124186,2.13683506469205
1761391562006308600,1.45530859375,1.2514233718961476,1.2471101848721504,2.198095004557818
1761391562016374500,1.46537451171875,2.2088778259873387,1.5660332189306616,2.511778822788596
1761391562026440700,1.475440673828125,2.682501884675026,0.9495030566953122,2.4138670223519205
1761391562036507600,1.485507568359375,3.086176208823919,0.8761680636323987,2.270128851894289
1761391562046573600,1.495573486328125,3.1997914820879694,1.042638144249469,2.1395617131769655
1761391562056639700,1.5056396484375,2.9383067837804555,0.6864470174178481,1.9726945960663258
1761391562066705700,1.51570556640625,2.423665070527792,0.28405060425028206,1.7592156576454638
1761391562076771600,1.525771484375,1.5967086354404687,0.17513167210891842,1.3435725171528756
1761391562086837500,1.53583740234375,0.8013152133524417,0.3310122619114816,0.8932966008268296
1761391562096904400,1.545904541015625,-0.15729600955843925,0.4542388286076486,0.4320306500613689
1761391562106970600,1.555970703125,-0.9275520677804946,0.319660116161406,0.21337562417685985
1761391562117036500,1.56603662109375,-1.1562503487735987,0.11289674973115324,0.1144525278057903
1761391562127102700,1.576102783203125,-1.0177999094605445,-0.05818287050798535,0.058052814387530086
1761391562137168600,1.586168701171875,-1.2411328640282153,-0.14329671030044555,-0.19906433636024592
1761391562147235600,1.596235595703125,-1.189012216168642,-0.20759674851447343,-0.26106121219843625
1761391562157301800,1.6063017578125,-0.7200222470223904,-0.3760074418053031,-0.1606279304601252
1761391562167367700,1.61636767578125,-0.09040800067782402,-0.6546865821503103,0.018799831407517193
1761391562177433600,1.62643359375,0.28272213212549685,-0.8852790063269436,0.286755917686224
1761391562187499500,1.63649951171875,-0.009064765465259552,-0.9581636252738535,0.41101416551768777
1761391562197565400,1.6465654296875,-0.2544330262303352,-0.8803257678337395,0.5125098157905041
1761391562207632600,1.656632568359375,-0.21751403915584086,-0.7757013180159031,0.6044853580459952
1761391562217698600,1.666698486328125,-0.004995908591151237,-0.7252263915367424,0.7219841947451233
1761391562227764500,1.676764404296875,0.25772680707871914,-0.7413051274172962,0.9453390688836574
1761391562237830700,1.68683056640625,0.43240708215832707,-0.8291420354980975,1.2001873979166149
1761391562247896600,1.696896484375,0.39823125631213185,-0.9085415892969816,1.4101763022646308
1761391562257963800,1.7069638671875,-0.15239888516664504,-0.962002765045315,1.436080558849871
1761391562268029700,1.71702978515625,-0.7110527586251497,-0.9334436100371182,1.311926502045244
1761391562278095400,1.727095458984375,-1.0757909106582402,-0.7502433438934385,1.1418875499654562
1761391562288161500,1.73716162109375,-1.2559575081944465,-0.5638596254080533,0.9901795696724206
1761391562298227500,1.7472275390625,-1.3160837678551673,-0.5135897199817001,0.9719056618351489
1761391562308293600,1.757293701171875,-1.3490490488678215,-0.4603857338648289,0.9825134920239448
1761391562318360600,1.767360595703125,-1.283931556791067,-0.35023616394996643,0.965245984750241
1761391562328426500,1.777426513671875,-1.2469026796013116,-0.28952596692144866,1.0573603509545326
1761391562338492700,1.78749267578125,-1.2981272554039955,-0.2587086577229202,1.1480750794939696
1761391562348558600,1.79755859375,-1.260645373749733,-0.16335099874846637,1.1884763557262719
1761391562358624800,1.807624755859375,-1.1086100611984728,-0.012265168941766023,1.1795399658810346
1761391562368690400,1.8176904296875,-0.8654045314252377,0.09382365434020758,1.142954594675079
1761391562378757400,1.82775732421875,-0.6590402473151683,0.14288535302057861,1.117436560928449
1761391562388823600,1.837823486328125,-0.5731657984137535,0.12719992730654775,1.07042244242765
1761391562398889500,1.847889404296875,-0.5246557422667741,0.011895239650830626,1.1475556587297469
1761391562408955600,1.85795556640625,-0.5963906066566705,-0.10576258700229227,0.9575617869231849
1761391562419021300,1.868021240234375,-0.559945666834712,0.006019552550464868,0.6434450571678578
1761391562429088300,1.878088134765625,-0.6794342160463333,0.1597313469465822,0.2492358959786594
1761391562439154400,1.888154541015625,-0.8316197507232427,-0.001512523454800248,0.005321633414179086
1761391562449220400,1.898220458984375,-1.0087865819215773,-0.39498350656256076,-0.032545009773969645
1761391562459286500,1.90828662109375,-1.2360679818540812,-0.687496088079363,-0.08183657168745995
1761391562469352400,1.9183525390625,-1.3989058434486388,-0.8134685924828052,-0.18091551620736718
1761391562479418600,1.928418701171875,-1.5019868632167577,-0.7918973966658115,-0.16166808716282247
1761391562489485600,1.938485595703125,-1.584520184996724,-0.6489778491146863,0.057076662831753486
1761391562499551500,1.948551513671875,-1.5872177535176277,-0.4990737033732235,0.5195556426487863
1761391562509617700,1.95861767578125,-1.4378513679146765,-0.22916451026536522,1.0771617606200277
1761391562519683300,1.968683349609375,-1.2118448102235793,0.14015008283779024,1.579075509724766
1761391562529749500,1.97874951171875,-0.9550152442455291,0.5519515262756496,1.9694130901776252
1761391562539816400,1.98881640625,-0.5276210218131542,0.8916793748885392,2.2964406663671135
1761391562549882400,1.99888232421875,-0.17982699031829832,1.1761029771696776,2.4967495959609747
1761391562559948500,2.008948486328125,-0.03677753277719021,1.344781162290275,2.55675544411242
1761391562570014500,2.019014404296875,0.07696984243392944,1.4667483765751124,2.434580724556744
1761391562580080400,2.029080322265625,0.283342894372344,1.6388596779495477,2.1403508177280424
1761391562590146600,2.039146484375,0.5575169783830642,1.732671495721489,1.727539831921458
1761391562600213500,2.049213623046875,0.8184270916730165,1.604558910549432,1.274635466787964
1761391562610279700,2.05927978515625,1.0413678320527076,1.301454207869619,0.8521697137337177
1761391562620345300,2.069345458984375,1.2545219224333763,0.9302434988215565,0.4894252928011119
1761391562630411300,2.079411376953125,1.368798874476552,0.6179226395070553,0.1758747455611825
1761391562640477400,2.0894775390625,1.2497761892110109,0.4162723783068359,-0.03177782479375601
1761391562650544400,2.09954443359375,0.866209418067336,0.32662615578174586,-0.1258595455482602
1761391562660610600,2.109610595703125,0.2911485996872186,0.37586715655177827,-0.17023615515232085
1761391562670676500,2.119676513671875,-0.32083062124550343,0.522520483803749,-0.08205036056861281
1761391562680742400,2.129742431640625,-0.9072329178512096,0.6568373304434121,0.10657470710277557
1761391562690808600,2.13980859375,-1.3639257154822348,0.8196564873374999,0.34817762398496266
1761391562700874500,2.14987451171875,-1.5560259119182824,0.9609536943838,0.5240165675804018
1761391562710941400,2.15994140625,-1.3578162926912307,1.028832175606489,0.5925438681006431
1761391562721007600,2.170007568359375,-0.9202788619071245,0.993539036168158,0.5362957650475204
1761391562731073300,2.1800732421875,-0.3550567159742117,0.8549497729063034,0.3691809567861259
1761391562741139500,2.190139404296875,0.24237492416799067,0.6035434010207653,0.15418942184522746
1761391562751205400,2.200205322265625,0.8117652956962585,0.2974639203138649,-0.038257396071404215
1761391562761271600,2.210271484375,1.2546166149795055,0.019072364738583564,-0.25206841599084434
1761391562771338500,2.22033837890625,1.5301350993365048,-0.1888521544255316,-0.4670417576879263
1761391562781404400,2.230404296875,1.6978823602825401,-0.32093130514100193,-0.6580949292890728
1761391562791470600,2.240470703125,1.6500784065783023,-0.4029056778639555,-0.8150297043196857
1761391562801536500,2.25053662109375,1.4438924016445875,-0.4289060883000493,-0.9119277976691722
1761391562811602400,2.2606025390625,1.2203706465065478,-0.3503134669698775,-0.9426170965738594
1761391562821669600,2.270669677734375,1.118783664688468,-0.26431583008021114,-0.9116115713268518
1761391562831735300,2.2807353515625,1.0864601887106895,-0.30868980933576823,-0.7847760203532874
1761391562841801500,2.290801513671875,1.0899334177792073,-0.4549591057062149,-0.6037576282933355
1761391562851867400,2.300867431640625,1.0798089141279459,-0.5375597936339676,-0.48618061179146166
1761391562861933600,2.31093359375,0.9773626851320266,-0.5885119822360575,-0.4224387919820845
1761391562871999500,2.32099951171875,0.7843950582116842,-0.6253729555130004,-0.3578124444231391
1761391562882066400,2.33106640625,0.5225923799961805,-0.6744837540321051,-0.3249963626228273
1761391562892132600,2.341132568359375,0.23203648550510406,-0.7350060272730886,-0.30274609850049017
1761391562902198500,2.351198486328125,-0.01213525895178318,-0.7635546608872711,-0.31077947509139775
1761391562912264700,2.3612646484375,-0.13442892871201037,-0.7538119961604476,-0.3888036488838494
1761391562922330400,2.371330322265625,-0.12745558256804942,-0.7081782261021435,-0.41149537316337226
1761391562932396300,2.381396240234375,0.00044482115805149076,-0.6487571921013295,-0.2576145788758993
1761391562942463500,2.39146337890625,0.1697451567649841,-0.6312222660630941,-0.0205740014731884
1761391562952529400,2.401529296875,0.22977146318256852,-0.598604337183386,0.12111088971644639
1761391562962595600,2.411595703125,0.08984978227317332,-0.4579775767445564,0.06525310115516185
1761391562972661500,2.42166162109375,-0.2766542103886604,-0.3142415982440114,-0.019985972452163697
1761391562982727400,2.4317275390625,-0.6659644936203957,-0.30763357828110455,-0.014363310264796017
1761391562992794600,2.441794677734375,-0.974997125044465,-0.33646453596800563,0.03445625022277236
1761391563002860500,2.451860595703125,-1.131829024222493,-0.2954490733601153,0.15844313376694916
1761391563012926500,2.461926513671875,-1.1646195331901312,-0.27516923252791164,0.2980594019889831
1761391563022992400,2.471992431640625,-1.0574942064672708,-0.188931649402529,0.33068054573908445
1761391563033058300,2.482058349609375,-0.701680534645915,0.15599384091868995,0.14875497570633886
1761391563043124500,2.49212451171875,-0.36084465172588825,0.4483116305157542,-0.06902911256253719
1761391563053191400,2.50219140625,-0.16421382612287996,0.3706798170417547,-0.11007219382971524
1761391563063257300,2.51225732421875,-0.10826514440774918,0.035642245136946436,-0.020116466964036225
1761391563073323500,2.522323486328125,-0.29688802012205123,-0.22769684886559843,0.06283449570611119
1761391563083389400,2.532389404296875,-0.7457564077377319,-0.3285422185361385,0.09332549555972218
1761391563093455600,2.54245556640625,-1.3747417085289955,-0.31638124062120915,0.14271744910776615
1761391563103522600,2.5525224609375,-2.086249809706211,-0.17613968010768294,0.16366086841523647
1761391563113588500,2.56258837890625,-2.605851775714755,0.0686775226458907,0.2700606573425233
1761391563123654400,2.572654296875,-2.7057202631771564,0.29163126863762734,0.5717784357085823
1761391563133720300,2.58272021484375,-2.468165891033411,0.5228501541495323,0.9838890912260859
1761391563143786500,2.592786376953125,-2.0357927111446856,0.7374409262698143,1.4122554466262458
1761391563153852400,2.602852294921875,-1.4943635287314652,0.987587361222133,1.7480819769516587
1761391563163919400,2.61291943359375,-0.872018981128931,1.2691186030626296,1.9446414908841252
1761391563173985500,2.622985595703125,-0.18172493289411068,1.4056861512385308,2.046050631917268
1761391563184051500,2.633051513671875,0.4799328034430742,1.3996626531653105,2.06107445191741
1761391563194117600,2.64311767578125,0.9698089087516069,1.359082074843347,1.9583631422445178
1761391563204183600,2.65318359375,1.263750354027748,1.2909624783411622,1.6720608135446906
1761391563214249500,2.66324951171875,1.5006313569545744,1.2545895808421075,1.335593939489126
1761391563224316400,2.67331640625,1.6570032374054193,1.2439806546747685,0.9766536600798368
1761391563234382300,2.68338232421875,1.6729817277818917,1.2464604887917636,0.6361164678454398
1761391563244448500,2.693448486328125,1.6615853044986724,1.1951235386557877,0.2587991855505854
1761391563254514400,2.703514404296875,1.659193440926075,1.1190597051508724,-0.07295300800800324
1761391563264580600,2.71358056640625,1.5442337673157454,1.0390424578450619,-0.3837921773973852
1761391563274647600,2.7236474609375,1.2112930215597153,0.9289699717544019,-0.7131415475979447
1761391563284713500,2.73371337890625,0.7684405332326889,0.8471730014249682,-1.0128872952386736
1761391563294779600,2.743779541015625,0.2905366052687168,0.812114109133929,-1.1684741627916693
1761391563304845600,2.753845458984375,-0.2615226922303438,0.770789288315922,-1.1935358310729265
1761391563314911500,2.763911376953125,-0.6594768851667642,0.7479445654317736,-0.9516278668295591
1761391563324977400,2.773977294921875,-0.8362795592278242,0.761466529501602,-0.5818220561433584
1761391563335044400,2.78404443359375,-0.8346282848894596,0.8541291772384196,-0.16710523671545088
1761391563345110500,2.794110595703125,-0.690550068822503,0.9882322349969297,0.2557695355311036
1761391563355176400,2.804176513671875,-0.38810149196386334,1.0706131426941603,0.6694912795070559
1761391563365243100,2.8142431640625,0.005430792877078056,1.0753283346477895,1.021884110034257
1761391563375309000,2.82430908203125,0.47539106836020945,0.9669910017866641,1.3124511104412375
1761391563385375000,2.834375,0.9082511549830437,0.7485126476433128,1.5509955165356397
1761391563395442000,2.84444189453125,1.1532640264391898,0.4708429035365581,1.721767970521748
1761391563405508000,2.854508056640625,1.278383275014162,0.2074973067279905,1.8386489675834774
1761391563415574000,2.864573974609375,1.2978116135835647,0.019416867327317594,1.8644062169134616
1761391563425640200,2.87464013671875,1.2330290525496006,-0.0313423559859395,1.7595225316375493
1761391563435706000,2.8847060546875,1.1730284650951623,0.04945252462886274,1.578681541971117
1761391563445772300,2.894772216796875,1.0533932008892297,0.17439327483177183,1.3272490127310157
1761391563455839200,2.904839111328125,0.9347638988554478,0.27777919583059846,1.1010473708592354
1761391563465905200,2.9149052734375,0.7681161235839128,0.276167815111205,0.8654580151781439
1761391563475971000,2.92497119140625,0.47280748160779473,0.1899775051936507,0.546461988948658
1761391563486037000,2.935037109375,-0.038411855980753896,0.09213635884039104,0.16455927855968475
1761391563496103200,2.945103271484375,-0.6586860270500182,-0.016193375236168504,-0.28299020847715434
1761391563506170000,2.955170166015625,-1.1665168912440538,-0.06827456786818802,-0.7784993512365966
1761391563516236000,2.965236083984375,-1.4880495232790707,-0.03190956141464412,-1.2159122788581997
1761391563526302200,2.97530224609375,-1.6698972057700157,0.10422266408391297,-1.5313801309615374
1761391563536368000,2.9853681640625,-1.682201976069808,0.3091651717625558,-1.6558479298904538
1761391563546434000,2.99543408203125,-1.6009569405347108,0.4585287808865309,-1.5699831256002186
1761391563556500200,3.005500244140625,-1.344302146601677,0.5230043948631733,-1.3489093481361865
1761391563566567200,3.015567138671875,-0.9100251789182424,0.5433893765702843,-1.1864390777450053
1761391563576633000,3.025633056640625,-0.37481180227994915,0.6130056413710117,-1.0833690908275544
1761391563586699000,3.035698974609375,0.2270195341259241,0.6694138303566723,-1.0124478078428656
1761391563596765000,3.045764892578125,0.8090683116972446,0.6958284476168454,-0.8768933091670275
1761391563606831000,3.0558310546875,1.2530869211941957,0.6646499038904905,-0.6406827528476715
1761391563616897000,3.06589697265625,1.522490137541294,0.5733266880638898,-0.414304950691387
1761391563626964000,3.0759638671875,1.6504723743319512,0.4353739691399038,-0.29561843857765197
1761391563637030100,3.086030029296875,1.6110399431318043,0.3012172084327787,-0.3528791527394205
1761391563647096000,3.096095947265625,1.3685574669361114,0.14444580727033315,-0.51821504169479
1761391563657162200,3.106162353515625,0.8148258523106574,0.04972834589555859,-0.7232779608827083
1761391563667228000,3.116227783203125,-0.05343932924270629,0.035754838665947315,-0.9263808320440351
1761391563677295000,3.126295166015625,-0.6604810937732458,0.22112309649847448,-1.1793564990729093
1761391563687361000,3.136361083984375,-0.7244505848586559,0.546939543332532,-1.674893114361167
1761391563697427000,3.146427001953125,-0.5296458056390285,0.7655600093603133,-2.413811346641928
1761391563707493000,3.1564931640625,-0.5190753117859364,0.8788750575687736,-3.1015929736644026
1761391563717559000,3.16655908203125,-0.8792670525610446,0.9306543446447699,-3.2775644575983285
1761391563727625200,3.176625244140625,-1.7042478036612272,1.2087112614382058,-2.9287621258437633
1761391563737692200,3.186692138671875,-2.853931049004197,1.7910355680152772,-2.4686776399478316
1761391563747758000,3.196758056640625,-3.9093221457123755,2.4938833928748965,-2.1251140856295825
1761391563757824300,3.20682421875,-4.571369758149981,3.158003427672386,-1.9828113548025488
1761391563767890200,3.21689013671875,-4.946223646005988,3.6202193726390597,-1.8697054923653602
1761391563777956000,3.2269560546875,-4.9465913102746,3.7421351489976047,-1.7129115871101617
1761391563788022000,3.23702197265625,-4.460409383308887,3.605447627703845,-1.511500395362824
1761391563798089000,3.2470888671875,-3.9144612621665,3.264767812128365,-1.5433251280382274
1761391563808155100,3.257155029296875,-3.408116252616048,2.875180465520918,-1.8215823897093533
1761391563818221000,3.267220947265625,-3.034372371828556,2.7159178320646284,-2.192076036529243
1761391563828287200,3.277287353515625,-2.6426661333709953,2.8234552467197176,-2.5096517476320264
1761391563838353200,3.287353271484375,-2.1929157022237775,3.0907118064269423,-2.653945652276277
1761391563848420000,3.297420166015625,-1.6610025361746548,3.2692028719663617,-2.673806829304993
1761391563858486300,3.307486328125,-1.0088140544503927,3.2222365381300446,-2.570023506486416
1761391563868552200,3.31755224609375,-0.3357482043921947,2.9801798861309883,-2.5173817573621866
1761391563878618000,3.3276181640625,0.2799661114156246,2.583374863229692,-2.6015160845980048
1761391563888684000,3.33768408203125,0.7052116313815117,2.1557482933461665,-2.7698797238767146
1761391563898750000,3.34775,0.9898784678339958,1.8715733320638537,-2.9446722271591423
1761391563908817200,3.357817138671875,1.1502782886266707,1.7809635252036153,-3.0682436617702242
1761391563918883000,3.367883056640625,1.1756658278614283,1.8813116128765046,-3.120486766965687
1761391563928949000,3.377948974609375,1.15367377628386,2.007863670733571,-3.0688872203707693
1761391563939015200,3.38801513671875,1.2397756042003631,2.0920862607747317,-2.9147186951830983
1761391563949081000,3.3980810546875,1.3886638508975504,2.037852420153469,-2.7910420466318726
1761391563959147300,3.408147216796875,1.4907634584128855,1.8914771791905163,-2.7533994214579463
1761391563969214200,3.418214111328125,1.5794021113306282,1.7251868390545249,-2.7122996415674683
1761391563979280000,3.42827978515625,1.680116986489296,1.5389382912561296,-2.6005039849460125
1761391563989346000,3.438345947265625,1.7589841869771479,1.3202072775259612,-2.46913678189218
1761391563999412000,3.448411865234375,1.9064877013176678,1.1627524241439997,-2.4508244417406617
1761391564009478100,3.45847802734375,2.180335622113943,1.0294438777640462,-2.4572321168258786
1761391564019545000,3.468545166015625,2.4858745662033557,0.9101717477820813,-2.514063426594436
1761391564029611000,3.478611083984375,2.6436826169371606,0.9124129508376121,-2.5407018426731227
1761391564039677200,3.48867724609375,2.630173147022724,0.9803688812106848,-2.637310451556742
1761391564049743000,3.4987431640625,2.422353987929225,0.9849719910919665,-2.8003225006744263
1761391564059809300,3.508809326171875,2.0164269164174793,0.8352354570023715,-3.0116347625806927
1761391564069875000,3.518875,1.7008119839936493,0.46930122705250976,-3.249194395421445
1761391564079942000,3.52894189453125,1.4392548049718141,0.1922903121806681,-2.881930524303019
1761391564090008000,3.539008056640625,1.5290122327864168,0.33261516706347466,-1.1863080717764793
1761391564100074000,3.549073974609375,1.1974544658213853,-0.3737378894381225,-1.0215955754164605
1761391564110140200,3.55914013671875,0.7614572502166033,-0.26462299633324143,-1.0367919024392962
1761391564120206000,3.5692060546875,0.3618336627632379,1.5163764769665895,-1.514181743401289
1761391564130272300,3.579272216796875,-0.07866787852346897,2.6768942739263175,-1.2009942573200911
1761391564140339200,3.589339111328125,-0.5090630363374948,2.7674367146387695,-0.5367182647759094
1761391564150405000,3.599405029296875,-1.470586931824684,2.4845231515944004,-0.06243026228677481
1761391564160471300,3.60947119140625,-2.802120782268047,1.9381658651292324,0.2811398313701153
1761391564170537000,3.619536865234375,-3.839437877625227,1.6491943172201513,0.3708869204537943
1761391564180603100,3.62960302734375,-4.468128579384088,1.7898164014838636,0.4730256909357384
1761391564190670000,3.639670166015625,-4.422571527823806,2.1584194122515616,0.36287206590026616
1761391564200736000,3.649736083984375,-3.601974106374383,2.813307362192869,0.054940034395549446
1761391564210802200,3.65980224609375,-2.3099077584445475,3.1148087213292714,0.21444334473991766
1761391564220868000,3.6698681640625,-0.9797796831458806,2.637116390289366,0.7462733442839234
1761391564230934000,3.67993408203125,0.1634060168713331,1.9342171275034545,1.265682783395052
1761391564241000200,3.690000244140625,1.0946768129140139,1.5027211688406765,1.3813149494394659
1761391564251067100,3.700067138671875,1.8147300395965575,1.2306117622748016,0.9293760683372616
1761391564261133300,3.71013330078125,2.180181892856955,1.1229507943052799,0.3677598379418254
1761391564271199000,3.720198974609375,2.3036580504000184,0.9658741265859454,-0.21899985726680604
1761391564281265000,3.730264892578125,2.003143071952462,0.6957071593247354,-0.7045403810564428
1761391564291331000,3.7403310546875,1.0763941372483967,0.39600539695620535,-0.9882245631471276
1761391564301397000,3.75039697265625,0.2114081234961748,0.09501680964753031,-1.2402367919713257
1761391564311464200,3.760464111328125,-0.22777999710440636,0.07133044830746949,-1.5134056444622574
1761391564321530000,3.770530029296875,-0.058736266607046124,0.242000391767174,-1.677061690571904
1761391564331596000,3.780595947265625,0.5061591315895319,0.39239312474317845,-1.519056655961275
1761391564341662200,3.790662109375,1.168976559355855,0.44202356322221453,-1.243612113623321
1761391564351728000,3.80072802734375,1.7507944507807491,0.48802755483239885,-0.9338784943230449
1761391564361794000,3.8107939453125,2.1232354322761298,0.363990402405709,-0.6832979788023978
1761391564371861000,3.820861083984375,2.194886125513911,0.3349824807167053,-0.4694492572210729
1761391564381927000,3.830927001953125,2.0780670877724883,0.3410113856174052,-0.33377496809046714
1761391564391993000,3.8409931640625,1.8883190074205398,0.321176365943253,-0.1519799656348303
1761391564402059000,3.85105908203125,1.6178221506178379,0.493895058626309,-0.011423822746798396
1761391564412125200,3.861125244140625,1.3559458226442336,0.7424539321262389,0.21505795124061405
1761391564422190800,3.87119091796875,0.8840010953456163,0.8758109938230365,0.45986485179588193
1761391564432258000,3.881258056640625,0.1429670399546623,0.8041766671981662,0.5611721398897469
1761391564442324000,3.891323974609375,-0.4843307461410761,0.4840084553841501,0.4155460733262822
1761391564452390000,3.901389892578125,-1.0381307498276233,0.1287711221460253,0.06754450002796948
1761391564462456000,3.9114560546875,-1.4095470644503831,0.0037741847764700648,-0.2471737027518451
1761391564472522000,3.92152197265625,-1.5256021320819855,0.5831586385093629,-0.1515391265321523
1761391564482589000,3.9315888671875,-1.3164695523023604,1.881536653804034,0.8340424478255212
1761391564492655000,3.941655029296875,-1.3143933305501938,2.291806869086623,1.892289080095291
1761391564502721000,3.951720947265625,-1.15042909527421,0.8786154567845165,1.915138479154557
1761391564512787200,3.961787109375,-0.8128425695389508,-0.10694635342676193,1.8034467212989924
1761391564522852900,3.971852783203125,-0.4006090913593769,-0.16157207944244145,1.5806202549487351
1761391564532919000,3.9819189453125,-0.23208850795328614,-0.18763309749197213,1.3494795492395757
1761391564542986000,3.991986083984375,-0.12491408139169216,-0.49923999985083933,1.2603890609011053
1761391564553052000,4.002052001953125,0.2350409280180931,-0.8519917998835443,1.1927006954230368
1761391564563118000,4.0121181640625,0.28094460105895996,-1.1574099671375007,0.7343383571445942
1761391564573184000,4.02218408203125,-0.013875965139269829,-1.4128846844404934,0.34985410582982
1761391564583250000,4.03225,-0.4495598770111799,-1.6872396779760717,0.44270533494129777
1761391564593316000,4.042316162109375,-0.880872149670124,-1.8433759961053728,0.6680095165167004
1761391564603383000,4.052383056640625,-1.2657716307222842,-1.865594403784722,0.7703064732350409
1761391564613449200,4.06244921875,-1.4952414806097745,-1.8715321232706308,0.7172449643287807
1761391564623515100,4.07251513671875,-1.5753876149922608,-1.852405982518196,0.5658212808698415
1761391564633580800,4.082580810546875,-1.5270178440988063,-1.872275927375257,0.3372165233790874
1761391564643647000,4.09264697265625,-1.862915101572871,-1.983840405589342,0.11915054942891001
1761391564653713000,4.102712890625,-2.7323990112662315,-2.0124084745563566,-0.09456424357444047
1761391564663780000,4.112780029296875,-3.230828425386548,-1.7652683818131685,-0.5232012326095253
1761391564673846000,4.122845947265625,-3.1982734787404534,-1.3811162119969724,-0.8584961402762681
1761391564683912000,4.132911865234375,-2.743464595159888,-1.2301311391510068,-0.998076679597795
1761391564693978000,4.14297802734375,-1.9688854130417108,-1.2758809368044137,-1.1437751172777264
1761391564704044000,4.1530439453125,-1.3216975160837172,-1.1180176487520337,-1.3493793037354946
1761391564714111000,4.163111083984375,-1.0292752431988716,-1.050527509259805,-1.6056573733106254
1761391564724177200,4.17317724609375,-0.9874351663351059,-1.1564853996384887,-1.6579934174865483
1761391564734242800,4.183242919921875,-1.1125661053478717,-1.0935204824857414,-1.4341034135580062
1761391564744309000,4.19330908203125,-1.2984528340965509,-0.7145742838148027,-1.1675837898232042
1761391564754375000,4.203375,-1.7541203803330658,-0.31198380937986075,-0.830051624623686
1761391564764441000,4.213441162109375,-2.316030040717125,0.0328312976357527,-0.48650911309346556
1761391564774508000,4.223508056640625,-2.689728328797221,0.46565234915614123,-0.21895240139588712
1761391564784574000,4.233573974609375,-2.8112621201008556,0.8465363840218633,0.004588058442622423
1761391564794640100,4.24364013671875,-2.63765911886394,1.0307892279583961,0.30140257493704553
1761391564804706000,4.2537060546875,-2.209549441638589,1.0613767469890416,0.5424789837270975
1761391564814772200,4.263772216796875,-1.6616817506104706,0.9784684544168412,0.7799908319033682
1761391564824838000,4.273837890625,-1.0269646281689404,1.0673040912114082,0.8180813469752669
1761391564834904800,4.28390478515625,-0.3469949900716543,1.3993300602100789,0.5051383371744305
1761391564844971000,4.293970947265625,0.3319949893385172,1.736130988525599,0.055635670243203636
1761391564855037000,4.304036865234375,1.0205746348708868,1.8910313351191579,-0.2719088424924761
1761391564865103000,4.31410302734375,1.5556810440033673,1.8861394714243709,-0.45714558289982377
1761391564875169000,4.3241689453125,1.8401275157034396,1.7697819137148558,-0.5956011367794126
1761391564885235000,4.33423486328125,1.8991817622184752,1.6852151864111422,-0.7349989399451762
1761391564895302100,4.34430224609375,1.799424918437004,1.5387293246805667,-0.8831121106166392
1761391564905368000,4.3543681640625,1.7111603595286606,1.334816233114898,-0.9416911408353597
1761391564915434200,4.364434326171875,1.728372191092372,1.071219218828529,-0.8544396314270793
1761391564925500000,4.3745,1.7283704375267028,0.8597717131700366,-0.8075894713163375
1761391564935565800,4.38456591796875,1.7179478277117013,0.7956555801555514,-0.8318875348139554
1761391564945632000,4.394632080078125,1.740826598995924,0.7600877154290676,-0.680604501934722
1761391564955699000,4.404698974609375,1.7181296140193938,0.748389021263644,-0.34491387294866144
1761391564965765000,4.41476513671875,1.621805667296052,0.7067247393582016,0.08104344854839146
1761391564975831000,4.4248310546875,1.5660171445786952,0.6614608985908329,0.5154434580896049
1761391564985897000,4.43489697265625,1.5887117914676665,0.9392829837150871,0.7596815457809716
1761391564995963100,4.444963134765625,1.5198019213706253,1.1573512957528234,1.0517157691963017
1761391565006030000,4.455030029296875,1.3359890762865543,1.2913418330475688,1.353228818770498
1761391565016096000,4.465095947265625,1.2598276276260614,1.2616229866102338,1.5912196826353668
1761391565026162000,4.475161865234375,1.2202180862933396,1.08895843526721,1.699256132853776
1761391565036227800,4.485227783203125,1.1228379085153342,0.8114788799703121,1.6826901979781685
1761391565046294000,4.4952939453125,0.9847755917370319,0.4426597057012841,1.6646207266718147
1761391565056360000,4.50535986328125,0.793878925871849,0.11378036416526884,1.5580648703999815
1761391565066427000,4.515427001953125,0.7307207511693239,-0.25505890304371714,1.3439822669975459
1761391565076493000,4.5254931640625,0.8681862710982561,-0.5487522187776863,1.042802467965707
1761391565086559000,4.53555908203125,1.051563062852621,-0.7003416872575878,0.7612870812814683
1761391565096625200,4.545625244140625,1.2536200051575899,-0.7329730601407587,0.5027724482933059
1761391565106691000,4.555691162109375,1.4389689737677573,-0.7455094472393393,0.2955000728949904
1761391565116757000,4.565757080078125,1.5237141263782976,-0.8013207663103937,0.09510350155029446
1761391565126824000,4.575823974609375,1.5020710343688726,-1.0165383650921285,-0.025636180233582852
1761391565136889900,4.585889892578125,1.3302175071477889,-1.3862551823206246,-0.10516235608682035
1761391565146956000,4.5959560546875,1.0228267977118493,-1.6104115821003913,-0.02711542247328907
1761391565157022000,4.60602197265625,0.5193430228114128,-1.8032332246787846,-0.00414389487169683
1761391565167088000,4.616088134765625,-0.05438333209455013,-2.092920665772259,0.0634010070150718
1761391565177155000,4.626155029296875,-0.6727437784969806,-2.4757363262876866,0.1393465113699436
1761391565187221000,4.636220947265625,-1.2995651792526244,-2.7985952384904027,0.17513919782824813
1761391565197287200,4.646287109375,-1.9885715257644652,-2.991444791989028,0.20070293388012794
1761391565207353000,4.65635302734375,-2.530634329906106,-2.710052739423513,-0.16151311579681932
1761391565217419000,4.6664189453125,-2.8937948573589325,-1.9941960876479743,-0.9254365369312465
1761391565227485000,4.67648486328125,-3.168074739831686,-1.6250556090027093,-1.3789096418634057
1761391565237551900,4.6865517578125,-3.0277094068080186,-1.5571500936426221,-1.2820144711233674
1761391565247618000,4.6966181640625,-2.5279981361836192,-1.4335320434108376,-0.7805554800488055
1761391565257684000,4.70668408203125,-1.8157365862905979,-1.2782115717090665,-0.1700131235187873
1761391565267750100,4.716750244140625,-1.0827432140141724,-1.161522809283808,0.21646308706449344
1761391565277816000,4.726816162109375,-0.4398305101573467,-0.9953804262511432,0.4453838334355503
1761391565287882000,4.736882080078125,-0.03374152608215809,-0.8976770078681409,0.5352192218571901
1761391565297949200,4.74694921875,0.16805647302567958,-0.8467842943683266,0.3269163708999753
1761391565308015000,4.75701513671875,0.14983341859281063,-0.7463979935768992,-0.21687342143105343
1761391565318081000,4.7670810546875,-0.15702303783595561,-0.63767816420421,-0.756000373050198
1761391565328147000,4.77714697265625,-0.7320324182897806,-0.7354273214250803,-0.9852600142531096
1761391565338212900,4.787212890625,-1.5920838982492684,-0.9219139157630503,-0.9472266361959278
1761391565348279000,4.797279052734375,-2.4978093341469765,-0.8476785397943108,-0.9145907332681119
1761391565358346000,4.807345947265625,-2.9168484006881714,-0.38273116056974976,-0.7219973464876412
1761391565368411600,4.81741162109375,-2.789688586196303,0.17537065023025497,-0.31292551067676394
1761391565378477600,4.8274775390625,-2.2257079647570848,0.6884080883577466,0.166607260598056
1761391565388543500,4.83754345703125,-1.3264455873936414,1.0402077752973884,0.727359384977445
1761391565398609700,4.847609619140625,-0.3742296184778213,1.1560530726358293,1.3062404192328452
1761391565408675600,4.857675537109375,0.4356687143027782,1.2045481504093856,1.7692637350596487
1761391565418742800,4.86774267578125,1.0389847363084554,1.2305518487811087,2.0498583536371586
1761391565428808700,4.87780859375,1.373494923338294,1.2194875069964677,2.1051205143928526
1761391565438874600,4.88787451171875,1.5800883400291204,1.3208065585933626,1.841044338287413
1761391565448940800,4.89794091796875,1.5912439402937888,1.436548030231148,1.4385185996517538
1761391565459006500,4.90800634765625,1.34459499206841,1.3353975401341915,0.9177659292381256
1761391565469072600,4.91807275390625,0.9706009359121323,1.0271111970327793,0.4219306232642382
1761391565479139600,4.9281396484375,0.5667027398794889,0.733648255988583,-0.17295045561231673
1761391565489205500,4.93820556640625,0.22292612733244896,0.4889048856562003,-0.6741676007550209
1761391565499271700,4.948271728515625,0.1012882911324501,0.3125816656751558,-0.9062329470284283
1761391565509337600,4.958337646484375,0.2055044524103403,0.122010797698237,-0.832096062998101
1761391565519403800,4.96840380859375,0.47569560426473617,-0.11451839611623435,-0.5193821127127856
1761391565529470700,4.978470703125,0.8801619555741548,-0.21671868752706794,-0.22253990449383854
1761391565539536600,4.98853662109375,1.2912065162301063,-0.12354513112604618,-0.07426277543231845
1761391565549602800,4.998602783203125,1.4421715692013501,0.052973428764007985,0.03232267226018012
1761391565559668500,5.00866845703125,1.3540730145096778,0.13970708831064402,0.12235168355777859
1761391565569734700,5.018734619140625,1.235458325523138,0.14543456257935614,0.1636805960290134
1761391565579800600,5.028800537109375,1.128144198229909,0.12104575205836444,0.1997662010192871
1761391565589867500,5.038867431640625,1.0044354009747505,0.08176262966841459,0.1565814315482974
1761391565599933700,5.04893359375,0.860670488640666,0.005735182651132345,0.08991634470336139
1761391565609999600,5.05899951171875,0.7568377737224101,-0.09811689455471932,0.0008299480181187391
1761391565620065800,5.069065673828125,0.6671037267833948,-0.24366423332616685,-0.11424304977357387
1761391565630131700,5.079131591796875,0.6311994697093963,-0.33586383012849835,-0.13280001233592628
1761391565640197600,5.08919775390625,0.6573533171415329,-0.38726357983499765,-0.11183335828334093
1761391565650264800,5.099264892578125,0.7126146011143922,-0.41023364613186564,-0.07900777800232171
1761391565660330500,5.10933056640625,0.7523907311856747,-0.384432922986336,0.03434088021479547
1761391565670396700,5.119396728515625,0.6719014824539422,-0.3502827795706689,0.15661284959986804
1761391565680462600,5.129462646484375,0.39642800628244873,-0.3077140231061727,0.15986396035030484
1761391565690528500,5.139528564453125,0.10111468813121319,-0.2612650642074644,0.11094093948826193
1761391565700594700,5.1495947265625,-0.24022505265772343,-0.36816341377403583,0.08636120950505137
1761391565710660600,5.15966064453125,-0.24108780696690083,-0.39584048871807753,0.100393753445521
1761391565720727800,5.169727783203125,-0.5953624326527118,-0.5848512312388047,0.07778203559964894
1761391565730793700,5.179793701171875,-0.8074772431135178,-0.7078361346662044,-0.022210443568602203
1761391565740859600,5.189859619140625,-0.8660165258437394,-0.7418551625154912,-0.18209332781508564
1761391565750925600,5.199925537109375,-0.7432540695279837,-0.745539842377603,-0.20605551042184234
1761391565760991500,5.209991455078125,-0.5049982711166143,-0.7841527008231729,-0.028638503854721782
1761391565771057700,5.2200576171875,-0.35597850699424743,-0.7947375154625624,0.23199527671188114
1761391565781124600,5.23012451171875,-0.24715865131318568,-0.730447341055423,0.4836396951369941
1761391565791190500,5.2401904296875,-0.15096972914636134,-0.6999874669924377,0.7391643890615552
1761391565801256700,5.250256591796875,-0.15687223118841648,-0.6707836574051529,0.8616444482393563
1761391565811322600,5.260322509765625,-0.31065409514605996,-0.5942355475146323,0.7849369100034237
1761391565821388800,5.270388916015625,-0.5124450799912214,-0.4725163531741127,0.5961470071591437
1761391565831454700,5.280454833984375,-0.8055927445411681,-0.40121874769032,0.4235921267356723
1761391565841521700,5.290521728515625,-1.16702717885375,-0.41579906170666214,0.35219599278084934
1761391565851587600,5.300587646484375,-1.4295096560269593,-0.5149144292468205,0.4245586336802691
1761391565861653500,5.310653564453125,-1.4386287820279597,-0.6623374622296542,0.504462045348063
1761391565871719700,5.3207197265625,-1.1182552569001913,-0.4467913621459156,0.34775866792052984
1761391565881785600,5.33078564453125,-0.7566688468962908,-0.014269640631973743,-0.06757533355765044
1761391565891851800,5.340851806640625,-0.6557616640359163,0.12687741735391317,-0.285626109938696
1761391565901918700,5.350918701171875,-0.9700830495178699,-0.07970770643260329,-0.2859845679875463
1761391565911984600,5.360984619140625,-1.7316718171596526,-0.28304073308799416,-0.2667036019995808
1761391565922050800,5.37105078125,-2.7012808194249867,-0.23578798352573066,-0.284235313167423
1761391565932116700,5.38111669921875,-3.5408658499389887,0.11750029800385237,-0.2957984713196754
1761391565942182700,5.3911826171875,-3.9638767427206036,0.6689661596544086,-0.23292715073451398
1761391565952249600,5.40124951171875,-3.8146582411557435,1.1008468067858368,-0.1154293369486928
1761391565962315500,5.4113154296875,-3.259194688171148,1.3463755918748677,0.1231463410668075
1761391565972381700,5.421381591796875,-2.4537802228063343,1.4700779593892395,0.37137539809048176
1761391565982447600,5.431447509765625,-1.5135685799390077,1.4525556005716322,0.56413639652282
1761391565992513500,5.441513427734375,-0.5568453627318144,1.4228602811403572,0.6596295915104449
1761391566002579700,5.451579833984375,0.30157004045844077,1.5187328308343886,0.6811117208044976
1761391566012646700,5.461646728515625,1.0141501547813414,1.704476205589622,0.6196678757391869
1761391566022712800,5.471712890625,1.5238912365108728,1.9113935935378072,0.535127671116218
1761391566032778800,5.48177880859375,1.6847627664685247,2.0914111379921434,0.40345432472266257
1761391566042844400,5.491844482421875,1.6416308962285517,2.1486983748346566,0.31899682994708417
1761391566052910600,5.50191064453125,1.5086843150287865,2.103204159377515,0.2039692056670785
1761391566062976500,5.5119765625,1.3103466855078936,1.9159005495682357,0.006749839586392045
1761391566073043700,5.522043701171875,1.160855796742439,1.6426733910188078,-0.2628105400837958
1761391566083109600,5.532109619140625,1.0881009416550398,1.3625101495958865,-0.5190525154322385
1761391566093175600,5.542175537109375,0.8969938479095697,0.8731546340953558,-0.7123686635293066
1761391566103242800,5.55224267578125,0.7067237895101308,0.7032970299318433,-0.6156232765235007
1761391566113308700,5.56230859375,0.4682774369627237,0.556994269683212,-0.476476379378885
1761391566123374600,5.57237451171875,0.28486206676363945,0.45027591632604597,-0.3346387818455696
1761391566133440800,5.582440673828125,0.16922668584883213,0.38446152802631256,-0.2077073692820966
1761391566143506400,5.59250634765625,0.14133154770731926,0.35339119391478596,-0.15051336368098855
1761391566153573600,5.60257373046875,0.3383803064614534,0.3474817506752908,0.02834960391074419
1761391566163639600,5.6126396484375,0.5972264729589224,0.24880232686698436,0.33179376767799257
1761391566173705500,5.62270556640625,0.8832903167277574,0.14008680834323167,0.6765012313343585
1761391566183771600,5.632771728515625,1.125406297698617,-0.02797587522752583,0.896790872683376
1761391566193837600,5.642837646484375,1.2898171076983214,-0.20038162950389085,0.9226034323971718
1761391566203903700,5.65290380859375,1.362049400216341,-0.3233606511797756,0.8243525361992419
1761391566213970700,5.662970703125,1.322451549321413,-0.48336007447801527,0.6316917102057487
1761391566224036600,5.67303662109375,1.3319921156048773,-0.6806269329622388,0.37939898393973703
1761391566234102800,5.683102783203125,1.3785405162900686,-0.8490170949216932,0.1395719906888902
1761391566244168700,5.693168701171875,1.3676333378285168,-1.0048884054392575,-0.021154066383466123
1761391566254234600,5.703234619140625,1.2119009243249892,-1.1498726304352282,-0.20049546514190733
1761391566264300500,5.713300537109375,0.869700767314434,-1.2737411482967436,-0.37277554721198974
1761391566274367500,5.723367431640625,0.3742500767439604,-1.390292913404107,-0.4861388915415853
1761391566284433700,5.73343359375,-0.029557518395781517,-1.4514233816713094,-0.5476512717984616
1761391566294499600,5.74349951171875,-0.2689291690945625,-1.4216843692287802,-0.5899027790073305
1761391566304565800,5.753565673828125,-0.381557769408822,-1.313906862207502,-0.620791838267818
1761391566314631700,5.763631591796875,-0.398176895776391,-1.238095103767514,-0.6129429513983428
1761391566324697900,5.77369775390625,-0.40145898618698117,-1.2184963770672679,-0.6137423581477254
1761391566334764800,5.783764892578125,-0.4063555260568857,-1.2236389275874942,-0.65168659661673
1761391566344830700,5.793830810546875,-0.5042056594341993,-1.2821630858138202,-0.7279195761434734
1761391566354896600,5.803896728515625,-0.6280144099324941,-1.3203574996516108,-0.8757098715361207
1761391566364962600,5.813962646484375,-0.7300164022922515,-1.3281770873613654,-1.030334104602039
1761391566375028700,5.82402880859375,-0.8358031738877296,-1.2614761254854499,-1.1276591181267053
1761391566385095700,5.834095703125,-0.9605243630558252,-1.0644921025305987,-1.1001206844683735
1761391566395161600,5.84416162109375,-1.092686515879631,-0.7622354680474848,-0.9472694524243473
1761391566405227800,5.854227783203125,-1.2261860547870398,-0.42441301466450093,-0.6873870747469365
1761391566415293700,5.864293701171875,-1.2521207065105437,-0.1674538309574127,-0.43082222411967813
1761391566425359400,5.874359375,-1.1225059000819921,-0.023709961411356926,-0.16935973764397202
1761391566435425500,5.884425537109375,-0.8039408856809139,-0.0673009735956788,0.08995053923390806
1761391566445492500,5.894492431640625,-0.23761048624515532,-0.0959321709267795,0.1682415472690016
1761391566455558700,5.90455859375,0.3491173890531063,0.14253909686617552,0.10742131399475037
1761391566465624600,5.91462451171875,0.807340464991331,0.36511209991201754,-0.025689444790780544
1761391566475690500,5.9246904296875,1.0835200436055659,0.389927099955827,-0.20523593766726553
1761391566485756700,5.934756591796875,0.9787462484449148,0.3514452474787831,-0.5140673474308103
1761391566495822600,5.944822509765625,0.3041168023318052,0.2928229626402259,-0.8070045110352337
1761391566505889500,5.9548896484375,-0.7547118676096201,0.27750775847807524,-0.9841511762283742
1761391566515955700,5.964955810546875,-1.9308716164678335,0.35064226053282616,-1.1035755741626023
1761391566526021400,5.975021484375,-2.925761774984002,0.5720975846603512,-1.1115148427292705
1761391566536087600,5.985087646484375,-3.4263603498369455,0.8634605577506125,-0.9391009051464497
1761391566546153500,5.995153564453125,-3.263019799417257,1.1717295113258064,-0.5653786516688764
1761391566556219600,6.0052197265625,-2.579174781191349,1.4627096225783227,-0.04326820997074246
1761391566566286600,6.01528662109375,-1.5792361071139573,1.636344772519171,0.4685938094355166
1761391566576352500,6.0253525390625,-0.4934346745729446,1.744135723543912,0.9655370035860686
1761391566586418700,6.035418701171875,0.4617869058996439,1.689852929214388,1.5084946376755832
1761391566596484600,6.045484619140625,1.221782266870141,1.5983357982508837,1.8540280307620762
1761391566606550800,6.05555078125,1.803483253917098,1.6594775185644626,1.9841171767041086
1761391566616617700,6.06561767578125,2.2176117520630356,1.7263577825300394,2.0067992563724517
1761391566626683600,6.07568359375,2.564389299991727,1.6940670397780835,2.033315507376194
1761391566636749600,6.08574951171875,2.7237691300868985,1.5577394378378986,2.0661358269602057
1761391566646815500,6.0958154296875,2.686023044538498,1.318950555463135,2.0543533269688488
1761391566656881700,6.105881591796875,2.570401692149043,1.0591972109928727,1.9266754799522459
1761391566666947600,6.115947509765625,2.3509178142249585,0.8652566473871469,1.5298936917960644
1761391566677014500,6.1260146484375,2.0550772573292253,0.75039911897704,0.9889636180114001
1761391566687080700,6.136080810546875,1.7110042921841144,0.630460122584179,0.4659323716739192
1761391566697146600,6.146146728515625,1.3227408876568079,0.4243836424395442,0.058758880297653374
1761391566707212800,6.156212890625,0.7435048294186591,0.17951807049959898,-0.31956845582257953
1761391566717278500,6.166278564453125,0.13542904566526412,0.009350085212662815,-0.5760624697033315
1761391566727344600,6.1763447265625,-0.47848026654720305,-0.17048172741122541,-0.7123338844768703
1761391566737411600,6.18641162109375,-1.0363923817276954,-0.33413667754232884,-0.7011124524343758
1761391566747477500,6.1964775390625,-1.491715644571185,-0.41140798714086413,-0.5638728502158076
1761391566757543700,6.206543701171875,-1.814076544123888,-0.3407348336983472,-0.3057150313086808
1761391566767609600,6.216609619140625,-1.8407360029906032,-0.1573395564392209,-0.07900193278342485
1761391566777675500,6.226675537109375,-1.4444576343119144,0.02811711032912135,0.1796902852613479
1761391566787741700,6.23674169921875,-0.7824100218743085,0.03130867291204631,0.477403796422109
1761391566797808600,6.24680859375,-0.008793547308444977,-0.15649112291634082,0.7291874041222035
1761391566807874600,6.25687451171875,0.7595382648527622,-0.41999958213642236,0.8864814409192651
1761391566817940700,6.266940673828125,1.425553027355671,-0.6008665830269455,0.9452234066147357
1761391566828006400,6.27700634765625,1.9017010515630244,-0.7513461175035685,0.9674342885747551
1761391566838072600,6.287072509765625,2.127667861765623,-0.9784535491086542,0.9552750642254948
1761391566848138500,6.297138427734375,2.1182512141227723,-1.2215572259426115,0.906572846507281
1761391566858205400,6.307205322265625,1.8670377344608307,-1.3986039378926156,0.8595761175327002
1761391566868271600,6.317271728515625,1.4646791690856218,-1.5864418007090686,0.7601371075287461
1761391566878337500,6.327337646484375,0.9269839125037193,-1.7638681596264243,0.5956763574400916
1761391566888403700,6.33740380859375,0.3608405600726604,-1.9518552216552196,0.4784721197733655
1761391566898469600,6.3474697265625,-0.07288052729368209,-2.086024622648209,0.4932245024209842
1761391566908536600,6.35753662109375,-0.3397112628042698,-2.1906123937174677,0.5766207611732185
1761391566918602800,6.367602783203125,-0.5336532877147198,-2.2910285781905055,0.6798369516283274
1761391566928668400,6.37766845703125,-0.7701081741839647,-2.354414424169063,0.757958886706829
1761391566938734600,6.387734619140625,-1.0093611669391394,-2.29360368937552,0.8204447151057421
1761391566948800500,6.397800537109375,-1.2352327000737189,-2.1333324633985757,0.902175196070224
1761391566958866700,6.40786669921875,-1.4282704696208237,-1.964131934904307,0.9486644869793206
1761391566968933600,6.41793359375,-1.6238152535527943,-1.845636780644208,1.0298016051605343
1761391566978999600,6.42799951171875,-1.9261516022086143,-1.616912488427013,1.0778645751271396
1761391566989065700,6.438065673828125,-2.1711124512165783,-1.3182028058357536,1.0156746609348803
1761391566999131600,6.448131591796875,-2.189716613921523,-1.006795700365305,1.0390952109456062
1761391567009197800,6.45819775390625,-2.1492051553130147,-0.7949946320287883,1.1597441091734915
1761391567019263500,6.468263427734375,-1.9409359143644571,-0.683808558673039,1.2994827616661786
1761391567029330400,6.478330322265625,-1.6745201893955468,-0.5989932634357362,1.4180249699383973
1761391567039396600,6.488396728515625,-1.4034429023563861,-0.5698448372974991,1.5484747658863662
1761391567049462500,6.498462646484375,-1.113262855440378,-0.6994330479800701,1.6636350766353307
1761391567059528700,6.50852880859375,-0.7605453960686922,-0.6329509895518421,1.558208808915317
1761391567069594600,6.5185947265625,-0.3517138352870941,-0.11848331769183278,1.1149105495821683
1761391567079660500,6.52866064453125,-0.1631236927986145,0.40071671645231544,0.4651480528958142
1761391567089727700,6.538727783203125,-0.47678866019845006,0.3752763510517776,-0.05649287159442901
1761391567099793700,6.548793701171875,-1.3784101679086684,0.062348831081017846,-0.33596886140555143
1761391567109859600,6.558859619140625,-2.5798995883345603,-0.07177424655221402,-0.4580556104168296
1761391567119925500,6.568925537109375,-3.8435020583242174,0.020654373233020305,-0.46462636710926886
1761391567129991400,6.578991455078125,-4.830964697188139,0.290813595579192,-0.20768618036359549
1761391567140057600,6.5890576171875,-5.057350609585643,0.7016233245659619,0.3811952197067439
1761391567150124500,6.59912451171875,-4.46928125655055,0.997447660979256,1.0997833422727883
1761391567160190500,6.6091904296875,-3.36818230163455,1.2021654930565506,1.7373728052802382
1761391567170256600,6.619256591796875,-2.1599235332041977,1.2551269025892018,2.203120577634871
1761391567180322600,6.629322509765625,-1.0789391455560922,1.23602326592952,2.494875911043584
1761391567190388700,6.639388671875,-0.36534488575458524,1.285444299441576,2.6130440253064036
1761391567200454700,6.64945458984375,0.017497662767767905,1.5326064578860996,2.6210402847573158
1761391567210521600,6.659521484375,0.3221446264535188,1.7842676813155411,2.6397914547175167
1761391567220587500,6.66958740234375,0.7189584171831608,2.0049353621967136,2.680895618522167
1761391567230653400,6.6796533203125,1.1831985614538192,2.298519956859201,2.6456530402272938
1761391567240719600,6.6897197265625,1.5426690022170544,2.5631214720129964,2.521657827246189
1761391567250785500,6.69978564453125,1.7409797437310217,2.642745628347993,2.2695085280388594
1761391567260852500,6.7098525390625,1.8772563461363314,2.4770839415043593,1.8826950300589202
1761391567270918700,6.719918701171875,1.982316557022929,2.113986980807036,1.4992571459919213
1761391567280984600,6.729984619140625,2.030489928561449,1.6833796415470539,1.086043789929524
1761391567291050800,6.74005078125,1.9859902770996092,1.3425855519421397,0.7655088636949658
1761391567301116700,6.75011669921875,1.6557582057803868,1.1225758965782822,0.4674181897848844
1761391567311182600,6.7601826171875,0.9854074598997831,0.8957460398055612,0.3377333868600428
1761391567321249500,6.77024951171875,0.1293733988881111,0.692330376368016,0.46483007298782464
1761391567331315500,6.7803154296875,-0.9841413854867219,0.7088700077585876,0.6917834100097418
1761391567341381600,6.790381591796875,-2.013169960448146,1.1017473358221352,1.1192344771958886
1761391567351447600,6.800447509765625,-2.604292271313071,1.5710415486119687,1.5986284975871443
1761391567361513700,6.810513671875,-2.8080226997882125,1.9853432113677263,1.9767681291155517
1761391567371580000,6.820579833984375,-2.641325824677944,2.2776447804823516,2.3111606811150907
1761391567381646800,6.830646728515625,-2.2061796729445455,2.5013714105427263,2.5861054572373625
1761391567391713000,6.840713134765625,-1.6275088473737238,2.6258172899007794,2.773540292210877
1761391567401779000,6.850779052734375,-1.009949195960164,2.6060060894936323,2.867839747369289
1761391567411844900,6.860844970703125,-0.39073417855501175,2.4504594078205524,2.803872594371438
1761391567421911000,6.8709111328125,0.174290398979187,2.1519217207953334,2.608489138481021
1761391567431976700,6.880976806640625,0.6879851867705583,1.8752705791465938,2.3299496988676487
1761391567442044000,6.8910439453125,1.1113146439820527,1.6387283066548406,2.0204770685911178
1761391567452109800,6.90110986328125,1.4590993231266736,1.3820613838925957,1.7568565272986887
1761391567462175700,6.91117578125,1.7863649458557367,1.2418496339954435,1.4776368503361939
1761391567472242000,6.921241943359375,1.9883657740592955,1.2527492136724292,1.2957019279532134
1761391567482307800,6.931307861328125,2.027609989210963,1.356956899382919,1.2940979998879134
1761391567492374000,6.9413740234375,1.9678975710481403,1.630465505222231,1.391799810835719
1761391567502441000,6.95144091796875,1.7743413305848836,1.9544357396677134,1.5906735930599272
1761391567512507000,6.9615068359375,1.6370868230581284,2.2456011443592607,1.8493334432050585
1761391567522573000,6.971572998046875,1.5411545060008764,2.4828590177744627,2.117568346425146
1761391567532638700,6.981638671875,1.3330442550063133,2.627922445486486,2.3565125654920935
1761391567542705000,6.991704833984375,1.1976087796002626,2.7171891671746966,2.614755213138461
1761391567552770800,7.001770751953125,1.0305617758780716,2.780903222194314,2.7990111258149146
1761391567562837800,7.011837646484375,0.6530781240403651,2.806662517350912,2.836842259298265
1761391567572904000,7.021904052734375,0.1713712966620922,2.694869783338904,2.706108385711908
1761391567582969900,7.031969970703125,-0.22251637748777864,2.5537854883909223,2.551868548853695
1761391567593036000,7.0420361328125,-0.3997480906158685,2.4679969642072916,2.427273908674717
1761391567603102000,7.05210205078125,-0.3261030086904764,2.4227689984709024,2.225494322006404
1761391567613168000,7.062168212890625,-0.08588730838298797,2.399908639626205,1.8817476662062107
1761391567623235000,7.072235107421875,0.09502572360634803,2.3023910992041228,1.5588054596342145
1761391567633300700,7.08230078125,-0.025891981625556944,2.062481834497303,1.5152552178516983
1761391567643367000,7.092366943359375,-0.6540449232459068,1.7321264290593563,1.6807634676992893
1761391567653432800,7.102432861328125,-1.5089526105761528,1.5915809171631932,1.9416377790234982
1761391567663498800,7.112498779296875,-2.4162504103571174,1.7219956417977809,2.2849948509842157
1761391567673566000,7.12256591796875,-3.1822622551381587,2.0282095625393093,2.4554206834897396
1761391567683631900,7.1326318359375,-3.539708496597409,2.3225590040944515,2.4465602084249256
1761391567693698000,7.142697998046875,-3.4258161599576473,2.4377888729482886,2.3801012386113403
1761391567703764000,7.152763916015625,-2.978250087112188,2.361095509368181,2.249776384217292
1761391567713830000,7.162829833984375,-2.3732266766667363,2.014965611693263,2.110470350988209
1761391567723895800,7.172895751953125,-1.7049124050498008,1.6917849201902746,1.890847356854379
1761391567733962800,7.182962646484375,-1.1271616169333458,1.5127818134754896,1.7038219794645904
1761391567744029000,7.19302880859375,-0.7848661828547716,1.4351527764804661,1.488369110622257
1761391567754094800,7.2030947265625,-0.6541805323243141,1.3730372426986694,1.4022628987915813
1761391567764160800,7.213160888671875,-0.5798591585725545,1.2517336068890987,1.4768344479121267
1761391567774227000,7.22322705078125,-0.39140111803114414,1.1795983450047671,1.7525399792738259
1761391567784292900,7.23329296875,-0.05801905824840069,1.1416994069822133,2.016376939795911
1761391567794359800,7.24335986328125,0.3101718645870685,1.121620057158172,2.1190325737588105
1761391567804426000,7.253426025390625,0.5382873772561549,1.1002959679700433,2.08142107437551
1761391567814492000,7.263491943359375,0.7229425183832645,0.9297525004342198,1.9520633114479482
1761391567824557800,7.273557861328125,0.8022422650694847,0.6476138672851026,1.8231193900182843
1761391567834623700,7.283623779296875,0.6543208175778389,0.3815358498379588,1.7335671293869614
1761391567844690000,7.29368994140625,0.3770926066935062,0.21946254287511108,1.651035853433609
1761391567854756900,7.3037568359375,-0.17557926974594593,0.2453132426422089,1.5970925201915203
1761391567864822800,7.31382275390625,-0.9387626131027936,0.3904921134274453,1.5376758701048792
1761391567874889000,7.323888916015625,-1.491857683390379,0.5838378529451788,1.4599813666582107
1761391567884955000,7.333954833984375,-1.807274462893605,0.6756362120028585,1.3695350797966122
1761391567895021000,7.34402099609375,-1.8484049301832912,0.6728857442509383,1.3487107568241654
1761391567905087000,7.3540869140625,-1.6690034718006848,0.6371723335739224,1.3470904621459543
1761391567915154000,7.36415380859375,-1.339426649519801,0.6615834289919584,1.341157418835163
1761391567925219800,7.3742197265625,-1.0040145452141762,0.7275110684078187,1.421867324580252
1761391567935285800,7.38428564453125,-0.7806944501280784,0.7692112984094769,1.5274369462937116
1761391567945352000,7.39435205078125,-0.7389408825039863,0.8154116893745958,1.495757028916478
1761391567955417900,7.40441796875,-0.7647118680983781,0.8855832499705254,1.3066460774242876
1761391567965483800,7.41448388671875,-0.6570785918533801,0.9314343160413205,1.0672733307469635
1761391567975551000,7.424551025390625,-0.4175187251061201,0.9254613060463219,0.7970808637183159
1761391567985617000,7.434616943359375,-0.10190613076984882,0.8407675182968377,0.5814044152531772
1761391567995683000,7.44468310546875,0.19841361736655233,0.6523873652972281,0.42946975006479765
1761391568005749000,7.4547490234375,0.44607612654864787,0.4743836448833346,0.3601597016690299
1761391568015814700,7.464814697265625,0.6482096412211656,0.3822258779287338,0.3302697729811072
1761391568025882000,7.474882080078125,0.8587094177007675,0.3952947644688189,0.3434947999309748
1761391568035947800,7.48494775390625,1.0853075115442274,0.4144738044522702,0.3009921309726313
1761391568046014000,7.495013916015625,1.2806576496869324,0.35653321826755996,0.17581998316664246
1761391568056080000,7.505079833984375,1.4888386278301478,0.30776297681443393,0.03508612735783681
1761391568066145800,7.515145751953125,1.725311049956083,0.22297522717118262,0.0033240481224842367
1761391568076212000,7.5252119140625,1.910793874078989,0.02977722556106746,0.03437116575520485
1761391568086279000,7.53527880859375,1.9506161813795566,-0.19030644488707182,-0.0360004839900881
1761391568096344800,7.5453447265625,1.7252391537636518,-0.30421419829167423,-0.18580317865107207
1761391568106411000,7.555410888671875,1.3708183976054191,-0.3260848885118961,-0.38910895197335627
1761391568116476700,7.5654765625,1.1624649855047464,-0.2887212994750589,-0.5633445154927671
1761391568126542800,7.57554296875,1.074769166395068,-0.25015001514889296,-0.6537139377258717
1761391568136608800,7.58560888671875,0.8285375667989253,-0.24636618576124308,-0.6748228497933596
1761391568146675700,7.59567578125,0.6132914725750684,-0.32847463319264353,-0.504010794449225
1761391568156742000,7.605741943359375,0.6917308030396699,-0.3395655707232654,-0.26538404383361336
1761391568166807800,7.615807861328125,0.8264268582552671,0.015161767166107893,-0.3943019540391862
1761391568176874000,7.6258740234375,0.8216098133623599,0.4727721910987049,-0.7223324236609041
1761391568186940000,7.63593994140625,0.30424481262564657,0.7837135787535459,-0.8931593843132257
1761391568197006000,7.646006103515625,-0.5903752918899059,0.8142774246476591,-0.8184515685271472
1761391568207073000,7.656072998046875,-1.5814321558535098,0.6652420976299792,-0.5344494065284728
1761391568217139000,7.666138916015625,-2.26754862614274,0.658310617866367,-0.2809166170734912
1761391568227204900,7.676204833984375,-2.6107857249855995,0.8303239387590438,-0.07252930270321667
1761391568237270800,7.686270751953125,-2.669955122312903,1.0101090626969933,0.09792107972167431
1761391568247337000,7.6963369140625,-2.541764211207628,1.1057546717673539,0.22391228882558642
1761391568257403000,7.70640283203125,-2.3050778540700674,1.0986419171527027,0.24015425244383512
1761391568267469800,7.7164697265625,-2.0601684429883957,1.080414405740425,0.0276307150516659
1761391568277536000,7.726535888671875,-1.7014403450250624,1.0872805651828645,-0.37418724064081904
1761391568287602000,7.736601806640625,-1.2723656221598385,1.113317946628481,-0.7568104473240673
1761391568297668000,7.746668212890625,-0.8984083908826113,1.1318367691375315,-0.9821282190334051
1761391568307733800,7.756733642578125,-0.5324450809687375,1.0848412822719662,-1.1263497890938072
1761391568317799700,7.766799560546875,-0.17808394604325292,1.0022225472308695,-1.24113315628916
1761391568327867000,7.776866943359375,0.26368366965651513,0.8951995118387043,-1.3502423503056167
1761391568337932800,7.786932861328125,0.7436854466825723,0.6944556248936802,-1.4350031388767064
1761391568347999000,7.7969990234375,1.1346277150303126,0.44153303975891317,-1.4999484892569481
1761391568358065000,7.80706494140625,1.3315642455816268,0.23671499871015547,-1.5230506940335033
1761391568368130300,7.81713037109375,1.3030091822266578,0.09274828019365668,-1.5099214556083083
1761391568378196200,7.8271962890625,1.12858960390985,0.07228360258014872,-1.4655068520814178
1761391568388263200,7.83726318359375,0.8702753523319959,0.08177976346630603,-1.418115278570354
1761391568398329300,7.847329345703125,0.5428560003459453,0.015075915513560176,-1.3857685678474605
1761391568408395300,7.857395263671875,0.29470366182029245,-0.061203871430130674,-1.395162273006141
1761391568418461400,7.86746142578125,0.1997393130123615,-0.10393399246879853,-1.384316615473479
1761391568428527000,7.877527099609375,0.15541034194231032,-0.17382174028782174,-1.289041739411652
1761391568438593000,7.887593017578125,0.2390016483426094,-0.26797807891480624,-1.2199592892266808
1761391568448660200,7.89766015625,0.4820066871076822,-0.2848126015987247,-1.188534296458587
1761391568458726100,7.90772607421875,0.8116483913183212,-0.3692223847750574,-1.162508897711709
1761391568468792300,7.917792236328125,1.2183406019836664,-0.589303717135638,-1.2146806181713938
1761391568478858200,7.927858154296875,1.7368711393684149,-0.8052092981815338,-1.344732354712486
1761391568488924200,7.937924072265625,2.2813941961437463,-1.0041099684126675,-1.44346774649173
1761391568498991400,7.947991455078125,2.606073309510946,-1.2707305683039127,-1.460814310351014
1761391568509057300,7.958057373046875,2.5918893013358115,-1.4902983251191675,-1.3964265938535332
1761391568519123200,7.968123291015625,2.355627307090163,-1.5989166668787598,-1.2480930584296583
1761391568529189000,7.978189208984375,2.0589128899693487,-1.5125184863641856,-1.0396007493149488
1761391568539255000,7.988255126953125,1.8568898499339819,-1.4322050325907767,-0.8576335320975631
1761391568549321200,7.9983212890625,1.6896417706817388,-1.4240548977524041,-0.6894998291172086
1761391568559388200,8.00838818359375,1.5063871440023182,-1.4905126985222101,-0.5233402026887983
1761391568569454000,8.0184541015625,1.2382903340786695,-1.5453414362967013,-0.37662425852939485
1761391568579520300,8.028520263671876,0.9388941305279731,-1.5036929364822804,-0.3373731021802872
1761391568589586200,8.038586181640625,0.578806434649229,-1.4271416117213667,-0.4561491922736168
1761391568599652400,8.04865234375,0.22679507772028445,-1.3900079589828849,-0.6855019916526973
1761391568609718300,8.05871826171875,-0.15286007293760775,-1.445224819292128,-0.8285046874426305
1761391568619785200,8.06878515625,-0.5255845475494861,-1.5738631819039581,-0.8110066593486815
1761391568629851400,8.078851318359375,-0.9245178146511316,-1.7269217000231145,-0.6836801830530166
1761391568639917000,8.0889169921875,-1.3831342738211154,-1.8794741683162748,-0.5250932569012046
1761391568649983200,8.098983154296874,-1.8848095379948615,-1.9804913874223826,-0.47333618165701624
1761391568660049200,8.109049072265625,-2.354019871893525,-1.9709004061259328,-0.5120306539714337
1761391568670115300,8.119115234375,-2.777749726599455,-1.8561548136577009,-0.6241936826005577
1761391568680182300,8.129182373046875,-2.902726936355233,-1.6548633027672766,-0.7267167762249708
1761391568690248200,8.139248291015624,-2.7424323295027015,-1.496603708873689,-0.7360222185783087
1761391568700314400,8.149314453125,-2.4796961698293685,-1.4809841149374843,-0.641821401488781
1761391568710380300,8.15938037109375,-2.2158383126497267,-1.5655788992919026,-0.5417100451812148
1761391568720446200,8.1694462890625,-2.104689137238264,-1.6854627314314246,-0.5185980496630073
1761391568730512100,8.17951220703125,-2.2251246119111774,-1.7708090648055075,-0.5090639131203294
1761391568740579000,8.1895791015625,-2.6069676280021667,-1.7610124779343603,-0.491825339680165
1761391568750645200,8.199645263671876,-3.1128438509970904,-1.594413802501559,-0.44969417091533537
1761391568760711200,8.209711181640625,-3.3819454540491103,-1.2990237658523023,-0.2755420113630593
1761391568770777300,8.21977734375,-3.2413270230472087,-0.9537200168032198,0.036256577643007035
1761391568780843300,8.22984326171875,-2.7030004828244447,-0.679782079635933,0.36749314982965586
1761391568790909200,8.2399091796875,-1.8772528390049934,-0.4181093114104122,0.46471389926224943
1761391568800976400,8.249976318359375,-1.0480080007195471,-0.19139877016842363,0.38231998595297334
1761391568811042300,8.260042236328125,-0.446394690978527,-0.23860826511085031,0.1721207998551428
1761391568821108200,8.270108154296874,-0.40368133841156956,-0.5921348123757169,-0.14168664475530385
1761391568831174100,8.280174072265625,-1.0297171417474746,-0.9397932713247835,-0.3749963650666177
1761391568841240000,8.290239990234374,-1.6841332363933323,-0.9467991314988583,-0.5336240616202355
1761391568851307300,8.300307373046875,-2.1158575969845055,-0.7444117151305079,-0.49622839694470167
1761391568861373200,8.310373291015624,-2.4202730900019405,-0.3526690171200782,-0.33740561621040105
1761391568871439000,8.320439208984375,-2.4786890386134384,0.05786942064464092,-0.1361804485544562
1761391568881505300,8.33050537109375,-2.0553870539307595,0.3874906665891409,0.23038681860193608
1761391568891571200,8.3405712890625,-1.2405249612629412,0.6139612615954131,0.553525424528867
1761391568901637400,8.350637451171876,-0.23138415907621382,0.678507018198818,0.8693585297480225
1761391568911704300,8.360704345703125,0.7032113974750042,0.6595685820382088,1.2584962328918277
1761391568921770200,8.370770263671876,1.3974977302163838,0.6941737392123788,1.5430926344566047
1761391568931836200,8.380836181640625,1.8290362128466366,0.8536289726313203,1.662094276934117
1761391568941902000,8.390902099609375,1.824048487561941,1.0479643077082932,1.6911843239486217
1761391568951968300,8.40096826171875,1.4178069432735443,1.1404803135160355,1.7891243275664745
1761391568962034200,8.4110341796875,0.704877284860611,1.1328101442143321,1.8955318614087997
1761391568972100400,8.421100341796874,-0.03571779459118843,1.2137024207890033,1.8490271537348626
1761391568982167300,8.431167236328125,-0.584490910026431,1.3367495392650366,1.6006234707966447
1761391568992233200,8.441233154296874,-0.8455033146470785,1.418143774012476,1.2403133643388748
1761391569002299400,8.45129931640625,-0.8621353004962206,1.3496373701497912,0.8282602111622691
1761391569012365300,8.461365234375,-0.6889210063159465,1.1572536805972455,0.35099662692844863
1761391569022431200,8.47143115234375,-0.35876024666726586,0.8618936737600713,0.026649229733645915
1761391569032498200,8.481498291015624,-0.0072714523077011105,0.45247992917634544,-0.06685571404621005
1761391569042564000,8.491564208984375,0.2143272258132696,0.1508568433564156,-0.09964052392542362
1761391569052630300,8.50163037109375,0.2849941687107086,0.052010684679076075,-0.2002859871096909
1761391569062696200,8.5116962890625,0.24476386513113974,0.08426818274855613,-0.2403128040064126
1761391569072762400,8.521762451171876,0.16870353875756264,0.15978081211149692,-0.1438228530663997
1761391569082828300,8.531828369140625,0.09292027575969695,0.28530381918177006,-0.06143631934598088
1761391569092895200,8.541895263671876,0.04142448180019855,0.4546555927149951,-0.03904752353578806
1761391569102961400,8.55196142578125,0.09820376912057399,0.6113873194541781,-0.03487900567948818
1761391569113027300,8.56202734375,0.3851940800845623,0.7600950950179248,0.05273943734504282
1761391569123093200,8.57209326171875,0.8041121505945921,0.81538056358397,0.22981267197579144
1761391569133159200,8.5821591796875,1.2124971366524695,0.9080684918925166,0.3468194143090397
1761391569143225000,8.59222509765625,1.6319705029577016,0.8820058298751712,0.523959795891866
1761391569153292300,8.602292236328125,2.088092222702503,0.7533528542160988,0.6069881346471607
1761391569163358200,8.612358154296874,2.4837229411274193,0.6491000872548669,0.6225953074932098
1761391569173424000,8.622424072265625,2.6726298944801092,0.539737429933995,0.6299963775299489
1761391569183490300,8.632490234375,2.4632816261231896,0.3859234172724187,0.763287388253212
1761391569193556200,8.64255615234375,1.9388772282689808,0.25526377796605226,0.7890808779403566
1761391569203622400,8.652622314453126,1.5148387460052966,0.3136017659705132,0.7588372769765556
1761391569213689300,8.662689453125,1.078005079576373,0.41984811790175736,0.7017807801499962
1761391569223755000,8.672755126953126,0.7748474776655435,0.42999607549384233,0.6824710264589637
1761391569233821200,8.6828212890625,0.47215807778835295,0.34562340945750475,0.6581807078763843
1761391569243887000,8.69288720703125,0.28127544044852254,0.22405820010229943,0.6251636966764926
1761391569253953300,8.702953369140625,0.23146190048754214,0.015110621500760316,0.5137164151012897
1761391569264019200,8.713019287109375,0.19167641806602476,-0.23073285556063056,0.401205230621621
1761391569274086100,8.723086181640625,0.16339549547731874,-0.4280470603179186,0.35359084467273205
1761391569284152300,8.73315234375,-0.018098551270365713,-0.5731623643476516,0.2665487036988139
1761391569294218200,8.74321826171875,-0.37002690609097477,-0.6483174124445766,0.03371186159625649
1761391569304284400,8.753284423828125,-0.649678544729948,-0.6351102134123444,-0.09043832275085151
1761391569314350000,8.76335009765625,-0.9080418961465359,-0.7433093799117952,-0.19671583700533954
1761391569324416300,8.773416259765625,-1.1406640725851058,-0.8988343612097203,-0.35151834924761205
1761391569334483200,8.783483154296874,-1.2497872951269149,-0.9423792692299932,-0.5053896085217595
1761391569344549000,8.793549072265625,-1.2715899616122246,-0.8722333545319736,-0.5659351895730942
1761391569354615300,8.803615234375,-1.3692916264295578,-0.7669769634861499,-0.4292107703350484
1761391569364681200,8.81368115234375,-1.409176477572322,-0.5712253318704664,-0.1627840490480885
1761391569374748000,8.823747802734376,-1.5354104093909262,-0.3789981480538845,0.08148089011758565
1761391569384814000,8.83381396484375,-1.7216753238022326,-0.3546461624119431,0.3451330686572939
1761391569394881000,8.843881103515624,-1.7771686629652976,-0.5264656412329525,0.5407657500684261
1761391569404947000,8.853947021484375,-1.3443050692111254,-0.43337592719048257,0.34052809561248865
1761391569415013000,8.86401318359375,-0.6411860261946917,-0.2502560328066349,-0.07319372142869979
1761391569425079000,8.8740791015625,-0.02711129428744316,-0.3007014409303665,-0.4793011544760316
1761391569435145200,8.884145263671876,-0.03167874833345413,-0.7385393159657716,-0.6928529389373957
1761391569445212200,8.894212158203125,-0.69049979993999,-1.1580592978917061,-0.7684560230627655
1761391569455278000,8.904278076171876,-1.7351374474436043,-1.1218510163698345,-0.8468569212131202
1761391569465344300,8.91434423828125,-2.874519079002738,-0.7396241885930299,-0.8415347032770514
1761391569475410000,8.924409912109375,-3.626910979232192,-0.16045542343743144,-0.5156394190531224
1761391569485476000,8.93447607421875,-3.87337521854043,0.3768593093942851,0.069640741654858
1761391569495542000,8.9445419921875,-3.5261189471840857,0.8804779627207666,0.6795867762595414
1761391569505609000,8.95460888671875,-2.716795199421048,1.2601762949332593,1.1709127881154417
1761391569515675100,8.964675048828125,-1.8019979837954043,1.4373878420561552,1.440896142438054
1761391569525741000,8.974740966796874,-1.0983920340448616,1.3675246167570352,1.4547130708664655
1761391569535807200,8.98480712890625,-0.5700006123811007,1.2191316062308848,1.174673163562268
1761391569545873200,8.994873046875,-0.16335983964204787,1.134540548203513,0.6830005302257836
1761391569555939000,9.00493896484375,0.2281435697197914,1.0975009304240346,0.20720588603336362
1761391569566006300,9.01500634765625,0.59974868491292,1.0624068206891417,-0.1593709892015904
1761391569576072200,9.025072265625,0.948879517969489,0.9803804255180061,-0.40922282512150704
1761391569586138000,9.03513818359375,1.2565022825956345,0.8567112296208739,-0.6590519377529621
1761391569596204000,9.0452041015625,1.488894157409668,0.781762079359591,-0.9532687659043818
1761391569606270000,9.05527001953125,1.6396470289349554,0.7068012386605144,-1.1425889762330799
1761391569616336100,9.065336181640625,1.57473645760715,0.6100663730487227,-1.2041919573828577
1761391569626403000,9.075403076171876,1.4771850149154662,0.5675334916152059,-1.253565352360904
1761391569636469200,9.08546923828125,1.478039585918188,0.6287447700336575,-1.2511714429616927
1761391569646535200,9.09553515625,1.3606237513273953,0.6975425580583512,-1.0337889942962675
1761391569656601000,9.10560107421875,1.1168407139271497,0.8007055570214986,-0.6575404372114688
1761391569666667000,9.1156669921875,0.7542705535829067,1.0462637874007223,-0.30609462347710503
1761391569676733000,9.12573291015625,0.33935645801723,1.3827186787575483,-0.07041853936063125
1761391569686800100,9.135800048828125,-0.29352760377824305,1.8188230079986154,0.16495675344467162
1761391569696866000,9.145865966796874,-0.31854104900360103,1.6606125139437615,0.6653820906225592
1761391569706932000,9.155931884765625,0.39558161858618257,1.4493332775242627,1.243188919775188
1761391569716998100,9.165998046875,1.0493225904494523,1.7163947530508041,1.5053408498197793
1761391569727064000,9.17606396484375,1.215094167408347,1.783040039216727,1.668092348305136
1761391569737130200,9.186130126953126,1.2816577666401863,1.5895574485115707,1.6840718615949153
1761391569747197200,9.196197265625,1.325095926350355,1.2340164561517535,1.5657139238484203
1761391569757263000,9.20626318359375,1.3467723361074924,0.8187373266659677,1.262089288947731
1761391569767329300,9.216329345703125,1.4555559514313936,0.520985529321432,0.8919014932066202
1761391569777395000,9.22639501953125,1.6637912901103495,0.3118571873255074,0.47010998615212735
1761391569787461000,9.236461181640625,1.7823592173457146,0.028140345074236392,0.02577531470963731
