time,seconds_elapsed,z,y,x
1761391560627241700,0.07624169921875,0.3961794674396515,0.01989852637052536,0.11571783572435379
1761391560637308000,0.086307861328125,0.389978289604187,0.044776711612939835,0.07986635714769363
1761391560647373600,0.09637353515625,0.36933276057243347,0.0692879855632782,0.004258797038346529
1761391560657440800,0.106440673828125,0.3360922336578369,0.03830770030617714,-0.11576374620199203
1761391560667506700,0.116506591796875,0.29683658480644226,0.004489496350288391,-0.2502507269382477
1761391560677572600,0.126572509765625,0.2606026828289032,0.022338269278407097,-0.38188254833221436
1761391560687638800,0.136638671875,0.23848149180412292,0.094628244638443,-0.49822136759757996
1761391560697704700,0.14670458984375,0.2359970211982727,0.17790448665618896,-0.585602879524231
1761391560707771000,0.15677099609375,0.2540223300457001,0.21105653047561646,-0.6259148716926575
1761391560717837800,0.166837890625,0.284099280834198,0.1885107308626175,-0.5936195254325867
1761391560727903700,0.17690380859375,0.31392642855644226,0.16066290438175201,-0.4737120270729065
1761391560737970000,0.186969970703125,0.3221023380756378,0.11747816950082779,-0.29641100764274597
1761391560748035600,0.19703564453125,0.3101916015148163,0.0667121559381485,-0.09443063288927078
1761391560758101800,0.207101806640625,0.29638123512268066,0.04275728762149811,0.11514682322740555
1761391560768168700,0.217168701171875,0.292890727519989,0.029727347195148468,0.2495156079530716
1761391560778234600,0.227234619140625,0.3146551251411438,0.03926119953393936,0.2944018244743347
1761391560788300800,0.23730078125,0.36450818181037903,0.08750702440738678,0.2802322208881378
1761391560798366700,0.24736669921875,0.4287782311439514,0.15298323333263397,0.2065097987651825
1761391560808433000,0.257432861328125,0.4892364740371704,0.236574187874794,0.14331018924713135
1761391560818498800,0.267498779296875,0.5395206809043884,0.3412865102291107,0.09123019874095917
1761391560828565800,0.277565673828125,0.5737349987030029,0.4495829939842224,0.031253062188625336
1761391560838632000,0.2876318359375,0.597118616104126,0.5190840363502502,-0.042335670441389084
1761391560848697600,0.297697509765625,0.6357567310333252,0.5250744819641113,-0.13297107815742493
1761391560858763800,0.307763671875,0.7004302740097046,0.48629775643348694,-0.20451636612415314
1761391560868829700,0.31782958984375,0.7803540825843811,0.4120945930480957,-0.24270905554294586
1761391560878896600,0.327896728515625,0.8637232780456543,0.25167641043663025,-0.24887187778949738
1761391560888962800,0.337962890625,0.9319682121276855,0.041834041476249695,-0.26224854588508606
1761391560899028700,0.34802880859375,0.9756981134414673,-0.19595454633235931,-0.2875027656555176
1761391560909095000,0.358094970703125,1.0022722482681274,-0.44291937351226807,-0.33979925513267517
1761391560919160800,0.368160888671875,1.012825846672058,-0.6131893992424011,-0.3936087191104889
1761391560929226800,0.378226806640625,1.0067310333251953,-0.67450350522995,-0.43145355582237244
1761391560939294000,0.3882939453125,0.9840428233146667,-0.6187523603439331,-0.44719815254211426
1761391560949359600,0.398359619140625,0.9424290657043457,-0.4850447177886963,-0.4226098954677582
1761391560959425800,0.40842578125,0.8775128722190857,-0.3371109366416931,-0.37606900930404663
1761391560969491700,0.41849169921875,0.8115290403366089,-0.16724835336208344,-0.3022247850894928
1761391560979557600,0.4285576171875,0.7432916760444641,0.0206613689661026,-0.22090674936771393
1761391560989624800,0.438624755859375,0.6905132532119751,0.1682543307542801,-0.16548402607440948
1761391560999690800,0.448690673828125,0.6461063623428345,0.2389703243970871,-0.1652025282382965
1761391561009757000,0.4587568359375,0.604688286781311,0.20447051525115967,-0.21539080142974854
1761391561019822800,0.46882275390625,0.563008189201355,0.05418885871767998,-0.3101047873497009
1761391561029888800,0.478888671875,0.5209009647369385,-0.1460820585489273,-0.3959527909755707
1761391561039954700,0.48895458984375,0.48345237970352173,-0.33381494879722595,-0.46390679478645325
1761391561050021600,0.499021728515625,0.430663526058197,-0.48143261671066284,-0.4963549077510834
1761391561060087800,0.509087890625,0.37943658232688904,-0.5305881500244141,-0.48933905363082886
1761391561070153700,0.51915380859375,0.3433634042739868,-0.5072906613349915,-0.4612954556941986
1761391561080219600,0.5292197265625,0.3132092356681824,-0.4230804443359375,-0.4153950810432434
1761391561090285800,0.539285888671875,0.2686487138271332,-0.3140988051891327,-0.3605598211288452
1761391561100352800,0.549352783203125,0.22384130954742432,-0.24601508677005768,-0.30649417638778687
1761391561110418700,0.559418701171875,0.18676933646202087,-0.22198078036308289,-0.21154789626598358
1761391561120484900,0.56948486328125,0.19547680020332336,-0.21829336881637573,-0.05535590276122093
1761391561130550800,0.57955078125,0.2465834617614746,-0.19578157365322113,0.15995486080646515
1761391561140616700,0.58961669921875,0.3245653212070465,-0.2115330994129181,0.3792853355407715
1761391561150684000,0.599683837890625,0.4458692967891693,-0.22328315675258636,0.5805791020393372
1761391561160749600,0.60974951171875,0.5919026732444763,-0.2892136871814728,0.7577179670333862
1761391561170815700,0.619815673828125,0.6837833523750305,-0.42093250155448914,0.8682550191879272
1761391561180881700,0.629881591796875,0.6588167548179626,-0.5396932363510132,0.9220910668373108
1761391561190947800,0.63994775390625,0.5430214405059814,-0.6522672772407532,0.9071745276451111
1761391561201013800,0.650013671875,0.4078638553619385,-0.7728149890899658,0.841134786605835
1761391561211080700,0.660080810546875,0.28491196036338806,-0.8133572340011597,0.7705115079879761
1761391561221147000,0.67014697265625,0.19344621896743774,-0.7232563495635986,0.7227299213409424
1761391561231212800,0.680212890625,0.1433832198381424,-0.5313277840614319,0.7055211663246155
1761391561241278700,0.69027880859375,0.16349168121814728,-0.28963154554367065,0.7015959024429321
1761391561251344600,0.7003447265625,0.2565575838088989,-0.13659130036830902,0.6509901285171509
1761391561261411600,0.71041162109375,0.3883340060710907,-0.04283604770898819,0.5501695275306702
1761391561271477800,0.720477783203125,0.5095263719558716,-0.06877472996711731,0.46204912662506104
1761391561281543700,0.730543701171875,0.514491617679596,-0.41973698139190674,0.33325839042663574
1761391561291609900,0.74060986328125,0.3912912905216217,-0.9481074213981628,0.283420592546463
1761391561301675800,0.75067578125,0.1943822205066681,-0.9726418256759644,0.3994060456752777
1761391561311742000,0.760741943359375,0.09721149504184723,-0.5376147031784058,0.6947323083877563
1761391561321809000,0.770808837890625,0.11959163844585419,0.06208253651857376,1.0825273990631104
1761391561331874800,0.780874755859375,0.20165351033210754,0.7021715641021729,1.4297064542770386
1761391561341941000,0.79094091796875,0.29121190309524536,1.2456257343292236,1.6433995962142944
1761391561352006700,0.801006591796875,0.42840293049812317,1.5536401271820068,1.7241981029510498
1761391561362072800,0.81107275390625,0.5481823682785034,1.572378396987915,1.6747336387634277
1761391561372139800,0.821139892578125,0.5695806741714478,1.401612639427185,1.5566198825836182
1761391561382205400,0.831205322265625,0.47318997979164124,1.0831431150436401,1.427503228187561
1761391561392271600,0.841271728515625,0.34674423933029175,0.6328593492507935,1.2762004137039185
1761391561402337500,0.851337646484375,0.2743408679962158,0.17017266154289246,1.0836938619613647
1761391561412403500,0.861403564453125,0.26710930466651917,-0.02783980220556259,0.9089102745056152
1761391561422469600,0.8714697265625,0.3213485777378082,-0.10923745483160019,0.8069932460784912
1761391561432536600,0.88153662109375,0.4240696132183075,-0.09775030612945557,0.7367043495178223
1761391561442602800,0.891602783203125,0.5205375552177429,0.015511004254221916,0.659538984298706
1761391561452668700,0.901668701171875,0.6003228425979614,0.2402842938899994,0.5895763635635376
1761391561462734600,0.911734619140625,0.6360747218132019,0.42561662197113037,0.5349836945533752
1761391561472800500,0.921800537109375,0.5723113417625427,0.496999591588974,0.5061232447624207
1761391561482867500,0.931867431640625,0.5278863906860352,0.5936374664306641,0.527685821056366
1761391561492933600,0.94193359375,0.525177538394928,0.6675326824188232,0.5599080324172974
1761391561502999600,0.95199951171875,0.56171053647995,0.5902674198150635,0.6054398417472839
1761391561513065500,0.9620654296875,0.5345056056976318,0.5023896098136902,0.6563142538070679
1761391561523131600,0.972131591796875,0.4815353453159332,0.4573555290699005,0.6907965540885925
1761391561533198600,0.982198486328125,0.41345176100730896,0.4351346790790558,0.6857295036315918
1761391561543264500,0.992264404296875,0.3421400189399719,0.41266319155693054,0.6433098912239075
1761391561553330700,1.00233056640625,0.3180931806564331,0.48274898529052734,0.6211653351783752
1761391561563396600,1.012396728515625,0.3599404990673065,0.553152859210968,0.6085565686225891
1761391561573462500,1.022462646484375,0.4312913119792938,0.6328912973403931,0.6039711236953735
1761391561583528400,1.032528564453125,0.4839244484901428,0.807584822177887,0.6167745590209961
1761391561593595400,1.042595458984375,0.5878518223762512,0.877389132976532,0.6680523753166199
1761391561603661600,1.05266162109375,0.6481761336326599,0.6885145306587219,0.687698245048523
1761391561613727500,1.0627275390625,0.6278449296951294,0.36219915747642517,0.6416206359863281
1761391561623793700,1.072793701171875,0.5837858319282532,0.04154125228524208,0.5081672072410583
1761391561633859600,1.082859619140625,0.6293033957481384,-0.045801982283592224,0.32345420122146606
1761391561643925800,1.09292578125,0.7040690183639526,-0.06098945811390877,0.08242721855640411
1761391561653992700,1.10299267578125,0.746277391910553,-0.07813259214162827,-0.14748850464820862
1761391561664058600,1.11305859375,0.7455631494522095,-0.09289129823446274,-0.30467623472213745
1761391561674124500,1.12312451171875,0.7186241745948792,-0.06752997636795044,-0.3930283188819885
1761391561684190500,1.1331904296875,0.6816502213478088,-0.007686620112508535,-0.43244150280952454
1761391561694256600,1.143256591796875,0.6562769412994385,0.07891135662794113,-0.4151180684566498
1761391561704323600,1.153323486328125,0.6607614159584045,0.16920076310634613,-0.3525710701942444
1761391561714389500,1.163389404296875,0.6649653911590576,0.21054762601852417,-0.283283531665802
1761391561724455700,1.17345556640625,0.6441764831542969,0.1660025268793106,-0.22345641255378723
1761391561734521600,1.183521484375,0.6013719439506531,0.1467999964952469,-0.13663972914218903
1761391561744587800,1.193587890625,0.522631049156189,0.15465791523456573,-0.04241708666086197
1761391561754653700,1.20365380859375,0.43454721570014954,0.15670578181743622,0.028102932497859
1761391561764720600,1.213720703125,0.36640092730522156,0.12839718163013458,0.052568595856428146
1761391561774786800,1.223786865234375,0.3563840091228485,0.08215303719043732,0.028774559497833252
1761391561784852500,1.2338525390625,0.38899973034858704,0.059140659868717194,-0.050626788288354874
1761391561794918700,1.243918701171875,0.4588344693183899,0.06399615108966827,-0.13884125649929047
1761391561804984600,1.253984619140625,0.5459480881690979,0.07540620118379593,-0.1914362907409668
1761391561815051500,1.264051513671875,0.6592848896980286,0.08881184458732605,-0.13974572718143463
1761391561825117700,1.27411767578125,0.8035216927528381,0.06301939487457275,0.015522416681051254
1761391561835183600,1.28418359375,0.9082536697387695,-0.0041985539719462395,0.1528436243534088
1761391561845249500,1.29424951171875,0.92913818359375,-0.06486669182777405,0.16462652385234833
1761391561855315700,1.304315673828125,0.9077040553092957,-0.17839105427265167,0.0537097230553627
1761391561865381400,1.31438134765625,0.9045976996421814,-0.36497369408607483,-0.07887841016054153
1761391561875448600,1.324448486328125,0.9083437323570251,-0.573845624923706,-0.17702114582061768
1761391561885514500,1.334514404296875,0.8862440586090088,-0.7519251108169556,-0.24261213839054108
1761391561895580400,1.344580322265625,0.8327082991600037,-0.7783380150794983,-0.3176536560058594
1761391561905646600,1.354646484375,0.769782304763794,-0.6267018914222717,-0.40383806824684143
1761391561915712500,1.36471240234375,0.6914368867874146,-0.35356956720352173,-0.49302786588668823
1761391561925779500,1.374779541015625,0.6219174861907959,0.003613598644733429,-0.5706281065940857
1761391561935845600,1.384845703125,0.5773778557777405,0.36578917503356934,-0.5867791771888733
1761391561945911600,1.39491162109375,0.5810586214065552,0.7654446363449097,-0.5070058107376099
1761391561955977700,1.404977783203125,0.6556304097175598,1.1024482250213623,-0.31697291135787964
1761391561966043600,1.415043701171875,0.7844514846801758,1.2901358604431152,-0.04900166764855385
1761391561976109600,1.425109619140625,0.9397369027137756,1.366244912147522,0.24961061775684357
1761391561986176500,1.435176513671875,1.0856025218963623,1.2778245210647583,0.5097337961196899
1761391561996242400,1.445242431640625,1.2082868814468384,1.0457018613815308,0.7125782370567322
1761391562006308600,1.45530859375,1.3407251834869385,0.7596120834350586,0.812499463558197
1761391562016374500,1.46537451171875,1.4951978921890259,0.48979949951171875,0.7800399661064148
1761391562026440700,1.475440673828125,1.650383472442627,0.3422262966632843,0.636345624923706
1761391562036507600,1.485507568359375,1.7945704460144043,0.022010479122400284,0.3973791301250458
1761391562046573600,1.495573486328125,1.8942639827728271,-0.34956875443458557,0.1323380023241043
1761391562056639700,1.5056396484375,1.9670798778533936,-0.6661914587020874,-0.11873459815979004
1761391562066705700,1.51570556640625,1.9974836111068726,-0.9816942811012268,-0.3368927538394928
1761391562076771600,1.525771484375,1.978245735168457,-1.1390944719314575,-0.5027933716773987
1761391562086837500,1.53583740234375,1.9072916507720947,-1.201719045639038,-0.6143673062324524
1761391562096904400,1.545904541015625,1.794991374015808,-1.1746132373809814,-0.635159969329834
1761391562106970600,1.555970703125,1.6432251930236816,-1.014293909072876,-0.6067925691604614
1761391562117036500,1.56603662109375,1.4840437173843384,-0.7694931030273438,-0.5700402855873108
1761391562127102700,1.576102783203125,1.3135595321655273,-0.5576918721199036,-0.5548935532569885
1761391562137168600,1.586168701171875,1.1528112888336182,-0.3074798882007599,-0.4988635778427124
1761391562147235600,1.596235595703125,1.0181818008422852,-0.011924650520086288,-0.40039828419685364
1761391562157301800,1.6063017578125,0.9041168689727783,0.17048907279968262,-0.32067692279815674
1761391562167367700,1.61636767578125,0.8036605715751648,0.20154473185539246,-0.2779979109764099
1761391562177433600,1.62643359375,0.7191820740699768,0.19158831238746643,-0.26694566011428833
1761391562187499500,1.63649951171875,0.6676453948020935,0.260210245847702,-0.2377782166004181
1761391562197565400,1.6465654296875,0.6241986155509949,0.4085288643836975,-0.2034902125597
1761391562207632600,1.656632568359375,0.5785642862319946,0.5154628157615662,-0.2013961672782898
1761391562217698600,1.666698486328125,0.532999575138092,0.5681789517402649,-0.24467822909355164
1761391562227764500,1.676764404296875,0.5082973837852478,0.6070733666419983,-0.3225218951702118
1761391562237830700,1.68683056640625,0.5093479156494141,0.6074588894844055,-0.4242781400680542
1761391562247896600,1.696896484375,0.5313277840614319,0.5047990679740906,-0.5145657062530518
1761391562257963800,1.7069638671875,0.5568709373474121,0.37641891837120056,-0.5409632325172424
1761391562268029700,1.71702978515625,0.5613386631011963,0.2919676899909973,-0.4815736711025238
1761391562278095400,1.727095458984375,0.5531085729598999,0.20954199135303497,-0.3782624900341034
1761391562288161500,1.73716162109375,0.5367791652679443,0.09596854448318481,-0.2560284733772278
1761391562298227500,1.7472275390625,0.5324904918670654,0.023523446172475815,-0.13897204399108887
1761391562308293600,1.757293701171875,0.5335283279418945,-0.027614573016762733,-0.04957612231373787
1761391562318360600,1.767360595703125,0.5293576717376709,-0.06667827069759369,0.0004994315095245838
1761391562328426500,1.777426513671875,0.5198214054107666,-0.08753960579633713,0.04307885095477104
1761391562338492700,1.78749267578125,0.5146966576576233,-0.10515696555376053,0.08431781828403473
1761391562348558600,1.79755859375,0.5271447896957397,-0.11868076771497726,0.10723138600587845
1761391562358624800,1.807624755859375,0.5602197647094727,-0.1318996101617813,0.12707234919071198
1761391562368690400,1.8176904296875,0.610565185546875,-0.16717877984046936,0.13266019523143768
1761391562378757400,1.82775732421875,0.6580341458320618,-0.2292999029159546,0.13828063011169434
1761391562388823600,1.837823486328125,0.7309195399284363,-0.29274997115135193,0.16313432157039642
1761391562398889500,1.847889404296875,0.8181269764900208,-0.38417813181877136,0.22762617468833923
1761391562408955600,1.85795556640625,0.899556577205658,-0.5010693073272705,0.3337153494358063
1761391562419021300,1.868021240234375,0.9345082640647888,-0.6598529815673828,0.4612443447113037
1761391562429088300,1.878088134765625,0.9187823534011841,-0.879655659198761,0.5711865425109863
1761391562439154400,1.888154541015625,0.8684566020965576,-1.0933338403701782,0.6345962285995483
1761391562449220400,1.898220458984375,0.7725391387939453,-1.2138394117355347,0.61989825963974
1761391562459286500,1.90828662109375,0.6300511956214905,-1.1471285820007324,0.51883465051651
1761391562469352400,1.9183525390625,0.42273956537246704,-0.8577072024345398,0.34787675738334656
1761391562479418600,1.928418701171875,0.1811438500881195,-0.4193861782550812,0.1547967940568924
1761391562489485600,1.938485595703125,-0.03512054681777954,0.0902794823050499,-0.01969432272017002
1761391562499551500,1.948551513671875,-0.19713503122329712,0.5932139754295349,-0.1496117264032364
1761391562509617700,1.95861767578125,-0.2955036759376526,0.9746809005737305,-0.21614041924476624
1761391562519683300,1.968683349609375,-0.3217141926288605,1.2323421239852905,-0.206918403506279
1761391562529749500,1.97874951171875,-0.26294273138046265,1.3769211769104004,-0.12910376489162445
1761391562539816400,1.98881640625,-0.11764895915985107,1.3842042684555054,-0.017489328980445862
1761391562549882400,1.99888232421875,0.09415383636951447,1.2476600408554077,0.11150114238262177
1761391562559948500,2.008948486328125,0.34441375732421875,1.008904218673706,0.25782907009124756
1761391562570014500,2.019014404296875,0.6058586835861206,0.7243531346321106,0.41738036274909973
1761391562580080400,2.029080322265625,0.8504188060760498,0.42602282762527466,0.5567762851715088
1761391562590146600,2.039146484375,1.0518726110458374,0.14817844331264496,0.665019690990448
1761391562600213500,2.049213623046875,1.1910713911056519,-0.10503361374139786,0.7297945618629456
1761391562610279700,2.05927978515625,1.2524518966674805,-0.3190487027168274,0.7395172119140625
1761391562620345300,2.069345458984375,1.238784909248352,-0.5040252804756165,0.6631404161453247
1761391562630411300,2.079411376953125,1.1641181707382202,-0.6250249147415161,0.49790140986442566
1761391562640477400,2.0894775390625,1.055245041847229,-0.6414136290550232,0.2775282859802246
1761391562650544400,2.09954443359375,0.9286249876022339,-0.5581530928611755,0.05324646085500717
1761391562660610600,2.109610595703125,0.8035402894020081,-0.3623073995113373,-0.13733352720737457
1761391562670676500,2.119676513671875,0.7024666666984558,-0.10870044678449631,-0.2645457983016968
1761391562680742400,2.129742431640625,0.6456928849220276,0.13618198037147522,-0.31967785954475403
1761391562690808600,2.13980859375,0.6467221975326538,0.38329270482063293,-0.28943338990211487
1761391562700874500,2.14987451171875,0.6947654485702515,0.5761395692825317,-0.19952276349067688
1761391562710941400,2.15994140625,0.7646766304969788,0.6647514700889587,-0.07621628046035767
1761391562721007600,2.170007568359375,0.8368610143661499,0.6551929116249084,0.07221057265996933
1761391562731073300,2.1800732421875,0.8912768363952637,0.5486664772033691,0.2106235772371292
1761391562741139500,2.190139404296875,0.9221392273902893,0.3507002294063568,0.30947408080101013
1761391562751205400,2.200205322265625,0.9268500804901123,0.13711389899253845,0.36264917254447937
1761391562761271600,2.210271484375,0.9167953133583069,-0.02284133806824684,0.3659246265888214
1761391562771338500,2.22033837890625,0.8782618045806885,-0.11795827001333237,0.3224613070487976
1761391562781404400,2.230404296875,0.8100423216819763,-0.15738894045352936,0.24107418954372406
1761391562791470600,2.240470703125,0.7251452803611755,-0.14474745094776154,0.1419132500886917
1761391562801536500,2.25053662109375,0.6371316313743591,-0.07742642611265182,0.05386138707399368
1761391562811602400,2.2606025390625,0.5540562272071838,0.025991573929786682,-0.02282486855983734
1761391562821669600,2.270669677734375,0.47612160444259644,0.11001529544591904,-0.0901142805814743
1761391562831735300,2.2807353515625,0.41055217385292053,0.16555099189281464,-0.14865481853485107
1761391562841801500,2.290801513671875,0.35599634051322937,0.19674468040466309,-0.20631080865859985
1761391562851867400,2.300867431640625,0.3202247619628906,0.19798997044563293,-0.25713005661964417
1761391562861933600,2.31093359375,0.3068760335445404,0.1931326985359192,-0.28176844120025635
1761391562871999500,2.32099951171875,0.30136993527412415,0.17835268378257751,-0.2761843204498291
1761391562882066400,2.33106640625,0.30338025093078613,0.14128616452217102,-0.23086433112621307
1761391562892132600,2.341132568359375,0.3105854392051697,0.09816878288984299,-0.1420886516571045
1761391562902198500,2.351198486328125,0.31067490577697754,0.06638366729021072,-0.029891356825828552
1761391562912264700,2.3612646484375,0.28772032260894775,0.028462650254368782,0.07924284785985947
1761391562922330400,2.371330322265625,0.23916800320148468,-0.016411811113357544,0.17103275656700134
1761391562932396300,2.381396240234375,0.19831137359142303,-0.07146201282739639,0.20667517185211182
1761391562942463500,2.39146337890625,0.18890374898910522,-0.113170325756073,0.18602706491947174
1761391562952529400,2.401529296875,0.2015465795993805,-0.11776960641145706,0.1173984706401825
1761391562962595600,2.411595703125,0.22946202754974365,-0.0967928096652031,0.0335160568356514
1761391562972661500,2.42166162109375,0.2618303596973419,-0.03146253898739815,-0.01918017864227295
1761391562982727400,2.4317275390625,0.28226640820503235,0.01227626670151949,-0.012707658112049103
1761391562992794600,2.441794677734375,0.28085118532180786,0.02333131432533264,0.05965655297040939
1761391563002860500,2.451860595703125,0.26344552636146545,0.059229061007499695,0.18612203001976013
1761391563012926500,2.461926513671875,0.2694847583770752,0.11976511776447296,0.32263273000717163
1761391563022992400,2.471992431640625,0.2713758945465088,0.22006824612617493,0.43088847398757935
1761391563033058300,2.482058349609375,0.2621629536151886,0.2632625997066498,0.4657447040081024
1761391563043124500,2.49212451171875,0.2508721947669983,0.1882687360048294,0.4250629246234894
1761391563053191400,2.50219140625,0.26066702604293823,0.07114823907613754,0.31423306465148926
1761391563063257300,2.51225732421875,0.2503558397293091,-0.10470236837863922,0.13446860015392303
1761391563073323500,2.522323486328125,0.2047497183084488,-0.28568732738494873,-0.08998953551054001
1761391563083389400,2.532389404296875,0.13401426374912262,-0.35596147179603577,-0.3251262307167053
1761391563093455600,2.54245556640625,0.03422907739877701,-0.21372096240520477,-0.5014397501945496
1761391563103522600,2.5525224609375,-0.0837268978357315,0.09110905975103378,-0.6037632822990417
1761391563113588500,2.56258837890625,-0.1929258108139038,0.4742085039615631,-0.617567241191864
1761391563123654400,2.572654296875,-0.26033180952072144,0.8305730819702148,-0.5551837086677551
1761391563133720300,2.58272021484375,-0.27910736203193665,1.0692285299301147,-0.44050636887550354
1761391563143786500,2.592786376953125,-0.23800736665725708,1.2030993700027466,-0.30066072940826416
1761391563153852400,2.602852294921875,-0.13845521211624146,1.2267175912857056,-0.15723884105682373
1761391563163919400,2.61291943359375,0.009112696163356304,1.1795799732208252,-0.016349924728274345
1761391563173985500,2.622985595703125,0.18600358068943024,1.0681546926498413,0.11530450731515884
1761391563184051500,2.633051513671875,0.3808448016643524,0.8791179656982422,0.21644695103168488
1761391563194117600,2.64311767578125,0.5612425804138184,0.6341135501861572,0.2982909381389618
1761391563204183600,2.65318359375,0.7115333080291748,0.38585829734802246,0.37674444913864136
1761391563214249500,2.66324951171875,0.8040086627006531,0.1368255913257599,0.42780256271362305
1761391563224316400,2.67331640625,0.8636208176612854,-0.09900534898042679,0.4489601254463196
1761391563234382300,2.68338232421875,0.9012286067008972,-0.28549614548683167,0.4263778626918793
1761391563244448500,2.693448486328125,0.9042380452156067,-0.43008846044540405,0.34621307253837585
1761391563254514400,2.703514404296875,0.8779283761978149,-0.5518205165863037,0.20990796387195587
1761391563264580600,2.71358056640625,0.8167553544044495,-0.6337240934371948,0.038735926151275635
1761391563274647600,2.7236474609375,0.7208424210548401,-0.6354842185974121,-0.13181956112384796
1761391563284713500,2.73371337890625,0.579107940196991,-0.5539866089820862,-0.2811580300331116
1761391563294779600,2.743779541015625,0.39459431171417236,-0.4286891520023346,-0.40363362431526184
1761391563304845600,2.753845458984375,0.18771101534366608,-0.2440083622932434,-0.46993646025657654
1761391563314911500,2.763911376953125,-0.003136971965432167,-0.018430624157190323,-0.4967379868030548
1761391563324977400,2.773977294921875,-0.16126267611980438,0.21474769711494446,-0.5026830434799194
1761391563335044400,2.78404443359375,-0.2595714032649994,0.4162272810935974,-0.49507468938827515
1761391563345110500,2.794110595703125,-0.29061707854270935,0.5836595296859741,-0.4632226228713989
1761391563355176400,2.804176513671875,-0.2700939476490021,0.6981027722358704,-0.41495469212532043
1761391563365243100,2.8142431640625,-0.22498518228530884,0.7382921576499939,-0.3469473421573639
1761391563375309000,2.82430908203125,-0.17751193046569824,0.7058433890342712,-0.27106884121894836
1761391563385375000,2.834375,-0.12846863269805908,0.6298390626907349,-0.20816168189048767
1761391563395442000,2.84444189453125,-0.08802266418933868,0.5123531818389893,-0.15818879008293152
1761391563405508000,2.854508056640625,-0.04674931988120079,0.37196001410484314,-0.11814092844724655
1761391563415574000,2.864573974609375,-0.012474171817302704,0.19854773581027985,-0.07978980988264084
1761391563425640200,2.87464013671875,0.01066283043473959,0.012071970850229263,-0.04924346134066582
1761391563435706000,2.8847060546875,0.023902468383312225,-0.18180376291275024,-0.029306238517165184
1761391563445772300,2.894772216796875,0.0456353984773159,-0.36623281240463257,-0.025134162977337837
1761391563455839200,2.904839111328125,0.0728616863489151,-0.5438350439071655,-0.034032050520181656
1761391563465905200,2.9149052734375,0.09210565686225891,-0.7312328815460205,-0.06882792711257935
1761391563475971000,2.92497119140625,0.08331376314163208,-0.9021021127700806,-0.11419408023357391
1761391563486037000,2.935037109375,0.040788084268569946,-1.0378168821334839,-0.14248345792293549
1761391563496103200,2.945103271484375,-0.05594778060913086,-1.0847760438919067,-0.1441790908575058
1761391563506170000,2.955170166015625,-0.21456103026866913,-1.0344032049179077,-0.13876086473464966
1761391563516236000,2.965236083984375,-0.4286927580833435,-0.8800373077392578,-0.12401334196329117
1761391563526302200,2.97530224609375,-0.6634032130241394,-0.6480380296707153,-0.1246582418680191
1761391563536368000,2.9853681640625,-0.8869372010231018,-0.3819024860858917,-0.12554295361042023
1761391563546434000,2.99543408203125,-1.0698541402816772,-0.08819694072008133,-0.12425453960895538
1761391563556500200,3.005500244140625,-1.225507140159607,0.19065998494625092,-0.1136157438158989
1761391563566567200,3.015567138671875,-1.364712119102478,0.41239044070243835,-0.08978704363107681
1761391563576633000,3.025633056640625,-1.4883198738098145,0.5560791492462158,-0.05329987406730652
1761391563586699000,3.035698974609375,-1.6069363355636597,0.6322915554046631,-0.0152549147605896
1761391563596765000,3.045764892578125,-1.7043193578720093,0.6103753447532654,0.011025957763195038
1761391563606831000,3.0558310546875,-1.7770980596542358,0.4920816123485565,0.02628404274582863
1761391563616897000,3.06589697265625,-1.8296945095062256,0.3413384258747101,0.04277326911687851
1761391563626964000,3.0759638671875,-1.8762348890304565,0.18637189269065857,0.04862331971526146
1761391563637030100,3.086030029296875,-1.9437034130096436,0.08210700750350952,0.034395650029182434
1761391563647096000,3.096095947265625,-2.041032314300537,0.008404464460909367,-0.024692635983228683
1761391563657162200,3.106162353515625,-2.1423280239105225,0.0002717040479183197,-0.07520880550146103
1761391563667228000,3.116227783203125,-2.211775302886963,0.026385027915239334,-0.06426257640123367
1761391563677295000,3.126295166015625,-2.27069091796875,0.038246482610702515,0.012812498956918716
1761391563687361000,3.136361083984375,-2.339916944503784,-0.054583340883255005,0.08261360228061676
1761391563697427000,3.146427001953125,-2.4811851978302,-0.33272576332092285,0.07387363910675049
1761391563707493000,3.1564931640625,-2.721048355102539,-0.7237203121185303,-0.04639238491654396
1761391563717559000,3.16655908203125,-2.998232126235962,-1.0468541383743286,-0.25656959414482117
1761391563727625200,3.176625244140625,-3.2194857597351074,-1.1688246726989746,-0.5004956126213074
1761391563737692200,3.186692138671875,-3.346243143081665,-0.9485998153686523,-0.70756596326828
1761391563747758000,3.196758056640625,-3.3953146934509277,-0.48617005348205566,-0.8329753875732422
1761391563757824300,3.20682421875,-3.40336012840271,0.055168814957141876,-0.8787386417388916
1761391563767890200,3.21689013671875,-3.3655269145965576,0.579608678817749,-0.8301305770874023
1761391563777956000,3.2269560546875,-3.258671283721924,1.0079172849655151,-0.683936357498169
1761391563788022000,3.23702197265625,-3.091428756713867,1.189540147781372,-0.4964432716369629
1761391563798089000,3.2470888671875,-2.901972532272339,1.1434144973754883,-0.30093902349472046
1761391563808155100,3.257155029296875,-2.761698007583618,0.9740093946456909,-0.08703572303056717
1761391563818221000,3.267220947265625,-2.6844632625579834,0.7511699199676514,0.14116069674491882
1761391563828287200,3.277287353515625,-2.629894256591797,0.5719488859176636,0.3703933656215668
1761391563838353200,3.287353271484375,-2.561236619949341,0.4687007665634155,0.5674065947532654
1761391563848420000,3.297420166015625,-2.453157663345337,0.3752370774745941,0.6870841383934021
1761391563858486300,3.307486328125,-2.3093767166137695,0.3228055536746979,0.7402331233024597
1761391563868552200,3.31755224609375,-2.1679301261901855,0.3074505925178528,0.7226648926734924
1761391563878618000,3.3276181640625,-2.0674939155578613,0.28477299213409424,0.6619964838027954
1761391563888684000,3.33768408203125,-2.029458522796631,0.23636987805366516,0.582098662853241
1761391563898750000,3.34775,-2.05426287651062,0.20021799206733704,0.4930742681026459
1761391563908817200,3.357817138671875,-2.10994815826416,0.17376194894313812,0.41339871287345886
1761391563918883000,3.367883056640625,-2.165273904800415,0.17861875891685486,0.3505265414714813
1761391563928949000,3.377948974609375,-2.1832807064056396,0.20753061771392822,0.31863895058631897
1761391563939015200,3.38801513671875,-2.175595998764038,0.23694922029972076,0.315687894821167
1761391563949081000,3.3980810546875,-2.158413887023926,0.21826595067977905,0.34245994687080383
1761391563959147300,3.408147216796875,-2.1476974487304688,0.192082017660141,0.3864556550979614
1761391563969214200,3.418214111328125,-2.1413333415985107,0.16415652632713318,0.4238680601119995
1761391563979280000,3.42827978515625,-2.1386938095092773,0.10601892322301865,0.4512661397457123
1761391563989346000,3.438345947265625,-2.1340341567993164,0.016241051256656647,0.4739236533641815
1761391563999412000,3.448411865234375,-2.1316170692443848,-0.08482964336872101,0.49373969435691833
1761391564009478100,3.45847802734375,-2.139427900314331,-0.20183981955051422,0.4970270097255707
1761391564019545000,3.468545166015625,-2.157215118408203,-0.3376581072807312,0.4690835475921631
1761391564029611000,3.478611083984375,-2.1897761821746826,-0.46980229020118713,0.41416797041893005
1761391564039677200,3.48867724609375,-2.2176589965820312,-0.5840734839439392,0.3412303924560547
1761391564049743000,3.4987431640625,-2.2458958625793457,-0.6525366306304932,0.2832842469215393
1761391564059809300,3.508809326171875,-2.305619716644287,-0.6946539878845215,0.23194622993469238
1761391564069875000,3.518875,-2.4370486736297607,-0.6883290410041809,0.16990432143211365
1761391564079942000,3.52894189453125,-2.5323219299316406,-0.5466504693031311,0.10017956048250198
1761391564090008000,3.539008056640625,-2.457103967666626,-0.5072047114372253,-0.059946298599243164
1761391564100074000,3.549073974609375,-2.3200104236602783,-0.5746474266052246,-0.24902594089508057
1761391564110140200,3.55914013671875,-2.1376326084136963,-0.49849551916122437,-0.3751457929611206
1761391564120206000,3.5692060546875,-2.010920524597168,-0.44334036111831665,-0.4927789568901062
1761391564130272300,3.579272216796875,-1.835888385772705,-0.4379306435585022,-0.5378445386886597
1761391564140339200,3.589339111328125,-1.699455976486206,-0.6830440163612366,-0.5521230697631836
1761391564150405000,3.599405029296875,-1.6181585788726807,-1.0249727964401245,-0.5200332999229431
1761391564160471300,3.60947119140625,-1.592949628829956,-1.392181158065796,-0.4322882890701294
1761391564170537000,3.619536865234375,-1.6003262996673584,-1.5940407514572144,-0.3744813799858093
1761391564180603100,3.62960302734375,-1.5873843431472778,-1.1775285005569458,-0.23352105915546417
1761391564190670000,3.639670166015625,-1.6054781675338745,-0.4105348289012909,-0.11373528093099594
1761391564200736000,3.649736083984375,-1.7159024477005005,0.29984501004219055,-0.0399036630988121
1761391564210802200,3.65980224609375,-1.865002989768982,0.7439728379249573,0.03346722573041916
1761391564220868000,3.6698681640625,-1.9458112716674805,0.8560138940811157,0.10108143091201782
1761391564230934000,3.67993408203125,-1.9205200672149658,0.6895585656166077,0.13087952136993408
1761391564241000200,3.690000244140625,-1.8680659532546997,0.4138190746307373,0.08079158514738083
1761391564251067100,3.700067138671875,-1.8136740922927856,0.08488143980503082,-0.019563166424632072
1761391564261133300,3.71013330078125,-1.756494164466858,-0.22775183618068695,-0.1403343230485916
1761391564271199000,3.720198974609375,-1.7393732070922852,-0.5267180800437927,-0.26981666684150696
1761391564281265000,3.730264892578125,-1.776375651359558,-0.7971966862678528,-0.3259209394454956
1761391564291331000,3.7403310546875,-1.8767964839935303,-0.9736557006835938,-0.23986777663230896
1761391564301397000,3.75039697265625,-2.02846360206604,-1.027072548866272,-0.008408714085817337
1761391564311464200,3.760464111328125,-2.22232723236084,-1.0183744430541992,0.2747601270675659
1761391564321530000,3.770530029296875,-2.4137039184570312,-0.9838349223136902,0.5125383734703064
1761391564331596000,3.780595947265625,-2.5696897506713867,-0.9362533688545227,0.6493687033653259
1761391564341662200,3.790662109375,-2.674820899963379,-0.9139590263366699,0.6446077823638916
1761391564351728000,3.80072802734375,-2.7278499603271484,-0.9405931830406189,0.4954627454280853
1761391564361794000,3.8107939453125,-2.7472989559173584,-0.9706096649169922,0.250561386346817
1761391564371861000,3.820861083984375,-2.7612104415893555,-1.007635474205017,0.02007773146033287
1761391564381927000,3.830927001953125,-2.7711877822875977,-1.025336503982544,-0.19744500517845154
1761391564391993000,3.8409931640625,-2.7733676433563232,-0.9941626787185669,-0.4409368634223938
1761391564402059000,3.85105908203125,-2.7353150844573975,-0.8922086358070374,-0.6892481446266174
1761391564412125200,3.861125244140625,-2.6591782569885254,-0.7432020902633667,-0.9025365710258484
1761391564422190800,3.87119091796875,-2.5678870677948,-0.617879331111908,-1.0280146598815918
1761391564432258000,3.881258056640625,-2.4910190105438232,-0.6373966336250305,-1.0041862726211548
1761391564442324000,3.891323974609375,-2.435271739959717,-0.7785907983779907,-0.8466659188270569
1761391564452390000,3.901389892578125,-2.4303090572357178,-0.9440144300460815,-0.6258962750434875
1761391564462456000,3.9114560546875,-2.470146894454956,-0.980588436126709,-0.4396308362483978
1761391564472522000,3.92152197265625,-2.4164764881134033,-0.8653838634490967,-0.4250445067882538
1761391564482589000,3.9315888671875,-2.1513524055480957,-0.6760424375534058,-0.5561591386795044
1761391564492655000,3.941655029296875,-1.8149861097335815,-0.5002573132514954,-0.6754434108734131
1761391564502721000,3.951720947265625,-1.5805898904800415,-0.3847440481185913,-0.8321278095245361
1761391564512787200,3.961787109375,-1.4800890684127808,-0.22132143378257751,-0.9333833456039429
1761391564522852900,3.971852783203125,-1.5220372676849365,-0.0471712127327919,-0.9856215119361877
1761391564532919000,3.9819189453125,-1.6656132936477661,0.12577101588249207,-1.0396220684051514
1761391564542986000,3.991986083984375,-1.7226454019546509,0.17259791493415833,-1.109451413154602
1761391564553052000,4.002052001953125,-1.6476222276687622,0.18042686581611633,-1.191792368888855
1761391564563118000,4.0121181640625,-1.5535398721694946,0.23872266709804535,-1.2183177471160889
1761391564573184000,4.02218408203125,-1.4871410131454468,0.2707810401916504,-1.1371220350265503
1761391564583250000,4.03225,-1.441312313079834,0.20758342742919922,-0.9896665811538696
1761391564593316000,4.042316162109375,-1.3939800262451172,0.07484737038612366,-0.805311918258667
1761391564603383000,4.052383056640625,-1.3337992429733276,-0.11028413474559784,-0.6219338774681091
1761391564613449200,4.06244921875,-1.2593494653701782,-0.2996585965156555,-0.4466983675956726
1761391564623515100,4.07251513671875,-1.1802159547805786,-0.45752206444740295,-0.30922505259513855
1761391564633580800,4.082580810546875,-1.116774559020996,-0.6011060476303101,-0.2303590476512909
1761391564643647000,4.09264697265625,-1.087572455406189,-0.700188159942627,-0.1622777283191681
1761391564653713000,4.102712890625,-1.085848331451416,-0.6561908721923828,-0.04582565650343895
1761391564663780000,4.112780029296875,-1.1250859498977661,-0.5303182005882263,0.09493012726306915
1761391564673846000,4.122845947265625,-1.2006597518920898,-0.34675419330596924,0.21503117680549622
1761391564683912000,4.132911865234375,-1.2605068683624268,-0.21740873157978058,0.3040609061717987
1761391564693978000,4.14297802734375,-1.2820528745651245,-0.19024206697940826,0.3516002297401428
1761391564704044000,4.1530439453125,-1.277962327003479,-0.22526396811008453,0.34171751141548157
1761391564714111000,4.163111083984375,-1.3044239282608032,-0.3244032859802246,0.26383379101753235
1761391564724177200,4.17317724609375,-1.3751239776611328,-0.4285328984260559,0.12752653658390045
1761391564734242800,4.183242919921875,-1.5094069242477417,-0.4663916528224945,-0.061991434544324875
1761391564744309000,4.19330908203125,-1.6809433698654175,-0.4245605766773224,-0.2807576060295105
1761391564754375000,4.203375,-1.8160854578018188,-0.30629104375839233,-0.4597580134868622
1761391564764441000,4.213441162109375,-1.8892617225646973,-0.0956411212682724,-0.5597777962684631
1761391564774508000,4.223508056640625,-1.925628662109375,0.1792779415845871,-0.5692382454872131
1761391564784574000,4.233573974609375,-1.9065278768539429,0.4547603726387024,-0.5146692991256714
1761391564794640100,4.24364013671875,-1.8316771984100342,0.661298930644989,-0.41758596897125244
1761391564804706000,4.2537060546875,-1.7258285284042358,0.776202380657196,-0.2857901155948639
1761391564814772200,4.263772216796875,-1.613439679145813,0.8277177214622498,-0.12918932735919952
1761391564824838000,4.273837890625,-1.5018489360809326,0.8174640536308289,0.03772323206067085
1761391564834904800,4.28390478515625,-1.4014151096343994,0.7476862668991089,0.1996494084596634
1761391564844971000,4.293970947265625,-1.3020437955856323,0.6568732857704163,0.35948437452316284
1761391564855037000,4.304036865234375,-1.1923731565475464,0.5352576971054077,0.5106396675109863
1761391564865103000,4.31410302734375,-1.0682154893875122,0.3419750928878784,0.6369661688804626
1761391564875169000,4.3241689453125,-0.9414308071136475,0.12268231064081192,0.7407795786857605
1761391564885235000,4.33423486328125,-0.8552842140197754,-0.037545979022979736,0.8140265941619873
1761391564895302100,4.34430224609375,-0.8258325457572937,-0.13915540277957916,0.8662662506103516
1761391564905368000,4.3543681640625,-0.8499506711959839,-0.22346042096614838,0.8644944429397583
1761391564915434200,4.364434326171875,-0.9301829934120178,-0.28194522857666016,0.7969752550125122
1761391564925500000,4.3745,-1.0691007375717163,-0.32039356231689453,0.6749519109725952
1761391564935565800,4.38456591796875,-1.2347993850708008,-0.3467109799385071,0.505704402923584
1761391564945632000,4.394632080078125,-1.4037964344024658,-0.3354188799858093,0.2954137325286865
1761391564955699000,4.404698974609375,-1.5658036470413208,-0.23732884228229523,0.09164771437644958
1761391564965765000,4.41476513671875,-1.7123390436172485,-0.0737561509013176,-0.09598423540592194
1761391564975831000,4.4248310546875,-1.8168056011199951,0.10493264347314835,-0.2844502031803131
1761391564985897000,4.43489697265625,-1.8775070905685425,0.250383585691452,-0.45730826258659363
1761391564995963100,4.444963134765625,-1.8639789819717407,0.38509759306907654,-0.5929372906684875
1761391565006030000,4.455030029296875,-1.7804316282272339,0.49523529410362244,-0.6792447566986084
1761391565016096000,4.465095947265625,-1.6523354053497314,0.5222529172897339,-0.7126937508583069
1761391565026162000,4.475161865234375,-1.5076053142547607,0.4870893359184265,-0.6984160542488098
1761391565036227800,4.485227783203125,-1.3713557720184326,0.42617252469062805,-0.6401256918907166
1761391565046294000,4.4952939453125,-1.2522059679031372,0.3705199062824249,-0.5459526181221008
1761391565056360000,4.50535986328125,-1.1398082971572876,0.3105539381504059,-0.42654839158058167
1761391565066427000,4.515427001953125,-1.0411925315856934,0.247169628739357,-0.30369916558265686
1761391565076493000,4.5254931640625,-0.9645133018493652,0.18075649440288544,-0.19127139449119568
1761391565086559000,4.53555908203125,-0.9061275124549866,0.11159659922122955,-0.1021718755364418
1761391565096625200,4.545625244140625,-0.8723368644714355,0.04093845933675766,-0.058924704790115356
1761391565106691000,4.555691162109375,-0.8460096716880798,-0.006733722984790802,-0.0626150444149971
1761391565116757000,4.565757080078125,-0.83485347032547,-0.0033967094495892525,-0.1284491866827011
1761391565126824000,4.575823974609375,-0.8198984861373901,0.025975026190280914,-0.2504208981990814
1761391565136889900,4.585889892578125,-0.8163343071937561,-0.018138820305466652,-0.3387913703918457
1761391565146956000,4.5959560546875,-0.7818428874015808,-0.060405049473047256,-0.4333125352859497
1761391565157022000,4.60602197265625,-0.7039576768875122,-0.12161625921726227,-0.5209928154945374
1761391565167088000,4.616088134765625,-0.5848332047462463,-0.19673150777816772,-0.5906406044960022
1761391565177155000,4.626155029296875,-0.4427545666694641,-0.18632175028324127,-0.6389396786689758
1761391565187221000,4.636220947265625,-0.27736666798591614,-0.10169048607349396,-0.6750310659408569
1761391565197287200,4.646287109375,-0.10826960951089859,-0.01808537356555462,-0.6903684735298157
1761391565207353000,4.65635302734375,-0.05271713435649872,0.10081278532743454,-0.648740291595459
1761391565217419000,4.6664189453125,-0.11920706182718277,0.21354056894779205,-0.5450533032417297
1761391565227485000,4.67648486328125,-0.21369947493076324,0.33793601393699646,-0.3552186191082001
1761391565237551900,4.6865517578125,-0.28311386704444885,0.5076454877853394,-0.12276849150657654
1761391565247618000,4.6966181640625,-0.2696252167224884,0.7219146490097046,0.09541977196931839
1761391565257684000,4.70668408203125,-0.17656797170639038,0.8799263834953308,0.23836243152618408
1761391565267750100,4.716750244140625,-0.022469740360975266,0.8895585536956787,0.302842915058136
1761391565277816000,4.726816162109375,0.1381770521402359,0.7940297722816467,0.3113075792789459
1761391565287882000,4.736882080078125,0.28285515308380127,0.5994786620140076,0.28519371151924133
1761391565297949200,4.74694921875,0.38395294547080994,0.3115442395210266,0.24655339121818542
1761391565308015000,4.75701513671875,0.4105139970779419,-0.08114499598741531,0.20067565143108368
1761391565318081000,4.7670810546875,0.33899420499801636,-0.5153768658638,0.14207670092582703
1761391565328147000,4.77714697265625,0.18546244502067566,-0.8659351468086243,0.07288885116577148
1761391565338212900,4.787212890625,-0.0020003635436296463,-1.0240620374679565,0.04053110256791115
1761391565348279000,4.797279052734375,-0.1699235886335373,-0.9611165523529053,0.09127736836671829
1761391565358346000,4.807345947265625,-0.2948003113269806,-0.7052011489868164,0.19475743174552917
1761391565368411600,4.81741162109375,-0.37933066487312317,-0.3447425663471222,0.30583152174949646
1761391565378477600,4.8274775390625,-0.39666905999183655,0.053586773574352264,0.37615156173706055
1761391565388543500,4.83754345703125,-0.3323934078216553,0.39460161328315735,0.400961309671402
1761391565398609700,4.847609619140625,-0.20172657072544098,0.6525478959083557,0.3422359228134155
1761391565408675600,4.857675537109375,-0.0173503365367651,0.7916122674942017,0.2323126196861267
1761391565418742800,4.86774267578125,0.20793616771697998,0.785641074180603,0.10331603139638901
1761391565428808700,4.87780859375,0.42005935311317444,0.6290416121482849,0.006299205590039492
1761391565438874600,4.88787451171875,0.6157118082046509,0.37362268567085266,-0.033872250467538834
1761391565448940800,4.89794091796875,0.7763177156448364,0.052306197583675385,-0.022983649745583534
1761391565459006500,4.90800634765625,0.9078977704048157,-0.2905190885066986,0.04755775257945061
1761391565469072600,4.91807275390625,0.9900901317596436,-0.5681964755058289,0.17365017533302307
1761391565479139600,4.9281396484375,0.9937936067581177,-0.7314864993095398,0.3419020473957062
1761391565489205500,4.93820556640625,0.9098393321037292,-0.7893804311752319,0.5144538879394531
1761391565499271700,4.948271728515625,0.7574030160903931,-0.7644475698471069,0.665884256362915
1761391565509337600,4.958337646484375,0.5618809461593628,-0.7201243042945862,0.7506066560745239
1761391565519403800,4.96840380859375,0.3673340082168579,-0.693133533000946,0.7546884417533875
1761391565529470700,4.978470703125,0.21079713106155396,-0.6593742370605469,0.6801518797874451
1761391565539536600,4.98853662109375,0.10278870165348053,-0.6347732543945312,0.5368436574935913
1761391565549602800,4.998602783203125,0.02683268114924431,-0.5951419472694397,0.346028208732605
1761391565559668500,5.00866845703125,-0.0033935359679162502,-0.5323473811149597,0.14695726335048676
1761391565569734700,5.018734619140625,0.003947467543184757,-0.4887985587120056,-0.012916820123791695
1761391565579800600,5.028800537109375,0.015924373641610146,-0.4459739923477173,-0.129693865776062
1761391565589867500,5.038867431640625,0.023580161854624748,-0.3831348419189453,-0.19378097355365753
1761391565599933700,5.04893359375,0.007739763241261244,-0.2825362980365753,-0.22687770426273346
1761391565609999600,5.05899951171875,-0.011754842475056648,-0.15203183889389038,-0.251661092042923
1761391565620065800,5.069065673828125,-0.04825449362397194,0.003640923649072647,-0.2780604362487793
1761391565630131700,5.079131591796875,-0.10693725198507309,0.1319056749343872,-0.32461968064308167
1761391565640197600,5.08919775390625,-0.1693294793367386,0.2052120566368103,-0.386018306016922
1761391565650264800,5.099264892578125,-0.21639420092105865,0.21219512820243835,-0.4449857473373413
1761391565660330500,5.10933056640625,-0.22007989883422852,0.16278865933418274,-0.49061504006385803
1761391565670396700,5.119396728515625,-0.192268505692482,0.06668157130479813,-0.5061393976211548
1761391565680462600,5.129462646484375,-0.14815044403076172,-0.031135380268096924,-0.48284927010536194
1761391565690528500,5.139528564453125,-0.09358492493629456,-0.09772931784391403,-0.4157687723636627
1761391565700594700,5.1495947265625,-0.060333527624607086,-0.13763710856437683,-0.3351239860057831
1761391565710660600,5.15966064453125,-0.053280945867300034,-0.14350272715091705,-0.23633266985416412
1761391565720727800,5.169727783203125,-0.070579394698143,-0.07782082259654999,-0.13314111530780792
1761391565730793700,5.179793701171875,-0.10687029361724854,0.038397129625082016,-0.03996669873595238
1761391565740859600,5.189859619140625,-0.14950957894325256,0.12853273749351501,0.021147556602954865
1761391565750925600,5.199925537109375,-0.18598821759223938,0.16536478698253632,0.04204990714788437
1761391565760991500,5.209991455078125,-0.20964492857456207,0.16740252077579498,0.03362517058849335
1761391565771057700,5.2200576171875,-0.20579400658607483,0.14656515419483185,-0.0011676964350044727
1761391565781124600,5.23012451171875,-0.18814758956432343,0.07448852062225342,-0.03900199383497238
1761391565791190500,5.2401904296875,-0.15104389190673828,0.007060477510094643,-0.05921698361635208
1761391565801256700,5.250256591796875,-0.10216882079839706,-0.04299921542406082,-0.06448496133089066
1761391565811322600,5.260322509765625,-0.05931243300437927,-0.09351111948490143,-0.04039294272661209
1761391565821388800,5.270388916015625,-0.029673343524336815,-0.11256103217601776,0.027018612250685692
1761391565831454700,5.280454833984375,-0.006276940461248159,-0.07805924862623215,0.13765829801559448
1761391565841521700,5.290521728515625,0.03008182905614376,-0.022090589627623558,0.2667137086391449
1761391565851587600,5.300587646484375,0.07148919254541397,0.021858491003513336,0.38833415508270264
1761391565861653500,5.310653564453125,0.0868813619017601,-0.019529499113559723,0.45978662371635437
1761391565871719700,5.3207197265625,0.07117803394794464,-0.2413977086544037,0.4520421624183655
1761391565881785600,5.33078564453125,0.05601052939891815,-0.5896481275558472,0.3541584610939026
1761391565891851800,5.340851806640625,0.023762047290802002,-0.8955010175704956,0.2077980637550354
1761391565901918700,5.350918701171875,-0.040415339171886444,-1.021559476852417,0.06460709124803543
1761391565911984600,5.360984619140625,-0.12974494695663452,-0.939345121383667,-0.0253496952354908
1761391565922050800,5.37105078125,-0.23593035340309143,-0.6690384745597839,-0.02715388499200344
1761391565932116700,5.38111669921875,-0.3315088152885437,-0.24400277435779572,0.05130496993660927
1761391565942182700,5.3911826171875,-0.39273130893707275,0.24488748610019684,0.16373306512832642
1761391565952249600,5.40124951171875,-0.413748174905777,0.6883943676948547,0.27444279193878174
1761391565962315500,5.4113154296875,-0.39484304189682007,1.0018569231033325,0.3500051498413086
1761391565972381700,5.421381591796875,-0.3457609713077545,1.1498082876205444,0.38689500093460083
1761391565982447600,5.431447509765625,-0.27897417545318604,1.1624772548675537,0.3940199017524719
1761391565992513500,5.441513427734375,-0.2078147679567337,1.0641711950302124,0.3813056945800781
1761391566002579700,5.451579833984375,-0.14057226479053497,0.8721357583999634,0.3710991144180298
1761391566012646700,5.461646728515625,-0.07067841291427612,0.5937944054603577,0.3698061406612396
1761391566022712800,5.471712890625,0.01802465319633484,0.24748392403125763,0.3844383955001831
1761391566032778800,5.48177880859375,0.12692371010780334,-0.10781238228082657,0.4125155508518219
1761391566042844400,5.491844482421875,0.23360973596572876,-0.4140470027923584,0.4355536103248596
1761391566052910600,5.50191064453125,0.29512903094291687,-0.6515578627586365,0.43587663769721985
1761391566062976500,5.5119765625,0.2986651360988617,-0.8215249180793762,0.40583011507987976
1761391566073043700,5.522043701171875,0.2529282867908478,-0.9179364442825317,0.3433457016944885
1761391566083109600,5.532109619140625,0.1695040911436081,-0.9341841340065002,0.2535308301448822
1761391566093175600,5.542175537109375,0.06423093378543854,-0.8887535333633423,0.14776737987995148
1761391566103242800,5.55224267578125,-0.04463666304945946,-0.7900053262710571,0.0505085363984108
1761391566113308700,5.56230859375,-0.1403123140335083,-0.6425546407699585,-0.015231061726808548
1761391566123374600,5.57237451171875,-0.2199721336364746,-0.4607663154602051,-0.06302078068256378
1761391566133440800,5.582440673828125,-0.2958242893218994,-0.24516424536705017,-0.0764649510383606
1761391566143506400,5.59250634765625,-0.34966418147087097,0.0012363046407699585,-0.0845031812787056
1761391566153573600,5.60257373046875,-0.38470259308815,0.21979260444641113,-0.11915649473667145
1761391566163639600,5.6126396484375,-0.3650551438331604,0.3392500877380371,-0.17638418078422546
1761391566173705500,5.62270556640625,-0.29531094431877136,0.39258599281311035,-0.25178733468055725
1761391566183771600,5.632771728515625,-0.19420276582241058,0.401455283164978,-0.3098428547382355
1761391566193837600,5.642837646484375,-0.09458190202713013,0.3606279492378235,-0.3414841294288635
1761391566203903700,5.65290380859375,0.00596899027004838,0.28967344760894775,-0.34605371952056885
1761391566213970700,5.662970703125,0.08881540596485138,0.20434977114200592,-0.3195512592792511
1761391566224036600,5.67303662109375,0.1353212296962738,0.10776952654123306,-0.279666006565094
1761391566234102800,5.683102783203125,0.15193402767181396,-0.005428934469819069,-0.253039687871933
1761391566244168700,5.693168701171875,0.1302884966135025,-0.09293659031391144,-0.2531481683254242
1761391566254234600,5.703234619140625,0.09329558908939362,-0.15030108392238617,-0.2589367926120758
1761391566264300500,5.713300537109375,0.05376937985420227,-0.1634872853755951,-0.26502445340156555
1761391566274367500,5.723367431640625,0.009801922366023064,-0.10332167893648148,-0.23510383069515228
1761391566284433700,5.73343359375,-0.02936120145022869,-0.0057128435000777245,-0.19333091378211975
1761391566294499600,5.74349951171875,-0.06623212993144989,0.08823894709348679,-0.14472289383411407
1761391566304565800,5.753565673828125,-0.0914747565984726,0.1464526355266571,-0.09780751168727875
1761391566314631700,5.763631591796875,-0.09749722480773926,0.16157406568527222,-0.0479922890663147
1761391566324697900,5.77369775390625,-0.08403720706701279,0.1500706672668457,0.0017565363086760044
1761391566334764800,5.783764892578125,-0.049189209938049316,0.10084614157676697,0.06990283727645874
1761391566344830700,5.793830810546875,-0.011994941160082817,0.034416452050209045,0.13826139271259308
1761391566354896600,5.803896728515625,-0.0022829249501228333,-0.016544202342629433,0.20625801384449005
1761391566364962600,5.813962646484375,-0.025874335318803787,-0.054862961173057556,0.26996052265167236
1761391566375028700,5.82402880859375,-0.07365889847278595,-0.08353108912706375,0.31151461601257324
1761391566385095700,5.834095703125,-0.1236891970038414,-0.07476159930229187,0.3500462770462036
1761391566395161600,5.84416162109375,-0.14831039309501648,-0.018519628793001175,0.38764771819114685
1761391566405227800,5.854227783203125,-0.13346195220947266,0.09038214385509491,0.4333888590335846
1761391566415293700,5.864293701171875,-0.08471918106079102,0.24340099096298218,0.5001300573348999
1761391566425359400,5.874359375,-0.013525211252272129,0.42185160517692566,0.5818700194358826
1761391566435425500,5.884425537109375,0.07005304098129272,0.5491693019866943,0.676725447177887
1761391566445492500,5.894492431640625,0.1381346881389618,0.5637243390083313,0.7573716640472412
1761391566455558700,5.90455859375,0.19962947070598602,0.42483752965927124,0.7775056958198547
1761391566465624600,5.91462451171875,0.23467932641506195,0.1226385235786438,0.7299767136573792
1761391566475690500,5.9246904296875,0.2589593529701233,-0.30048105120658875,0.6024163365364075
1761391566485756700,5.934756591796875,0.25396624207496643,-0.7436683177947998,0.3931826651096344
1761391566495822600,5.944822509765625,0.20086945593357086,-1.1127698421478271,0.14669591188430786
1761391566505889500,5.9548896484375,0.10895202308893204,-1.2628962993621826,-0.06246207281947136
1761391566515955700,5.964955810546875,-0.009220422245562077,-1.1352558135986328,-0.18418344855308533
1761391566526021400,5.975021484375,-0.15049539506435394,-0.752720296382904,-0.19805382192134857
1761391566536087600,5.985087646484375,-0.3095388412475586,-0.20041529834270477,-0.13180768489837646
1761391566546153500,5.995153564453125,-0.42741936445236206,0.38743335008621216,-0.024905307218432426
1761391566556219600,6.0052197265625,-0.4893067181110382,0.9202578663825989,0.06712581217288971
1761391566566286600,6.01528662109375,-0.5008522272109985,1.2989975214004517,0.09251952171325684
1761391566576352500,6.0253525390625,-0.44595861434936523,1.463356614112854,0.059544261544942856
1761391566586418700,6.035418701171875,-0.3222332298755646,1.5159246921539307,0.006223009433597326
1761391566596484600,6.045484619140625,-0.1631426364183426,1.5019644498825073,-0.038421954959630966
1761391566606550800,6.05555078125,0.007883315905928612,1.4100263118743896,-0.06275716423988342
1761391566616617700,6.06561767578125,0.1815621703863144,1.2737948894500732,-0.07118234038352966
1761391566626683600,6.07568359375,0.3606732189655304,1.0936534404754639,-0.06351146101951599
1761391566636749600,6.08574951171875,0.5426869988441467,0.8355287313461304,-0.05046330392360687
1761391566646815500,6.0958154296875,0.7110121846199036,0.5334755182266235,-0.045506641268730164
1761391566656881700,6.105881591796875,0.8482049703598022,0.21375638246536255,-0.05052084103226662
1761391566666947600,6.115947509765625,0.949732780456543,-0.12053629010915756,-0.06216711550951004
1761391566677014500,6.1260146484375,1.0062382221221924,-0.441051185131073,-0.08654196560382843
1761391566687080700,6.136080810546875,1.027242660522461,-0.7211499214172363,-0.11950573325157166
1761391566697146600,6.146146728515625,1.0000072717666626,-0.9301361441612244,-0.1813235580921173
1761391566707212800,6.156212890625,0.9320926070213318,-1.0906803607940674,-0.2400680035352707
1761391566717278500,6.166278564453125,0.8322455883026123,-1.1495903730392456,-0.2921088635921478
1761391566727344600,6.1763447265625,0.6975301504135132,-1.0855908393859863,-0.33808887004852295
1761391566737411600,6.18641162109375,0.5398587584495544,-0.8952155709266663,-0.3751288950443268
1761391566747477500,6.1964775390625,0.37483981251716614,-0.600479781627655,-0.4017026722431183
1761391566757543700,6.206543701171875,0.24285860359668732,-0.2026655673980713,-0.4125702381134033
1761391566767609600,6.216609619140625,0.16164642572402954,0.22213801741600037,-0.4094141125679016
1761391566777675500,6.226675537109375,0.16168159246444702,0.5903216600418091,-0.42141643166542053
1761391566787741700,6.23674169921875,0.22966517508029938,0.8513495922088623,-0.4380618631839752
1761391566797808600,6.24680859375,0.32475122809410095,0.9843094944953918,-0.4488127529621124
1761391566807874600,6.25687451171875,0.4041332006454468,0.9756126999855042,-0.4568505585193634
1761391566817940700,6.266940673828125,0.476071834564209,0.8431390523910522,-0.44964537024497986
1761391566828006400,6.27700634765625,0.5408338904380798,0.6519044637680054,-0.43047547340393066
1761391566838072600,6.287072509765625,0.5916445851325989,0.4472493827342987,-0.3993242084980011
1761391566848138500,6.297138427734375,0.6281278729438782,0.24197211861610413,-0.3717649281024933
1761391566858205400,6.307205322265625,0.6580828428268433,0.06197759509086609,-0.34396791458129883
1761391566868271600,6.317271728515625,0.6680489182472229,-0.05642125755548477,-0.3008706569671631
1761391566878337500,6.327337646484375,0.6639590859413147,-0.12286686152219772,-0.23990479111671448
1761391566888403700,6.33740380859375,0.6449536085128784,-0.11758315563201904,-0.1398603320121765
1761391566898469600,6.3474697265625,0.6019347310066223,-0.10312271863222122,-0.022769395262002945
1761391566908536600,6.35753662109375,0.5553475618362427,-0.1466185748577118,0.07143255323171616
1761391566918602800,6.367602783203125,0.5102789402008057,-0.21996335685253143,0.14564739167690277
1761391566928668400,6.37766845703125,0.47918927669525146,-0.2940364181995392,0.19394604861736298
1761391566938734600,6.387734619140625,0.46803730726242065,-0.3401288092136383,0.23511771857738495
1761391566948800500,6.397800537109375,0.4708603322505951,-0.3241478502750397,0.24440374970436096
1761391566958866700,6.40786669921875,0.4891653060913086,-0.25040116906166077,0.22765140235424042
1761391566968933600,6.41793359375,0.5359728336334229,-0.16410624980926514,0.21793830394744873
1761391566978999600,6.42799951171875,0.5947096347808838,-0.04346052557229996,0.24701735377311707
1761391566989065700,6.438065673828125,0.6602904796600342,0.07102055102586746,0.330301433801651
1761391566999131600,6.448131591796875,0.7248113751411438,0.12408003956079483,0.44466447830200195
1761391567009197800,6.45819775390625,0.8019253015518188,0.13866764307022095,0.5819506645202637
1761391567019263500,6.468263427734375,0.8828108310699463,0.12111048400402069,0.7147217988967896
1761391567029330400,6.478330322265625,0.9659768342971802,0.07005030661821365,0.8078948855400085
1761391567039396600,6.488396728515625,1.041846752166748,0.04421071708202362,0.8697332143783569
1761391567049462500,6.498462646484375,1.133396029472351,-0.03821432590484619,0.8969662189483643
1761391567059528700,6.50852880859375,1.214699387550354,-0.19449792802333832,0.8776109218597412
1761391567069594600,6.5185947265625,1.263927936553955,-0.44176679849624634,0.7853902578353882
1761391567079660500,6.52866064453125,1.2935526371002197,-0.8119853138923645,0.6014009714126587
1761391567089727700,6.538727783203125,1.2781685590744019,-1.189469337463379,0.3456292450428009
1761391567099793700,6.548793701171875,1.1995182037353516,-1.3997445106506348,0.06569242477416992
1761391567109859600,6.558859619140625,1.045150637626648,-1.3069859743118286,-0.15172803401947021
1761391567119925500,6.568925537109375,0.8248456716537476,-0.9286602735519409,-0.26073014736175537
1761391567129991400,6.578991455078125,0.5999875664710999,-0.3805508613586426,-0.24154268205165863
1761391567140057600,6.5890576171875,0.4455587863922119,0.24085302650928497,-0.1391473412513733
1761391567150124500,6.59912451171875,0.42448821663856506,0.7784550189971924,-0.010266287252306938
1761391567160190500,6.6091904296875,0.535189151763916,1.1321611404418945,0.09878190606832504
1761391567170256600,6.619256591796875,0.7282766103744507,1.3001666069030762,0.18446913361549377
1761391567180322600,6.629322509765625,0.9512351155281067,1.2807601690292358,0.256704717874527
1761391567190388700,6.639388671875,1.1760722398757935,1.1161606311798096,0.3621951937675476
1761391567200454700,6.64945458984375,1.405118703842163,0.9121252298355103,0.5316076278686523
1761391567210521600,6.659521484375,1.6323612928390503,0.7153720855712891,0.759262204170227
1761391567220587500,6.66958740234375,1.8663312196731567,0.5176992416381836,1.0179795026779175
1761391567230653400,6.6796533203125,2.0946359634399414,0.28740987181663513,1.2785203456878662
1761391567240719600,6.6897197265625,2.3200936317443848,0.05520405247807503,1.4992839097976685
1761391567250785500,6.69978564453125,2.5240371227264404,-0.1374489665031433,1.64323890209198
1761391567260852500,6.7098525390625,2.685453176498413,-0.35016152262687683,1.6948405504226685
1761391567270918700,6.719918701171875,2.773834705352783,-0.5835907459259033,1.644363284111023
1761391567280984600,6.729984619140625,2.778592586517334,-0.8299373984336853,1.475355863571167
1761391567291050800,6.74005078125,2.6872987747192383,-0.9967413544654846,1.2180944681167603
1761391567301116700,6.75011669921875,2.521824836730957,-1.0621552467346191,0.9014270901679993
1761391567311182600,6.7601826171875,2.2974486351013184,-1.0213667154312134,0.5647311806678772
1761391567321249500,6.77024951171875,2.0293128490448,-0.8443084359169006,0.2933066189289093
1761391567331315500,6.7803154296875,1.765056848526001,-0.5978014469146729,0.14910969138145447
1761391567341381600,6.790381591796875,1.5422111749649048,-0.24775739014148712,0.11267125606536865
1761391567351447600,6.800447509765625,1.4005615711212158,0.13175824284553528,0.12793684005737305
1761391567361513700,6.810513671875,1.3377562761306763,0.4986076056957245,0.15208877623081207
1761391567371580000,6.820579833984375,1.3673083782196045,0.8256334066390991,0.16391286253929138
1761391567381646800,6.830646728515625,1.483307123184204,1.04689621925354,0.18165111541748047
1761391567391713000,6.840713134765625,1.658758521080017,1.1261409521102905,0.21172356605529785
1761391567401779000,6.850779052734375,1.8579305410385132,1.0927225351333618,0.26083943247795105
1761391567411844900,6.860844970703125,2.0466256141662598,0.9946154356002808,0.335195392370224
1761391567421911000,6.8709111328125,2.173529624938965,0.8594765663146973,0.4316391050815582
1761391567431976700,6.880976806640625,2.235180377960205,0.6968583464622498,0.533078670501709
1761391567442044000,6.8910439453125,2.2384555339813232,0.562127947807312,0.6200207471847534
1761391567452109800,6.90110986328125,2.1896750926971436,0.46999022364616394,0.6647940278053284
1761391567462175700,6.91117578125,2.095468044281006,0.41040146350860596,0.6473705768585205
1761391567472242000,6.921241943359375,1.9749329090118408,0.43213969469070435,0.5917906165122986
1761391567482307800,6.931307861328125,1.8457485437393188,0.5221937298774719,0.5066903829574585
1761391567492374000,6.9413740234375,1.741898775100708,0.6491773724555969,0.4010198712348938
1761391567502441000,6.95144091796875,1.6864583492279053,0.8176137804985046,0.30503901839256287
1761391567512507000,6.9615068359375,1.6852747201919556,0.9931889772415161,0.21346744894981384
1761391567522573000,6.971572998046875,1.7229390144348145,1.1014970541000366,0.11995560675859451
1761391567532638700,6.981638671875,1.7966046333312988,1.1505073308944702,0.043015990406274796
1761391567542705000,6.991704833984375,1.901587724685669,1.1489890813827515,-0.01995125599205494
1761391567552770800,7.001770751953125,2.0242438316345215,1.058537483215332,-0.07960032671689987
1761391567562837800,7.011837646484375,2.1429874897003174,0.9694629311561584,-0.11484593152999878
1761391567572904000,7.021904052734375,2.2358434200286865,0.9723868370056152,-0.11416815966367722
1761391567582969900,7.031969970703125,2.303398847579956,1.0618352890014648,-0.08547978848218918
1761391567593036000,7.0420361328125,2.3710246086120605,1.1836901903152466,-0.060880567878484726
1761391567603102000,7.05210205078125,2.424652099609375,1.274809718132019,-0.06567239761352539
1761391567613168000,7.062168212890625,2.4193670749664307,1.2544013261795044,-0.11989641189575195
1761391567623235000,7.072235107421875,2.3677573204040527,1.0633951425552368,-0.251764178276062
1761391567633300700,7.08230078125,2.290233612060547,0.7550458312034607,-0.43213576078414917
1761391567643367000,7.092366943359375,2.2048840522766113,0.5191241502761841,-0.6109952926635742
1761391567653432800,7.102432861328125,2.158521890640259,0.4192235469818115,-0.7122635841369629
1761391567663498800,7.112498779296875,2.1572458744049072,0.44370386004447937,-0.7115306854248047
1761391567673566000,7.12256591796875,2.2091474533081055,0.5994225144386292,-0.6015770435333252
1761391567683631900,7.1326318359375,2.297659397125244,0.8850968480110168,-0.4294566512107849
1761391567693698000,7.142697998046875,2.3991994857788086,1.1430870294570923,-0.2501906752586365
1761391567703764000,7.152763916015625,2.482616901397705,1.2793792486190796,-0.12233603000640869
1761391567713830000,7.162829833984375,2.5343892574310303,1.3206138610839844,-0.05670856684446335
1761391567723895800,7.172895751953125,2.5665194988250732,1.2608797550201416,-0.043448954820632935
1761391567733962800,7.182962646484375,2.5664196014404297,1.1349146366119385,-0.05678853020071983
1761391567744029000,7.19302880859375,2.5422439575195312,1.0108903646469116,-0.054989833384752274
1761391567754094800,7.2030947265625,2.5056216716766357,0.9569467306137085,-0.02860092557966709
1761391567764160800,7.213160888671875,2.4565467834472656,0.943297803401947,-0.003675069659948349
1761391567774227000,7.22322705078125,2.4360289573669434,0.9565846920013428,0.002998948562890291
1761391567784292900,7.23329296875,2.4472837448120117,0.9878131747245789,-0.016710840165615082
1761391567794359800,7.24335986328125,2.481569290161133,1.0054000616073608,-0.06279472261667252
1761391567804426000,7.253426025390625,2.511434316635132,0.9799066781997681,-0.13292454183101654
1761391567814492000,7.263491943359375,2.5203096866607666,0.8893284201622009,-0.21933095157146454
1761391567824557800,7.273557861328125,2.5083248615264893,0.7221759557723999,-0.3143424093723297
1761391567834623700,7.283623779296875,2.4394173622131348,0.5313668251037598,-0.41193488240242004
1761391567844690000,7.29368994140625,2.3653111457824707,0.2995293438434601,-0.4743114411830902
1761391567854756900,7.3037568359375,2.3102669715881348,0.05980679765343666,-0.45834511518478394
1761391567864822800,7.31382275390625,2.269040107727051,-0.03479161113500595,-0.36500078439712524
1761391567874889000,7.323888916015625,2.2200963497161865,-0.033087119460105896,-0.23276780545711517
1761391567884955000,7.333954833984375,2.17140793800354,0.01430303230881691,-0.11844176054000854
1761391567895021000,7.34402099609375,2.145449161529541,0.08853353559970856,-0.04285809025168419
1761391567905087000,7.3540869140625,2.1264524459838867,0.18024508655071259,-0.011259950697422028
1761391567915154000,7.36415380859375,2.1153507232666016,0.21242597699165344,-0.02631961926817894
1761391567925219800,7.3742197265625,2.1145641803741455,0.16834959387779236,-0.05699949711561203
1761391567935285800,7.38428564453125,2.141986608505249,0.09973318129777908,-0.07757779955863953
1761391567945352000,7.39435205078125,2.1873109340667725,0.041045624762773514,-0.0721241757273674
1761391567955417900,7.40441796875,2.2320024967193604,0.01265815831720829,-0.03276202082633972
1761391567965483800,7.41448388671875,2.2599921226501465,0.014495206996798515,0.01966283656656742
1761391567975551000,7.424551025390625,2.260056495666504,0.014616362750530243,0.05468592792749405
1761391567985617000,7.434616943359375,2.240736722946167,-0.004230296239256859,0.06872957199811935
1761391567995683000,7.44468310546875,2.2036662101745605,-0.022544000297784805,0.06268929690122604
1761391568005749000,7.4547490234375,2.155586004257202,-0.045345988124608994,0.04166097566485405
1761391568015814700,7.464814697265625,2.1068615913391113,-0.06297585368156433,0.04128221049904823
1761391568025882000,7.474882080078125,2.0728862285614014,-0.07912552356719971,0.04241378977894783
1761391568035947800,7.48494775390625,2.043753147125244,-0.11527074873447418,0.038006916642189026
1761391568046014000,7.495013916015625,2.01035737991333,-0.1647179126739502,0.024647966027259827
1761391568056080000,7.505079833984375,1.992201805114746,-0.24417224526405334,-0.0032936371862888336
1761391568066145800,7.515145751953125,1.9947792291641235,-0.3353458344936371,-0.050002552568912506
1761391568076212000,7.5252119140625,1.9726885557174683,-0.3952670693397522,-0.1165652871131897
1761391568086279000,7.53527880859375,1.92378568649292,-0.451727956533432,-0.19205151498317719
1761391568096344800,7.5453447265625,1.8499431610107422,-0.4853680729866028,-0.2211586982011795
1761391568106411000,7.555410888671875,1.7677081823349,-0.44957226514816284,-0.21836024522781372
1761391568116476700,7.5654765625,1.6776179075241089,-0.3788447082042694,-0.1923374980688095
1761391568126542800,7.57554296875,1.5814173221588135,-0.30583813786506653,-0.1746748834848404
1761391568136608800,7.58560888671875,1.4803571701049805,-0.23049090802669525,-0.15916574001312256
1761391568146675700,7.59567578125,1.4270087480545044,-0.18084052205085754,-0.12360535562038422
1761391568156742000,7.605741943359375,1.4185854196548462,-0.1611364185810089,-0.09000024199485779
1761391568166807800,7.615807861328125,1.3890163898468018,-0.1962406039237976,-0.08552400767803192
1761391568176874000,7.6258740234375,1.3304427862167358,-0.29363828897476196,-0.1399931013584137
1761391568186940000,7.63593994140625,1.2425563335418701,-0.4057597517967224,-0.22421769797801971
1761391568197006000,7.646006103515625,1.1663038730621338,-0.42179250717163086,-0.3220396935939789
1761391568207073000,7.656072998046875,1.112565040588379,-0.2998034954071045,-0.38247641921043396
1761391568217139000,7.666138916015625,1.0943732261657715,-0.11488386988639832,-0.4160361886024475
1761391568227204900,7.676204833984375,1.1018383502960205,0.08340258151292801,-0.42340970039367676
1761391568237270800,7.686270751953125,1.1393208503723145,0.2729554772377014,-0.40823280811309814
1761391568247337000,7.6963369140625,1.1970922946929932,0.42163869738578796,-0.38892862200737
1761391568257403000,7.70640283203125,1.273450255393982,0.5025724172592163,-0.37376171350479126
1761391568267469800,7.7164697265625,1.341809868812561,0.545341432094574,-0.3471258282661438
1761391568277536000,7.726535888671875,1.3672904968261719,0.5544272065162659,-0.2934795618057251
1761391568287602000,7.736601806640625,1.3636842966079712,0.5286480784416199,-0.22388315200805664
1761391568297668000,7.746668212890625,1.348386526107788,0.46722257137298584,-0.14656254649162292
1761391568307733800,7.756733642578125,1.3443447351455688,0.4104551374912262,-0.05619563162326813
1761391568317799700,7.766799560546875,1.3521488904953003,0.35693225264549255,0.029264388605952263
1761391568327867000,7.776866943359375,1.3561357259750366,0.28536751866340637,0.07799650728702545
1761391568337932800,7.786932861328125,1.3316620588302612,0.16265684366226196,0.07221730053424835
1761391568347999000,7.7969990234375,1.2784122228622437,-0.021139610558748245,0.018309857696294785
1761391568358065000,7.80706494140625,1.2128608226776123,-0.2123597413301468,-0.06411099433898926
1761391568368130300,7.81713037109375,1.1276500225067139,-0.37323224544525146,-0.17373310029506683
1761391568378196200,7.8271962890625,1.0522944927215576,-0.5011440515518188,-0.2876249849796295
1761391568388263200,7.83726318359375,0.9787883162498474,-0.5744185447692871,-0.3785751163959503
1761391568398329300,7.847329345703125,0.9025828838348389,-0.575343906879425,-0.4487776756286621
1761391568408395300,7.857395263671875,0.8297592401504517,-0.5171170830726624,-0.48259928822517395
1761391568418461400,7.86746142578125,0.7817797064781189,-0.43381646275520325,-0.48900192975997925
1761391568428527000,7.877527099609375,0.7549400925636292,-0.3215607702732086,-0.47403788566589355
1761391568438593000,7.887593017578125,0.7450624704360962,-0.16091066598892212,-0.44121453166007996
1761391568448660200,7.89766015625,0.7487112283706665,-0.007420447189360857,-0.4196658432483673
1761391568458726100,7.90772607421875,0.7525568008422852,0.14162257313728333,-0.4116748869419098
1761391568468792300,7.917792236328125,0.7340611219406128,0.29862362146377563,-0.45146384835243225
1761391568478858200,7.927858154296875,0.6871770024299622,0.4028323292732239,-0.5357834696769714
1761391568488924200,7.937924072265625,0.6232526302337646,0.42011943459510803,-0.6640365123748779
1761391568498991400,7.947991455078125,0.553432822227478,0.34862005710601807,-0.7894872426986694
1761391568509057300,7.958057373046875,0.48054903745651245,0.22991150617599487,-0.8583651185035706
1761391568519123200,7.968123291015625,0.4137774407863617,0.1155821830034256,-0.8392844796180725
1761391568529189000,7.978189208984375,0.3689252734184265,0.03596218302845955,-0.76378333568573
1761391568539255000,7.988255126953125,0.3483845591545105,-0.04565328359603882,-0.6713672280311584
1761391568549321200,7.9983212890625,0.3525865077972412,-0.14894823729991913,-0.5874416828155518
1761391568559388200,8.00838818359375,0.3593202829360962,-0.2624731659889221,-0.5165131092071533
1761391568569454000,8.0184541015625,0.3588710129261017,-0.3834555447101593,-0.4702520966529846
1761391568579520300,8.028520263671876,0.359638512134552,-0.5122731924057007,-0.4445900619029999
1761391568589586200,8.038586181640625,0.368755042552948,-0.5886039137840271,-0.43281248211860657
1761391568599652400,8.04865234375,0.3890812397003174,-0.6426370143890381,-0.4387872815132141
1761391568609718300,8.05871826171875,0.40647193789482117,-0.7032058238983154,-0.4477032721042633
1761391568619785200,8.06878515625,0.40818148851394653,-0.7823609709739685,-0.4497396945953369
1761391568629851400,8.078851318359375,0.3925902843475342,-0.8461122512817383,-0.4360768795013428
1761391568639917000,8.0889169921875,0.3635731041431427,-0.865351140499115,-0.3928753137588501
1761391568649983200,8.098983154296874,0.3363811671733856,-0.818277895450592,-0.3157525658607483
1761391568660049200,8.109049072265625,0.32845640182495117,-0.7207643389701843,-0.2146686613559723
1761391568670115300,8.119115234375,0.33207035064697266,-0.5787755250930786,-0.07153625786304474
1761391568680182300,8.129182373046875,0.34254923462867737,-0.4135082960128784,0.05962153896689415
1761391568690248200,8.139248291015624,0.3613772690296173,-0.2903677225112915,0.15995293855667114
1761391568700314400,8.149314453125,0.3835740387439728,-0.24342942237854004,0.21941059827804565
1761391568710380300,8.15938037109375,0.40511074662208557,-0.24837970733642578,0.23162518441677094
1761391568720446200,8.1694462890625,0.41227516531944275,-0.2823004424571991,0.22501985728740692
1761391568730512100,8.17951220703125,0.3927672505378723,-0.30422544479370117,0.22759033739566803
1761391568740579000,8.1895791015625,0.3499014973640442,-0.25820767879486084,0.27782174944877625
1761391568750645200,8.199645263671876,0.30834391713142395,-0.13184255361557007,0.40315356850624084
1761391568760711200,8.209711181640625,0.29351770877838135,0.013403930701315403,0.579330325126648
1761391568770777300,8.21977734375,0.3187849819660187,0.2021554708480835,0.7730451822280884
1761391568780843300,8.22984326171875,0.40512505173683167,0.3408783972263336,0.9624690413475037
1761391568790909200,8.2399091796875,0.5377534031867981,0.4212195575237274,1.1137759685516357
1761391568800976400,8.249976318359375,0.6904981136322021,0.3538801968097687,1.2081365585327148
1761391568811042300,8.260042236328125,0.8056238889694214,0.050241243094205856,1.2507293224334717
1761391568821108200,8.270108154296874,0.8479281067848206,-0.4593268036842346,1.306664228439331
1761391568831174100,8.280174072265625,0.8110225200653076,-0.976862370967865,1.426892876625061
1761391568841240000,8.290239990234374,0.7168036699295044,-1.3455607891082764,1.5887171030044556
1761391568851307300,8.300307373046875,0.6045756340026855,-1.4930826425552368,1.7423758506774902
1761391568861373200,8.310373291015624,0.4627000093460083,-1.405200481414795,1.8525278568267822
1761391568871439000,8.320439208984375,0.3123991787433624,-1.077569603919983,1.8950412273406982
1761391568881505300,8.33050537109375,0.18837518990039825,-0.5965031385421753,1.8358831405639648
1761391568891571200,8.3405712890625,0.10228849947452545,-0.059586990624666214,1.638864517211914
1761391568901637400,8.350637451171876,0.06845225393772125,0.4157734215259552,1.3203237056732178
1761391568911704300,8.360704345703125,0.0830751359462738,0.8024417757987976,0.9170721173286438
1761391568921770200,8.370770263671876,0.11880170553922653,1.1313443183898926,0.5137557983398438
1761391568931836200,8.380836181640625,0.16809096932411194,1.303387999534607,0.1610233187675476
1761391568941902000,8.390902099609375,0.23681172728538513,1.2893166542053223,-0.11209718883037567
1761391568951968300,8.40096826171875,0.3242632746696472,1.1256529092788696,-0.2799229621887207
1761391568962034200,8.4110341796875,0.43054822087287903,0.9000953435897827,-0.32501381635665894
1761391568972100400,8.421100341796874,0.5551977157592773,0.6846773028373718,-0.2618662714958191
1761391568982167300,8.431167236328125,0.688379168510437,0.5635687708854675,-0.11412923783063889
1761391568992233200,8.441233154296874,0.8362945914268494,0.5553779602050781,0.0784071832895279
1761391569002299400,8.45129931640625,0.9579654932022095,0.6027594804763794,0.2593165934085846
1761391569012365300,8.461365234375,1.0141204595565796,0.5983721613883972,0.3772706687450409
1761391569022431200,8.47143115234375,1.0119805335998535,0.48611241579055786,0.4405987858772278
1761391569032498200,8.481498291015624,0.9681467413902283,0.29519253969192505,0.483582466840744
1761391569042564000,8.491564208984375,0.8765326142311096,0.08023656159639359,0.5081554651260376
1761391569052630300,8.50163037109375,0.7396312355995178,-0.07764202356338501,0.5299617052078247
1761391569062696200,8.5116962890625,0.5908738374710083,-0.16132768988609314,0.5325745940208435
1761391569072762400,8.521762451171876,0.467114120721817,-0.16027069091796875,0.5091938972473145
1761391569082828300,8.531828369140625,0.3722970485687256,-0.0625799223780632,0.457287073135376
1761391569092895200,8.541895263671876,0.30122339725494385,0.1196732446551323,0.3994157612323761
1761391569102961400,8.55196142578125,0.24551740288734436,0.34607988595962524,0.33283567428588867
1761391569113027300,8.56202734375,0.23091237246990204,0.5874062776565552,0.2513432204723358
1761391569123093200,8.57209326171875,0.23148566484451294,0.7545022368431091,0.1621776968240738
1761391569133159200,8.5821591796875,0.22399738430976868,0.8323496580123901,0.05990218743681908
1761391569143225000,8.59222509765625,0.22291377186775208,0.8857724666595459,-0.03881809860467911
1761391569153292300,8.602292236328125,0.2377302646636963,0.8799220323562622,-0.126459002494812
1761391569163358200,8.612358154296874,0.2450849562883377,0.7988245487213135,-0.23243176937103271
1761391569173424000,8.622424072265625,0.228098526597023,0.6455495357513428,-0.3416652977466583
1761391569183490300,8.632490234375,0.1922954022884369,0.48633524775505066,-0.4137326776981354
1761391569193556200,8.64255615234375,0.1498347520828247,0.3979334831237793,-0.42806875705718994
1761391569203622400,8.652622314453126,0.12697164714336395,0.3440091609954834,-0.37725257873535156
1761391569213689300,8.662689453125,0.1289338618516922,0.3156997561454773,-0.27287691831588745
1761391569223755000,8.672755126953126,0.16034723818302155,0.3297433853149414,-0.1483631581068039
1761391569233821200,8.6828212890625,0.2009465992450714,0.3477143943309784,-0.026242312043905258
1761391569243887000,8.69288720703125,0.24610547721385956,0.36052390933036804,0.06092938035726547
1761391569253953300,8.702953369140625,0.2768109142780304,0.35667112469673157,0.09620534628629684
1761391569264019200,8.713019287109375,0.27306097745895386,0.3076024651527405,0.07494590431451797
1761391569274086100,8.723086181640625,0.24573881924152374,0.22697395086288452,0.02586863376200199
1761391569284152300,8.73315234375,0.20887917280197144,0.12458531558513641,-0.00943152979016304
1761391569294218200,8.74321826171875,0.1889350265264511,0.0246797576546669,0.005101340357214212
1761391569304284400,8.753284423828125,0.18327254056930542,-0.06385384500026703,0.07447369396686554
1761391569314350000,8.76335009765625,0.16347619891166687,-0.1445886492729187,0.17910023033618927
1761391569324416300,8.773416259765625,0.09745600074529648,-0.16448397934436798,0.26977062225341797
1761391569334483200,8.783483154296874,-0.003088714089244604,-0.12872864305973053,0.31219956278800964
1761391569344549000,8.793549072265625,-0.11735691130161285,-0.0879141166806221,0.2963438630104065
1761391569354615300,8.803615234375,-0.20623672008514404,-0.038774795830249786,0.2514190077781677
1761391569364681200,8.81368115234375,-0.24420428276062012,0.04999525845050812,0.21772333979606628
1761391569374748000,8.823747802734376,-0.23892270028591156,0.15315520763397217,0.2103613018989563
1761391569384814000,8.83381396484375,-0.19803564250469208,0.26522597670555115,0.23727168142795563
1761391569394881000,8.843881103515624,-0.1301703006029129,0.38805416226387024,0.29645535349845886
1761391569404947000,8.853947021484375,-0.06998696178197861,0.44541406631469727,0.340811550617218
1761391569415013000,8.86401318359375,-0.023347554728388786,0.32954898476600647,0.3273239731788635
1761391569425079000,8.8740791015625,-0.00700514018535614,-0.007314948830753565,0.20830078423023224
1761391569435145200,8.884145263671876,-0.06472568958997726,-0.4484119415283203,0.014583243057131767
1761391569445212200,8.894212158203125,-0.21304310858249664,-0.7829151749610901,-0.18566252291202545
1761391569455278000,8.904278076171876,-0.44021421670913696,-0.8608632683753967,-0.32225126028060913
1761391569465344300,8.91434423828125,-0.6769996285438538,-0.6803932189941406,-0.35691383481025696
1761391569475410000,8.924409912109375,-0.8308358192443848,-0.3428410291671753,-0.3173541724681854
1761391569485476000,8.93447607421875,-0.8648041486740112,0.0613737627863884,-0.22422578930854797
1761391569495542000,8.9445419921875,-0.7766588926315308,0.43430712819099426,-0.11659546941518784
1761391569505609000,8.95460888671875,-0.5913258790969849,0.6737529039382935,-0.01854691654443741
1761391569515675100,8.964675048828125,-0.36712849140167236,0.7333871126174927,0.05782748758792877
1761391569525741000,8.974740966796874,-0.1475038081407547,0.6923470497131348,0.14384928345680237
1761391569535807200,8.98480712890625,0.019732840359210968,0.6124114990234375,0.25558674335479736
1761391569545873200,8.994873046875,0.13524086773395538,0.5024526715278625,0.38170260190963745
1761391569555939000,9.00493896484375,0.19133342802524567,0.37177184224128723,0.5140950083732605
1761391569566006300,9.01500634765625,0.21134671568870544,0.2541391849517822,0.6331193447113037
1761391569576072200,9.025072265625,0.2136138677597046,0.17316922545433044,0.7282187342643738
1761391569586138000,9.03513818359375,0.19642116129398346,0.13281767070293427,0.7747722268104553
1761391569596204000,9.0452041015625,0.15830494463443756,0.1422431319952011,0.767034649848938
1761391569606270000,9.05527001953125,0.0968141108751297,0.18496230244636536,0.7121620178222656
1761391569616336100,9.065336181640625,0.012740775011479855,0.2147793173789978,0.6297134757041931
1761391569626403000,9.075403076171876,-0.10233943164348602,0.20996761322021484,0.5187937617301941
1761391569636469200,9.08546923828125,-0.25381284952163696,0.1784277856349945,0.36916911602020264
1761391569646535200,9.09553515625,-0.4106082320213318,0.17596200108528137,0.18134404718875885
1761391569656601000,9.10560107421875,-0.5137974619865417,0.21544815599918365,-0.02448980323970318
1761391569666667000,9.1156669921875,-0.5464864373207092,0.365344762802124,-0.20404253900051117
1761391569676733000,9.12573291015625,-0.5484606623649597,0.6383150815963745,-0.1470191925764084
1761391569686800100,9.135800048828125,-0.6046983599662781,0.619321882724762,0.17946581542491913
1761391569696866000,9.145865966796874,-0.6068370938301086,0.37291422486305237,0.3646628260612488
1761391569706932000,9.155931884765625,-0.5084449052810669,0.13666187226772308,0.3411351442337036
1761391569716998100,9.165998046875,-0.34947389364242554,-0.01990165002644062,0.25732120871543884
1761391569727064000,9.17606396484375,-0.14578114449977875,-0.10794797539710999,0.1922769695520401
1761391569737130200,9.186130126953126,0.06513535231351852,-0.17789962887763977,0.06396905332803726
1761391569747197200,9.196197265625,0.22928506135940552,-0.18259228765964508,-0.10670362412929535
1761391569757263000,9.20626318359375,0.33766451478004456,-0.15361416339874268,-0.30932649970054626
1761391569767329300,9.216329345703125,0.3734726011753082,-0.16238608956336975,-0.4916342496871948
1761391569777395000,9.22639501953125,0.40648698806762695,-0.1489046961069107,-0.6045359969139099
1761391569787461000,9.236461181640625,0.41971978545188904,-0.14379604160785675,-0.6464744210243225
