time,seconds_elapsed,z,y,x
1761338290009905200,0.0769052734375,1.6289058546900748,-1.4257925351999698,-0.10089925528224557
1761338290019970000,0.086969970703125,0.9856839387536048,-1.4756006683334708,-0.2741874549489468
1761338290030036000,0.097035888671875,0.26714345472157,-1.3296511054366826,-0.3725744716819376
1761338290040102000,0.107101806640625,-0.3271206613004207,-1.1041889568205923,-0.37636911472454665
1761338290050167000,0.1171669921875,-0.7529162163645029,-0.9910871129713952,-0.32228699406627564
1761338290060233200,0.127233154296875,-1.1266916613340376,-0.9748087628655135,-0.20835377742685376
1761338290070297900,0.1372978515625,-1.550593949997425,-0.9889275237847119,-0.04864533643182367
1761338290080364000,0.147364013671875,-1.6999860545635221,-0.943740547645837,0.21467786588184534
1761338290090430000,0.157429931640625,-1.508116744273901,-0.7999116301648318,0.41750908049494023
1761338290100495000,0.1674951171875,-1.1307470742046832,-0.6939102659706026,0.6191327459491789
1761338290110561000,0.17756103515625,-0.689220281523466,-0.7278906423099338,0.730697954815626
1761338290120626000,0.1876259765625,-0.21284721638858317,-0.7952084209099411,0.7477735927790403
1761338290130692000,0.197692138671875,0.18350363300442696,-0.868376532973349,0.7492164850637316
1761338290140758000,0.207758056640625,0.4781546878546476,-0.9624737435579299,0.748091280426085
1761338290150823200,0.2178232421875,0.6656161185741424,-1.0237415744692087,0.7383950121242553
1761338290160889000,0.22788916015625,0.6109989777237177,-1.0445850405335426,0.6683581107586621
1761338290170955000,0.237955078125,0.35219080514907836,-1.0845827044010161,0.5196316304944455
1761338290181020000,0.24802001953125,-0.037682957184314726,-1.2232863147575408,0.3035962490564212
1761338290191086000,0.258086181640625,-0.38707039535045623,-1.3155972995124756,0.15657047176286576
1761338290201151200,0.268151123046875,-0.7078291204035282,-1.319650520426035,0.05189589919298887
1761338290211217000,0.278216796875,-0.9751438400387763,-1.297987116280943,-0.003241904530674219
1761338290221283000,0.288282958984375,-1.115495144537091,-1.2101463357426225,0.005024696294218301
1761338290231348000,0.298347900390625,-1.1890227375626563,-1.0849053604841232,0.023844255315512417
1761338290241414100,0.3084140625,-1.3130091827154158,-1.0662405536331236,0.02655848271027207
1761338290251480000,0.31847998046875,-1.369408530807495,-1.025091966164857,-0.05462152476459741
1761338290261545000,0.328544921875,-1.2863836261183024,-0.9489126895867288,-0.2862497947949916
1761338290271611000,0.33861083984375,-1.152700547337532,-0.9505085804760456,-0.4781043459068984
1761338290281676000,0.348676025390625,-1.1503782418698072,-1.1256077385548502,-0.5626916776072234
1761338290291742200,0.3587421875,-1.314113344565034,-1.2807521961025894,-0.6217876443721354
1761338290301808000,0.36880810546875,-1.6742594926327465,-1.1839292138159274,-0.6967106372788548
1761338290311873000,0.378873046875,-2.170560662552714,-0.9626783262193203,-0.6988638697899877
1761338290321939000,0.38893896484375,-2.7166005536317823,-0.7684962089426816,-0.5117208573698997
1761338290332005000,0.399005126953125,-3.241989870870113,-0.6023385187430307,-0.12037015435174107
1761338290342070000,0.409070068359375,-3.425470707520842,-0.426762792661041,0.4370183753460645
1761338290352136200,0.41913623046875,-3.1924118932306764,-0.1376884419646114,0.9309327962599694
1761338290362201000,0.429201171875,-2.6046564284503457,0.21670433020815252,1.321681149470806
1761338290372267000,0.43926708984375,-1.8603163172513246,0.4511735227528959,1.569607570286095
1761338290382333000,0.4493330078125,-1.1620318547844886,0.4795850129187107,1.6860542675837873
1761338290392398000,0.459398193359375,-0.5432727644532919,0.5520737644158303,1.5767928056150673
1761338290402464300,0.46946435546875,-0.063721653804183,0.6539743422277271,1.4190034595817327
1761338290412529000,0.47952880859375,0.6952385188996791,1.3413801216751335,0.8067673412784934
1761338290422595000,0.489594970703125,1.218966040405631,1.165958965100348,0.6941851373892277
1761338290432661000,0.499660888671875,0.6624176147937775,0.298861658282578,1.082352388065681
1761338290442726100,0.50972607421875,1.53284844994843,0.9302342195365577,0.20381964112855494
1761338290452791800,0.519791748046875,1.7004180162400007,1.0547513374999165,-0.18053616150096058
1761338290462858000,0.52985791015625,1.4277531677484512,0.7313992349527776,-0.5352133766382933
1761338290472923100,0.539923095703125,1.7328531358987092,0.5916942290013656,-0.9015359483186155
1761338290482989000,0.549989013671875,1.984032713291049,0.42861112394146617,-1.1085853651486337
1761338290493054200,0.56005419921875,1.972868929719925,0.12765468533672392,-1.262019146320969
1761338290503120000,0.570119873046875,1.9052660505682228,0.014306154983770102,-1.3066095448061823
1761338290513186000,0.58018603515625,1.6663433126807212,0.01774760067453608,-1.1180484822817147
1761338290523251000,0.5902509765625,1.142461477395892,0.07451280467063189,-0.6383204806957393
1761338290533317000,0.600317138671875,0.4957774383068084,0.288161638031993,-0.07673997920081019
1761338290543383000,0.610383056640625,-0.10923720431029796,0.6665961425874382,0.36812487186193465
1761338290553448000,0.620447998046875,-0.5625187321931123,1.05793617808111,0.712873398181051
1761338290563514000,0.63051416015625,-0.7206745734512805,1.2501194496907293,0.9325574017871171
1761338290573579000,0.6405791015625,-0.6299100144207477,1.2345369728945195,1.0283442459590733
1761338290583645200,0.650645263671875,-0.45560967856943607,1.0004828639566898,1.0068454577911645
1761338290593711000,0.660711181640625,-0.2247054119646549,0.5362120322868228,0.9095835726305842
1761338290603776000,0.67077587890625,0.15566285539865493,0.2398056947344914,0.8142924760863185
1761338290613842000,0.680842041015625,0.5524877520442009,0.2170515179443173,0.786185741020739
1761338290623908000,0.690908203125,0.9692676414817571,0.3977901614811271,0.8000169902354478
1761338290633973200,0.70097314453125,1.4390700960546732,0.4794675605515018,0.9022449733708053
1761338290644039200,0.7110390625,1.980367761042714,0.35907738632503894,0.9970319928504526
1761338290654104000,0.72110400390625,2.422200843194127,0.15219699678584,0.9171358877062797
1761338290664170000,0.731169921875,2.5787732146531344,-0.04448125272204634,0.6636492754805833
1761338290674236200,0.741236083984375,2.4201895033717156,-0.2615630242407322,0.29438619336895644
1761338290684301000,0.751301025390625,2.056129981252551,-0.541066194319725,-0.0916304551448673
1761338290694367000,0.761366943359375,1.6533733564704656,-0.8662306800510734,-0.40354543707221746
1761338290704433000,0.771432861328125,1.235047991156578,-1.1676309899657964,-0.5711915026661009
1761338290714498000,0.781498046875,0.8423024727791547,-1.3233483520306646,-0.7529740840315818
1761338290724564000,0.79156396484375,0.5002367558032274,-1.3915364837244153,-0.9589605478052049
1761338290734629000,0.801629150390625,0.2044149036079645,-1.419151928141713,-1.0680080747622995
1761338290744695000,0.811695068359375,-0.0645803164601326,-1.4381076807633042,-1.0643509404942393
1761338290754761000,0.821760986328125,-0.41802959723770616,-1.401382462695241,-1.0742689617879688
1761338290764826000,0.831826171875,-0.6207675075441599,-1.3712905451618134,-0.996157036646828
1761338290774892000,0.84189208984375,-0.5747936918765306,-1.4277739182755351,-0.8366336333625018
1761338290784958200,0.851958251953125,-0.48869244848191734,-1.5259563523471356,-0.60943260518983
1761338290795022800,0.86202294921875,-0.4923480483800173,-1.5773109842702746,-0.3847392489891499
1761338290805089000,0.872089111328125,-0.7735159368008375,-1.6354441704176366,-0.1977477008037269
1761338290815154200,0.882154296875,-1.2528572040915489,-1.6618644137009977,-0.15289134485870598
1761338290825220000,0.89222021484375,-1.6740893967628478,-1.6036045324340462,-0.18013839435502885
1761338290835286000,0.9022861328125,-1.894799601611495,-1.5301605260387061,-0.2149145241819322
1761338290845351000,0.912350830078125,-1.9537001188695429,-1.580291315255314,-0.300607698232308
1761338290855417000,0.9224169921875,-1.8640870679616928,-1.6280971686556935,-0.42413025220036504
1761338290865482000,0.93248193359375,-1.8741285695046186,-1.5818378140449523,-0.5136372854504734
1761338290875548200,0.942548095703125,-2.0537550688147546,-1.3372826232284307,-0.5821703581243753
1761338290885614600,0.952614501953125,-2.0852952854603526,-1.0896828770842402,-0.6307572058346123
1761338290895679700,0.9626796875,-1.9848025286197661,-0.757523929355666,-0.7096073821224271
1761338290905745700,0.97274560546875,-1.6828543024986982,-0.3697903573887422,-0.8347633094459772
1761338290915811800,0.982811767578125,-1.1044757378727197,-0.048281252359785136,-0.874124063649401
1761338290925876700,0.992876708984375,-0.46865386905968187,0.5058550340764224,-0.7287329383529723
1761338290935942700,1.002942626953125,-0.01969780316054821,1.0766961889348923,-0.48535212507806713
1761338290946007800,1.0130078125,0.09477554823756218,1.5136656105726956,-0.10312069419138133
1761338290956073700,1.02307373046875,0.06497019256055354,1.1347255493815989,0.14991210985220968
1761338290966140000,1.033139892578125,-0.16671557981073856,0.6956039912112056,0.34262488522864876
1761338290976204500,1.04320458984375,-0.8355436461687088,0.3878595729667693,0.5193528135530651
1761338290986270700,1.053270751953125,-1.8724726189911365,0.3960436100747436,0.7211535160746425
1761338290996336600,1.063336669921875,-2.8225919078886506,0.7896895113579928,0.7776734948717057
1761338291006401800,1.07340185546875,-3.456460304546356,1.1018066647939384,0.893572933550179
1761338291016467700,1.0834677734375,-3.617740415304899,1.2280927651911973,1.0761997106548398
1761338291026532600,1.09353271484375,-3.3553736734658477,1.3806136693023143,1.1579290956407784
1761338291036598800,1.103598876953125,-2.63821909083426,1.520862974730879,1.1625592396594584
1761338291046664700,1.113664794921875,-1.5501269170075653,1.5611168053165076,1.0932716953564434
1761338291056729900,1.123729736328125,-0.38798283402025696,1.4716178823076187,0.9277535086367279
1761338291066795800,1.133795654296875,0.7278554248660802,1.4119156932778656,0.7049997421965003
1761338291076860700,1.143860595703125,1.6882435943216085,1.4070344971075652,0.5746648047998547
1761338291086926600,1.153926513671875,2.4124469264209267,1.384910635843873,0.4784641191300004
1761338291096992800,1.16399267578125,3.005567133104801,1.2128374745227395,0.32753245697170497
1761338291107058000,1.174057861328125,3.508829374209046,0.9057825729124247,0.12629658525865525
1761338291117123800,1.184123779296875,3.8394507371068,0.5882206711392849,-0.14122892758306116
1761338291127189800,1.194189697265625,3.9140363147526975,0.2899270950682461,-0.38542474703527985
1761338291137254700,1.204254638671875,3.823435421851277,-0.00969305343143642,-0.5338408096434548
1761338291147320800,1.21432080078125,3.6343005049616095,-0.29067791343554855,-0.5929422928337007
1761338291157386800,1.22438671875,3.1629484828591345,-0.44946781481355425,-0.5972460909748449
1761338291167452000,1.234451904296875,2.537075176608562,-0.49132067809365687,-0.423767373704724
1761338291177517600,1.244517578125,1.7151836236953735,-0.42763953896295276,-0.1174303015075624
1761338291187582700,1.254582763671875,0.8441846332639455,-0.24348336033392695,0.13263046445529908
1761338291197648600,1.264648681640625,-0.13383856160342691,0.07497651319224387,0.24556038580369202
1761338291207714800,1.27471484375,-1.1145528952509165,0.33900654860101637,0.2866622480534017
1761338291217779700,1.28477978515625,-1.781317599338293,0.405617092247121,0.33539142684377726
1761338291227845600,1.294845703125,-2.173933353856206,0.6195565243192017,0.3973009897246957
1761338291237910800,1.304910888671875,-2.411461422514915,0.7192308043837546,0.41801286529861387
1761338291247976700,1.314976806640625,-2.33028769865036,0.7603423477772623,0.3310121157810092
1761338291258043000,1.32504296875,-2.0811603776127097,0.8201758350364864,0.13931637196000665
1761338291268107800,1.335107666015625,-1.5720423962175845,0.726874889396131,-0.04248725219350308
1761338291278173700,1.345173583984375,-0.8580997613698244,0.4334414667073637,-0.12095332453455775
1761338291288239600,1.355239501953125,-0.1272428166002035,0.1684144196178764,-0.19244524701405316
1761338291298304800,1.3653046875,0.5436813452541828,0.016182908641081302,-0.13564857016745954
1761338291308371000,1.375370849609375,1.0890168874561785,0.027249387583881617,0.00010592632619664072
1761338291318435600,1.385435546875,1.4734902520507573,0.06271519844168796,0.18694286847179756
1761338291328501800,1.395501708984375,1.6652257068276404,0.0074161580080166455,0.38314763241615146
1761338291338567700,1.405567626953125,1.601657782280445,-0.03632761531891301,0.4877747856477275
1761338291348632800,1.4156328125,1.5281851343125104,-0.017274612867925317,0.5958457226576284
1761338291358698800,1.42569873046875,1.4787135396569966,0.0184203031711746,0.807609710386768
1761338291368764700,1.4357646484375,1.3777771307021378,0.03399244123646058,1.0258023063912987
1761338291378829800,1.445829833984375,1.0509031376391649,0.02034672292280011,1.110017882169783
1761338291388895700,1.455895751953125,0.6167933432161807,-0.0818651493279729,1.045590272053331
1761338291398961000,1.4659609375,0.15845511646568775,-0.19062610529549417,0.7545311772804707
1761338291409026800,1.47602685546875,-0.26047055282890796,-0.33399215450510383,0.35672892350275065
1761338291419092700,1.4860927734375,-0.5718161373704671,-0.4915530255448073,0.015166845200024544
1761338291429157600,1.49615771484375,-0.7476561038792133,-0.6481151678707451,-0.22082995877079664
1761338291439223800,1.506223876953125,-0.9709025492072105,-0.7752195989135652,-0.3537947332143783
1761338291449289700,1.516289794921875,-1.2308745048642158,-0.9137892806921154,-0.4779644990447908
1761338291459354600,1.526354736328125,-1.3406757727980614,-1.0330082191821186,-0.5822544562112539
1761338291469420500,1.536420654296875,-1.3410317466288804,-1.110628926740214,-0.7352686237320304
1761338291479485700,1.546485595703125,-1.3121587033659219,-1.0863201226528734,-0.904274725632742
1761338291489552000,1.5565517578125,-1.1679203283011912,-1.067805464862287,-1.021985962973535
1761338291499617800,1.56661767578125,-0.887142315980792,-1.0497957609191537,-1.0689132799737155
1761338291509682700,1.5766826171875,-0.6810755535125732,-1.141954404656589,-1.144124953628704
1761338291519748600,1.58674853515625,-0.5205336939007044,-1.250541766756028,-1.224265535053238
1761338291529813800,1.596813720703125,-0.40244098296165465,-1.290660572785139,-1.2588419775895774
1761338291539879700,1.606879638671875,-0.37445875105857845,-1.3267113987229764,-1.2505128329224884
1761338291549945900,1.61694580078125,-0.46604982404112816,-1.3663449054531753,-1.1707002413433045
1761338291560010800,1.6270107421875,-0.6624620384573936,-1.2386075833342969,-1.1979847733058036
1761338291570076700,1.63707666015625,-0.7706494414538144,-0.776973895234987,-1.3965161718331276
1761338291580142800,1.647142822265625,-0.8365712356507777,-0.5975900821069255,-1.2523816955342888
1761338291590207700,1.657207763671875,-0.7982382901251316,-0.528521696979925,-0.7677681869290769
1761338291600274000,1.66727392578125,-0.6419710390925407,-0.681749580316618,-0.44408268770910797
1761338291610338600,1.677338623046875,-0.6562298660695552,-0.9311857481077312,-0.11667045958358793
1761338291620404700,1.68740478515625,-0.940446036145091,-1.1189132824175059,0.2758813628526404
1761338291630470700,1.697470703125,-1.388853235989809,-0.9704585317667573,0.6357668506901711
1761338291640535800,1.707535888671875,-1.9501409650832413,-0.36418322156406935,1.05345567166619
1761338291650601700,1.717601806640625,-2.571460261291265,0.3558621140729636,1.589997739624977
1761338291660667600,1.727667724609375,-2.958834023502469,0.952411783748865,2.121074747110903
1761338291670732800,1.73773291015625,-3.03180924334228,1.4309960951924323,2.460638418138027
1761338291680798700,1.747798828125,-2.741389542451501,1.7790189670071004,2.604794375616312
1761338291690863900,1.75786376953125,-2.201667163956165,1.9578360496304927,2.492183603219688
1761338291700929500,1.767929443359375,-1.458619430655241,2.0219604390166697,2.1748032685585317
1761338291710995700,1.77799560546875,-0.5877420207768679,2.0072887934550643,1.7243860440656542
1761338291721060900,1.788060791015625,0.32180501923561095,1.8757883194103835,1.216135931546241
1761338291731126800,1.798126708984375,1.159970246079564,1.8641861444219945,0.7776452916905283
1761338291741191700,1.808191650390625,1.796049304524064,1.8460849628031253,0.48234505221657453
1761338291751257600,1.818257568359375,2.3909762683689593,1.7717299790427088,0.19936879919953643
1761338291761323800,1.82832373046875,2.919557075124979,1.6155756868653,-0.12355280297584831
1761338291771388700,1.838388671875,3.3325843340307473,1.436834738218039,-0.48656800367385145
1761338291781454800,1.848454833984375,3.6166689866811037,1.3351510180272161,-0.8118354383230209
1761338291791520800,1.858520751953125,3.7142210138946767,1.157744898180291,-0.9591706834245473
1761338291801585700,1.868585693359375,3.52308995475173,0.8480765261359512,-0.9040959349997341
1761338291811651600,1.878651611328125,2.986579524040222,0.5769451708219945,-0.6547719223462045
1761338291821716700,1.888716796875,2.20566763176918,0.45609505093358454,-0.19062603223025798
1761338291831783000,1.898782958984375,1.3226777592927217,0.5108249314434826,0.3271371009785682
1761338291841848800,1.908848876953125,0.4222188656210899,0.5897887607062235,0.7332436207104474
1761338291851913700,1.918913818359375,-0.5808937623172998,0.5979356441415846,1.090688912321627
1761338291861979600,1.928979736328125,-1.5271522841334342,0.49359782924540335,1.4720140420183538
1761338291872045800,1.9390458984375,-2.1187170780688525,0.5027397881327197,1.701202736876905
1761338291882110700,1.94911083984375,-2.3202993885993957,0.5036577066952362,1.799245762477815
1761338291892176000,1.95917578125,-2.2272733143776655,0.3748599522706121,1.7905564061962067
1761338291902241000,1.969240966796875,-1.9469775326162575,0.21116678902097044,1.659665150091052
1761338291912307000,1.979306884765625,-1.593179292270541,0.24757563461624085,1.4622861364692448
1761338291922373000,1.989373046875,-0.9945037895470857,0.25119550561383364,1.260169280670583
1761338291932438000,1.99943798828125,-0.35348669017851353,0.05420603929888457,0.984364599783346
1761338291942504000,2.00950390625,0.2535673493117094,-0.21316694986224174,0.6446794943336397
1761338291952569000,2.019569091796875,0.7513648952692746,-0.4420295911042019,0.21015929247885942
1761338291962635000,2.029635009765625,1.077229419028759,-0.6602806758303195,-0.29423158732913435
1761338291972701200,2.039701171875,1.2881658333599566,-0.7537204454194754,-0.7430106892261654
1761338291982765800,2.049765869140625,1.351090783828497,-0.6946380687884987,-1.031049121003598
1761338291992832000,2.05983203125,1.2136650113880634,-0.588781446827203,-1.1787826447077094
1761338292002898000,2.06989794921875,0.9552209959506988,-0.4814463498111814,-1.269943217318505
1761338292012963000,2.079963134765625,0.6477092904835939,-0.3414436030222103,-1.3618547544270754
1761338292023029000,2.090029052734375,0.35460488055348394,-0.2866317798499018,-1.4323537934117019
1761338292033094000,2.100093994140625,0.12436638438105582,-0.3051163347631693,-1.525899361462891
1761338292043160000,2.11016015625,0.06900923881828784,-0.3069791694929823,-1.5204704682819545
1761338292053226000,2.12022607421875,0.1250643035173416,-0.33847408569213,-1.4190537284642457
1761338292063291100,2.130291015625,0.2783323727339506,-0.48955494706276803,-1.2686641372933982
1761338292073357000,2.140357177734375,0.4013964423447847,-0.7229721828691661,-1.1611515648186206
1761338292083423000,2.150423095703125,0.4871569094777107,-0.7577516736969351,-1.0252421882905065
1761338292093487900,2.16048779296875,0.3935533276289701,-0.8397156711563467,-0.9712954940475523
1761338292103554000,2.170553955078125,0.18999416406750677,-0.8935235414505004,-0.8906989855490625
1761338292113619200,2.180619140625,-0.034191607937216754,-0.7812089755214751,-0.6811394125290214
1761338292123684900,2.190684814453125,-0.2555050393760204,-0.6686589934013784,-0.450259988104552
1761338292133751000,2.2007509765625,-0.39457974806725976,-0.6356999959990381,-0.2946690654309466
1761338292143816000,2.21081591796875,-0.4515075039476156,-0.7367022367317229,-0.20336334872841832
1761338292153882000,2.220882080078125,-0.6080974110633135,-0.8701857743524014,-0.14429993252623827
1761338292163947000,2.230947021484375,-0.9037626113921403,-0.8516131758294999,-0.031724450638704
1761338292174013000,2.241012939453125,-1.2116694536566734,-0.6249141788948327,0.1222528445594944
1761338292184078800,2.251078857421875,-1.389157187372446,-0.39525629562195386,0.2106302161925472
1761338292194144000,2.26114404296875,-1.4060136296272276,-0.24337164358776062,0.20053820830509064
1761338292204210000,2.2712099609375,-1.152915066871047,-0.13713541119173167,0.1048331241324544
1761338292214276000,2.281276123046875,-0.8595423613935709,-0.08717844417206942,-0.1414095448469743
1761338292224341000,2.291341064453125,-0.5952759234130383,0.08389606150053441,-0.5324574289936572
1761338292234407000,2.301406982421875,-0.3345435047775507,0.5621499719459563,-0.8867350503541529
1761338292244472000,2.31147216796875,-0.02592529937326908,0.5985067950930446,-0.8533779204797
1761338292254538000,2.3215380859375,0.5130348625779152,0.5135530412331223,-0.5407818609530106
1761338292264604200,2.331604248046875,1.0411386994719505,0.6291142609331757,-0.2595137270281091
1761338292274669000,2.3416689453125,1.1984727029532194,0.7198840806607156,-0.10791509799421764
1761338292284735000,2.35173486328125,1.1250789654403923,0.6992830450501293,0.04251922280092258
1761338292294801000,2.36180078125,0.7673655974775553,0.3696354225553572,0.24967447005901483
1761338292304866000,2.371865966796875,0.1516594649761915,-0.1842263212557882,0.48004536043945695
1761338292314932200,2.38193212890625,-0.6677250735521316,-0.41859921381920573,0.646499110976234
1761338292324996900,2.391996826171875,-1.5435948848903178,-0.10215089931115508,0.5936657848026603
1761338292335063000,2.40206298828125,-2.351736729392409,0.4823076428156346,0.3554518162390217
1761338292345129000,2.41212890625,-3.2048610404372213,1.0268936818245797,0.1380644722027704
1761338292355194000,2.422194091796875,-3.8469840552210806,1.436732739148289,-0.12197521492820232
1761338292365259800,2.432259765625,-3.9587820499300954,1.7434639617621899,-0.451015847973153
1761338292375326000,2.442325927734375,-3.506804005861282,1.9248717915311455,-0.8788358215369284
1761338292385391000,2.45239111328125,-2.693876096126437,1.7645672478064893,-1.6310739925093949
1761338292395457000,2.46245703125,-1.5401339307814836,1.9936833158202467,-2.5652587763026355
1761338292405522200,2.472522216796875,-0.13359364693164824,2.510187754204869,-2.9029280118852854
1761338292415587800,2.482587890625,1.3240788582623004,2.7142946147769687,-2.397650193174928
1761338292425654000,2.492654052734375,2.536906249782443,2.545099200849235,-1.7126953140109777
1761338292435719000,2.502718994140625,3.356923240995407,2.3334921937800943,-1.1255242249898612
1761338292445785000,2.51278515625,3.6579081750422713,2.1340414884507655,-0.7620181720349937
1761338292455850000,2.52285009765625,3.5759669739365574,1.8867711934566496,-0.7539004781614989
1761338292465916000,2.532916015625,3.311607012453675,1.6335127639636395,-0.9816314484924077
1761338292475981800,2.54298193359375,2.927359857830405,1.3690107636615634,-1.1491751496903597
1761338292486047000,2.553046875,2.5263357559293507,1.2334095762997865,-1.0572261301156132
1761338292496113200,2.563113037109375,2.066654297876358,1.3197921208538115,-0.7294667325202375
1761338292506179000,2.573178955078125,1.4543267018973827,1.3474077114015817,-0.29572712311651556
1761338292516244000,2.583243896484375,0.6209639068990945,1.2883788915887475,-0.007975983847863972
1761338292526310000,2.593309814453125,-0.4401970053821802,1.5436857780441642,0.24239730039658022
1761338292536375000,2.603375,-1.5528367604881523,1.7872206859022377,0.6096148298889398
1761338292546441000,2.61344091796875,-2.440767011976242,2.0489958915889264,1.064114501389861
1761338292556507100,2.623507080078125,-3.13464593296051,2.317112721387297,1.403587717654556
1761338292566572000,2.633572021484375,-3.3544115504354237,2.3291882129758594,1.6590307977102696
1761338292576638000,2.643637939453125,-3.112670832517743,2.1235798617996275,1.7087433615148067
1761338292586704100,2.6537041015625,-2.423362288188934,1.8165744984194636,1.518964447633177
1761338292596769000,2.66376904296875,-1.4005980343192814,1.4072536928161978,1.2030402300644665
1761338292606835000,2.6738349609375,-0.40046588349640366,0.9935871130935847,0.82966898198165
1761338292616899800,2.68389990234375,0.502365584525466,0.5673367999993264,0.4636825469205156
1761338292626966000,2.693966064453125,1.2350900767326354,0.1544070101186633,0.22190303136240688
1761338292637032000,2.704031982421875,1.8030571374595163,-0.1553865226753056,0.033180426167254334
1761338292647097000,2.71409716796875,2.175288860118389,-0.30695268334485587,-0.10133702564500272
1761338292657163000,2.7241630859375,2.224525476974249,-0.2958994474761188,-0.1864461161971092
1761338292667228000,2.734227783203125,1.9970161135047673,-0.17455321463383733,-0.2015931607181206
1761338292677294000,2.744294189453125,1.649386917182803,-0.022136063158139586,-0.16931556970868258
1761338292687360000,2.754360107421875,1.1546768158465623,0.042069355574995276,-0.18203922300767153
1761338292697425000,2.7644248046875,0.5721300256252289,0.010401420896500348,-0.27604259956264865
1761338292707490800,2.77449072265625,0.049507250490784645,-0.1439020923150703,-0.4397393612751737
1761338292717557000,2.784556884765625,-0.40318566384911536,-0.3021286972545087,-0.5891044317038729
1761338292727622100,2.7946220703125,-0.7930980046272277,-0.37534090418796984,-0.7174624795369804
1761338292737688000,2.80468798828125,-1.1717185515403747,-0.3370848598234355,-0.7317571084797382
1761338292747753000,2.8147529296875,-1.485251416993141,-0.20267554912734775,-0.5980186462499201
1761338292757819000,2.82481884765625,-1.6223580404818057,-0.012945150562562048,-0.39740346371848134
1761338292767885000,2.834885009765625,-1.6435551422894,0.11294347494971006,-0.21073749422561375
1761338292777950000,2.844949951171875,-1.4981728578865527,0.21919706033933906,-0.03743422485394403
1761338292788016000,2.85501611328125,-1.1785025125920772,0.2970370001386851,0.06413916226362343
1761338292798082000,2.86508203125,-0.7101397354334592,0.2685564633246511,0.08479364966107532
1761338292808147000,2.87514697265625,-0.13842179774045943,0.16387253840453922,0.0844485260178335
1761338292818212900,2.885212890625,0.41327275809943675,0.05697393310964107,0.0711554022678174
1761338292828278000,2.895278076171875,0.745103496786952,-0.0272506296928972,0.10724264209275133
1761338292838344200,2.90534423828125,0.749376351800561,-0.11554901780560611,0.10708395353285595
1761338292848409900,2.915409912109375,0.5534206489801407,-0.12364128497689962,0.016283514904766344
1761338292858475000,2.92547509765625,0.31962066093385216,-0.04720112897288054,-0.07384865080663003
1761338292868541000,2.935541015625,0.1049959134787321,0.011878507711738347,-0.12448443953646346
1761338292878607000,2.945607177734375,-0.038107320076227184,0.04633318703193217,-0.0830355539473705
1761338292888672000,2.955672119140625,-0.1424175893783569,0.17299038576390594,-0.07227686231210828
1761338292898738000,2.965738037109375,-0.20996669251620767,0.3202654251107946,-0.09532845114627853
1761338292908803000,2.975802978515625,-0.1757546263128519,0.3028190541388467,-0.10259246906619518
1761338292918869000,2.985868896484375,-0.0731201812684536,0.2332011819029227,-0.2090053732033819
1761338292928935200,2.99593505859375,0.11297755988240242,0.33302225002702324,-0.4999756206490099
1761338292938999800,3.005999755859375,0.4506371508538723,0.5068870074726641,-1.0023701390080153
1761338292949066000,3.01606591796875,0.7710252890288829,0.4299531131349504,-1.3302578391581772
1761338292959131000,3.026130859375,0.8782768724799156,0.19383743202481418,-1.4456883451506495
1761338292969197000,3.036197021484375,0.5322673863142728,-0.0439044255150482,-1.439270002540946
1761338292979263000,3.046262939453125,-0.40438744085431094,-0.15900968160852788,-1.224392303238064
1761338292989328000,3.056327880859375,-1.6991338216483591,0.02915412522666156,-0.9492368069745599
1761338292999394000,3.06639404296875,-2.9980355685561895,0.4236160921331495,-0.5362970071565359
1761338293009460000,3.0764599609375,-4.1139264344125985,0.9409006480447948,0.02567943485341966
1761338293019525000,3.086525146484375,-4.72631598971188,1.4091583573937416,0.6435564816530793
1761338293029591000,3.096591064453125,-4.768358895671367,1.80699959147498,1.1641732507273554
1761338293039656000,3.106656005859375,-4.317792471966147,2.236050495073199,1.4293578264661133
1761338293049721900,3.116721923828125,-3.3871804320931433,2.5454411461547015,1.510712605985999
1761338293059788000,3.1267880859375,-2.172444576603174,2.5936051653429866,1.4653732888296245
1761338293069853200,3.136853271484375,-0.7510802331089973,2.2855656366094945,1.316623573820293
1761338293079919000,3.146919189453125,0.7153571778208017,2.3732822062462566,1.1111303734563291
1761338293089984800,3.15698486328125,1.6430471927672623,2.291772528425604,0.8947196193672716
1761338293100050000,3.1670498046875,2.3463071055591107,1.9529796956405043,0.6100369277585298
1761338293110116000,3.1771162109375,2.815998500972986,1.6865381055779753,0.19737188976127654
1761338293120181000,3.187180908203125,3.038469285753369,1.4421993339911103,-0.35423173639215527
1761338293130247000,3.197246826171875,3.05672565793395,1.1837196627184747,-0.8556003457695245
1761338293140312800,3.207312744140625,2.9278444264769554,1.0645151911452413,-1.2196225315529852
1761338293150378000,3.2173779296875,2.5597137093961235,1.1415277036771179,-1.4383068565972148
1761338293160444000,3.22744384765625,2.1175287450671196,1.2991326330542563,-1.406253575862944
1761338293170510000,3.237510009765625,1.8180261585325002,1.3890923054426907,-1.1842369645908475
1761338293180575000,3.247574951171875,1.5270815569847822,1.2965306338623166,-0.9817456494566053
1761338293190641000,3.257640869140625,1.1533820998609066,1.0538885831907392,-0.8349423192746936
1761338293200706000,3.2677060546875,0.7103916643679141,0.8960945609822869,-0.7570048008523881
1761338293210772000,3.27777197265625,0.11410744069516658,0.9134715930450708,-0.7168848257794976
1761338293220838100,3.287838134765625,-0.61151686411798,1.021581839152053,-0.5071163592491299
1761338293230902800,3.29790283203125,-1.2537655511081218,1.2076030810005962,-0.0632341990808025
1761338293240969000,3.307968994140625,-1.7667402079313992,1.390215610384196,0.399310868242383
1761338293251034000,3.3180341796875,-2.099627762195468,1.4818699578613042,0.7381141493562609
1761338293261100000,3.32810009765625,-2.2147142770558594,1.522087109698355,0.8868228747680783
1761338293271166200,3.338166259765625,-2.1450994735598563,1.4912908432878553,0.8350145807933061
1761338293281230800,3.34823095703125,-1.8150936122119425,1.1011195593126117,0.5741410001214593
1761338293291297000,3.358297119140625,-1.1046288826078177,0.7703997775416821,0.20956812165267763
1761338293301363000,3.368363037109375,-0.2513970195353031,0.4692467934515327,-0.12697066686162725
1761338293311428000,3.378427978515625,0.5645680659383535,0.10401262892927042,-0.4044396824982017
1761338293321494000,3.388493896484375,1.1314794801324606,-0.2135521132549271,-0.6444521883837878
1761338293331559000,3.398558837890625,1.5782751531273125,-0.40485301253944633,-0.8929520251728594
1761338293341625000,3.408625,1.8868530265212058,-0.566168706068024,-1.1808094012949615
1761338293351691000,3.41869091796875,2.11814307757318,-0.778764943370223,-1.5965325482212007
1761338293361756200,3.428756103515625,2.224520800799131,-0.9489769139293581,-2.1246868001282215
1761338293371821800,3.43882177734375,2.137562063792348,-1.068233846342191,-2.6338553426668048
1761338293381888000,3.448887939453125,1.848914633271098,-1.2555585720047353,-3.0482769785404202
1761338293391953000,3.458952880859375,1.4185434408545494,-1.396310712388903,-3.262182764071226
1761338293402019000,3.46901904296875,1.030302248159051,-1.4108939490146934,-3.338476022417843
1761338293412084200,3.479084228515625,0.721039315110445,-1.3089761278070509,-3.239640092873573
1761338293422150000,3.48914990234375,0.4882148940980434,-1.157953207168728,-2.898709809668362
1761338293432215800,3.4992158203125,0.34319442874491213,-1.080278577466309,-2.3081080155462024
1761338293442281000,3.509281005859375,-0.0006675239980220794,-0.9898020415969192,-1.6470327552720903
1761338293452347100,3.51934716796875,-0.4663385778546333,-0.9422381071936339,-1.0069885925889015
1761338293462411800,3.529411865234375,-0.8527811966955662,-0.8778183150574564,-0.5720787338294089
1761338293472478000,3.53947802734375,-1.215081307926774,-0.8974477291569113,-0.44751624235436316
1761338293482543900,3.5495439453125,-1.4642968917697667,-1.0861094755768774,-0.4430198807831853
1761338293492609000,3.559609130859375,-1.57292736235857,-1.2619964960977434,-0.48635713740214703
1761338293502675000,3.569675048828125,-1.5859166077911853,-1.3286920511461793,-0.5586580747095867
1761338293512741000,3.5797412109375,-1.6697557514727115,-1.2603436143241822,-0.5109502748562023
1761338293522806000,3.589805908203125,-1.937459762686491,-1.0465504953876137,-0.42696313753873105
1761338293532872000,3.599871826171875,-2.1856436653941866,-0.8622527893960475,-0.39591556324828414
1761338293542937000,3.60993701171875,-2.197795290958881,-0.7683790123037993,-0.3969035513723269
1761338293553003000,3.6200029296875,-1.9516776731312273,-0.7132181199654937,-0.5375860240537673
1761338293563069200,3.630069091796875,-1.529060748103261,-0.508540839094296,-0.7158961070030927
1761338293573133800,3.6401337890625,-1.0494564459621907,-0.04043179923472926,-0.6611033173248172
1761338293583200000,3.650199951171875,-0.47365679191350935,0.2809238505318761,-0.358203708763048
1761338293593266000,3.660265869140625,0.141900872027874,0.6853988966044038,-0.04925282363856677
1761338293603331000,3.6703310546875,0.5524041654139756,0.9734617321707307,0.20758399863075463
1761338293613397000,3.68039697265625,0.8744897551566362,1.0715303306043147,0.3829308113276958
1761338293623462000,3.6904619140625,0.9948130016267299,1.010205947200209,0.4437394272293895
1761338293633528000,3.700528076171875,0.7944330526232719,0.8640667069502175,0.3976021646283567
1761338293643594000,3.710593994140625,0.35150282288491724,0.7924578800927847,0.2674931814746931
1761338293653659100,3.7206591796875,-0.11031097102165222,0.7747668136447667,0.11663831087965518
1761338293663724800,3.730724853515625,-0.516071453794837,0.9153492965504526,-0.09254673887272365
1761338293673791000,3.740791015625,-0.6896715324223042,1.1037743116050958,-0.29580864565381776
1761338293683856100,3.750856201171875,-0.6642278790861368,1.1272818823121487,-0.34067893879264594
1761338293693922000,3.760922119140625,-0.4392202693045139,1.193725216165185,-0.3604129823103547
1761338293703987000,3.770987060546875,-0.02637362766265869,1.4212744732536375,-0.34918990630004554
1761338293714052900,3.781052978515625,0.44931437781751155,1.5513912378549575,-0.18768775028865783
1761338293724119000,3.791119140625,0.7978186034083365,1.6302917560905217,0.09975267906300724
1761338293734184000,3.801183837890625,0.9801356569766998,1.689479273596406,0.31322146141603585
1761338293744250000,3.81125,1.0527642553359269,1.5600903848782182,0.44356217096634204
1761338293754315000,3.82131494140625,1.109620699545741,1.3692425265908241,0.4591385833479464
1761338293764381000,3.831380859375,1.128628766876459,1.146966168403998,0.2749420361759141
1761338293774446800,3.84144677734375,1.1076385858178137,0.9751968854002654,0.01732621519099921
1761338293784512000,3.851511962890625,1.0260480978459119,0.886766979862377,-0.20457045949585734
1761338293794578200,3.861578125,0.9001187019318342,0.8783438733015209,-0.333201004127413
1761338293804644000,3.87164404296875,0.646017684134841,0.9075625881969929,-0.36547136167846617
1761338293814709000,3.881708984375,0.1959101101130247,0.8786682098850608,-0.35126002710498866
1761338293824775000,3.89177490234375,-0.34738077451884747,0.7484764803513884,-0.3378626392628997
1761338293834841000,3.901841064453125,-0.8793751891106366,0.5699446809427813,-0.32897253624480216
1761338293844906000,3.911906005859375,-1.3694330807268618,0.37027105357777323,-0.30821978067122396
1761338293854972000,3.921971923828125,-1.7062112126886844,0.22200112144201992,-0.3860953397732228
1761338293865037000,3.932037109375,-1.847111383241415,0.18139723530970514,-0.5448830857267603
1761338293875103000,3.94210302734375,-1.9416104526251554,0.2474904040182009,-0.6776208830140531
1761338293885169200,3.952169189453125,-1.9235382048398255,0.31061493217945096,-0.7555615432415157
1761338293895234300,3.962234375,-1.713655098953843,0.33701000448893753,-0.7804633447859436
1761338293905300500,3.972300537109375,-1.3602607632338999,0.31974607741180805,-0.7256766195222735
1761338293915365400,3.982365478515625,-0.7703197711080312,0.2591477432599291,-0.6995097664780915
1761338293925431300,3.992431396484375,-0.05589490570127964,0.22451847455780952,-0.6952861574336886
1761338293935497200,4.002497314453125,0.7712234419494867,0.17109861720055342,-0.6428269252695142
1761338293945562400,4.012562255859375,1.5560767653226852,0.027659795015677807,-0.5149085109626874
1761338293955628300,4.022628173828125,2.265663543048501,-0.013813932753726839,-0.3426982061931863
1761338293965694500,4.032694580078125,2.8125808014839886,0.0636372634563595,-0.16858678051009773
1761338293975759400,4.04275927734375,3.0955408340185877,0.04673537462465465,0.03496637115239864
1761338293985825300,4.0528251953125,3.000188362675905,0.061276416076533495,0.2298300249693915
1761338293995890400,4.062890380859375,2.557940854504704,0.03920267756488174,0.36290490872394293
1761338294005956400,4.072956298828125,2.065970991787314,-0.12524649168383328,0.49409854530915615
1761338294016022500,4.0830224609375,1.536006037196517,-0.3208279178317636,0.49271936591044063
1761338294026087200,4.093087158203125,1.057971176329255,-0.46092396892737597,0.5271030988862738
1761338294036153300,4.1031533203125,0.7082686808645725,-0.5502273328315467,0.6378053707804531
1761338294046219300,4.11321923828125,0.4501607655137777,-0.6038488867733627,0.738266709569469
1761338294056284400,4.123284423828125,0.06784019503891468,-0.6269415200039744,0.8104908187810331
1761338294066350300,4.133350341796875,-0.4628051430314779,-0.5800497857738286,0.9202453980289399
1761338294076415200,4.143415283203125,-0.9621575172156095,-0.5027199509210885,1.0749293253928422
1761338294086481400,4.1534814453125,-1.4009528391063213,-0.5221695880068465,1.114182308372855
1761338294096547300,4.16354736328125,-1.6867349433243273,-0.6134304426543414,1.0661969336871058
1761338294106612500,4.173612548828125,-1.845531420573592,-0.9135789989423007,0.86821396282278
1761338294116678400,4.183678466796875,-1.9002251337915659,-1.1805214511990547,0.5293735645689069
1761338294126744300,4.193744384765625,-1.855653001615405,-1.410884450533986,0.055419050084147596
1761338294136809500,4.2038095703125,-1.6874112351506947,-1.6124709988482295,-0.4244466246731579
1761338294146875400,4.21387548828125,-1.4204279394268988,-1.728485880599916,-0.8143621803216635
1761338294156940500,4.2239404296875,-1.0247639032542706,-1.6961654733620584,-1.0400109375510365
1761338294167006200,4.234006103515625,-0.6347820043712854,-1.631217492633313,-1.0950781602565198
1761338294177072400,4.244072265625,-0.33883564901351926,-1.6437538797318934,-1.0005216615971178
1761338294187137300,4.25413720703125,-0.14169395127892492,-1.6224984718658029,-0.969623176921159
1761338294197203500,4.264203369140625,-0.03310556626617908,-1.49407959722355,-1.0555574662510305
1761338294207268400,4.274268310546875,-0.0023608839124441144,-1.3747542757496236,-1.097265075841546
1761338294217334300,4.284334228515625,0.019866145464777947,-1.2353558880619704,-1.0117402440954
1761338294227400200,4.294400146484375,-0.0035796120524406432,-1.0885690706234425,-0.7690629759799689
1761338294237465300,4.30446533203125,-0.1865028148204088,-1.0131178160589187,-0.5448045040652155
1761338294247531500,4.314531494140625,-0.39205285993814465,-0.9885061565674841,-0.4095999148055911
1761338294257597400,4.324597412109375,-0.4735930790275335,-1.0336800540290771,-0.590658127419278
1761338294267662300,4.334662353515625,-0.26930677023530003,-0.7409681505478918,-1.1347134205523877
1761338294277728300,4.344728271484375,0.10683891099691391,-0.254752485709358,-1.710133208438009
1761338294287793400,4.35479345703125,0.35148645627200603,-0.47565622210241854,-1.7366218407824634
1761338294297859300,4.364859375,0.3853670985639095,-0.7758923836085945,-1.3543075539179146
1761338294307925500,4.374925537109375,-0.14384732992053031,-0.9889091113451868,-0.8166353128854185
1761338294317990400,4.384990478515625,-1.1460732381522656,-0.9499665094885975,-0.08393350743409246
1761338294328056300,4.395056396484375,-2.294550030314922,-0.48108277719579634,0.5899482986494898
1761338294338122200,4.405122314453125,-3.419545993646979,0.16922427469603715,1.0887499070830642
1761338294348187400,4.4151875,-4.333486884704232,0.8629776696044951,1.510162570887804
1761338294358253600,4.425253662109375,-4.8341146856516595,1.4575959328263997,1.9404484231084584
1761338294368319200,4.4353193359375,-4.579789795970917,2.3702748411238193,2.3074907604306936
1761338294378385400,4.445385498046875,-3.682964874887466,2.5952941413432358,2.026638221569359
1761338294388450300,4.4554501953125,-2.389020458126068,2.444815702845156,1.5371110758289694
1761338294398516500,4.4655166015625,-0.9510463406145572,2.0677084831044077,0.9182361040331423
1761338294408582400,4.47558251953125,0.41114042224586006,1.857899173106998,0.3619734730927273
1761338294418647300,4.485647216796875,1.5481547401517628,1.7705948375329374,-0.09934442705567925
1761338294428713200,4.495713134765625,2.3704314929902552,1.8506677605487405,-0.5030913780493661
1761338294438778400,4.5057783203125,2.9293963320940732,1.8497127979114651,-0.8926145368468016
1761338294448844500,4.515844482421875,3.1796950349986552,1.7642153656288981,-1.240941725370288
1761338294458910500,4.525910400390625,3.3975954431235786,1.6609584047719834,-1.5971876511290668
1761338294468975400,4.535975341796875,3.567303190487623,1.5157470930218695,-1.8388821918174623
1761338294479041300,4.546041259765625,3.4046868626892564,1.2484642298296094,-1.7780375547543168
1761338294489107500,4.556107421875,2.9981822835505008,1.0715792112473397,-1.3867092096984386
1761338294499172400,4.56617236328125,2.388112111109495,1.282668989509344,-0.8213803154554218
1761338294509238500,4.576238525390625,1.5935598160207272,1.669918833079934,-0.3135387106716633
1761338294519303400,4.586303466796875,0.8330588436156511,1.9509701093837617,0.13721534456014634
1761338294529369300,4.596369384765625,-0.07230769584178924,2.2571301079809665,0.43892267459742723
1761338294539435300,4.606435302734375,-1.1191723717451094,2.595758251723647,0.7874513039771467
1761338294549500400,4.61650048828125,-1.9480279184520244,2.722440511831641,1.3797002077192067
1761338294559566300,4.62656640625,-2.384099952858686,2.7612019119024276,1.93633309674412
1761338294569632300,4.63663232421875,-2.37956114038527,2.6210043366611004,2.304241841637343
1761338294579697400,4.646697509765625,-2.071057501271367,2.306832881043851,2.4463477347180245
1761338294589763300,4.656763427734375,-1.5410568908452986,1.998042533943057,2.325415270308405
1761338294599828500,4.666828369140625,-0.9007090690404176,1.8050006727427244,2.0221789040729403
1761338294609894400,4.676894287109375,-0.2778600790470838,1.5948820045351981,1.6339968942187726
1761338294619960300,4.686960205078125,0.294426598444581,1.3164829963058233,1.1963874211117624
1761338294630025500,4.697025390625,0.8199421724110841,1.0203477673124521,0.7067796844158322
1761338294640091400,4.70709130859375,1.2555740618348121,0.6306014307510107,0.14645532046183943
1761338294650157600,4.717157470703125,1.496579451215267,0.2365485561020672,-0.4359789858283475
1761338294660222200,4.72722216796875,1.5605021805495023,-0.07021379230245947,-0.9844937060557305
1761338294670288400,4.737288330078125,1.56043145340085,-0.3234947258882224,-1.3856877576962112
1761338294680353300,4.747353271484375,1.4376339257717132,-0.4821779520213604,-1.6877549340218305
1761338294690419500,4.75741943359375,1.1469967827379703,-0.5947545298874378,-1.926036451396346
1761338294700485400,4.7674853515625,0.9086825321376323,-0.6850863965891302,-2.0751189054913817
1761338294710550300,4.77755029296875,0.7175047112435102,-0.7008044824637473,-2.135562706668675
1761338294720616400,4.787616455078125,0.5144821387767792,-0.6549974016651511,-2.069259511938691
1761338294730682400,4.797682373046875,0.3838081786841154,-0.571777997317165,-2.0015731922872364
1761338294740747500,4.80774755859375,0.38063305577933787,-0.6096401104606688,-2.0318444119103254
1761338294750813400,4.8178134765625,0.3908960911184549,-0.48586043992638583,-1.9636670938715337
1761338294760878300,4.82787841796875,0.3812380359351635,-0.5396249825354665,-1.8714871150851249
1761338294770944300,4.8379443359375,0.27541443946063515,-0.513168571960181,-1.6836485216163097
1761338294781010400,4.848010498046875,0.1026911436676979,-0.4867389763265848,-1.4410415422581135
1761338294791075600,4.85807568359375,-0.22622867600917815,-0.40093591216094787,-1.2076507195346056
1761338294801141200,4.868141357421875,-0.506015339204669,-0.23510325266458093,-1.0184870880071073
1761338294811206400,4.878206298828125,-0.5735995136559009,0.01796418430097401,-0.734784712672606
1761338294821272300,4.888272216796875,-0.5891285066992044,0.1499452084042132,-0.4311840797020122
1761338294831338500,4.89833837890625,-0.616076719379425,0.18806136937402188,-0.2009043747363612
1761338294841403400,4.9084033203125,-0.677763652485609,0.2125955066498369,-0.14493472329843787
1761338294851469300,4.91846923828125,-0.800492206531763,0.1915408089876175,-0.22020368009861557
1761338294861535200,4.92853515625,-0.9359487247258425,0.22653781502358614,-0.30015655693132426
1761338294871600400,4.938600341796875,-0.9608598786205053,0.3730616706769913,-0.3792309338964522
1761338294881666300,4.948666259765625,-0.8785387382864952,0.5703696648892015,-0.4952907507684082
1761338294891730700,4.958730712890625,-0.6486369267225265,0.7880287385389209,-0.7200249504361301
1761338294901796900,4.968796875,-0.3358499112010002,0.9375110056065022,-0.966508552031964
1761338294911862800,4.97886279296875,0.05659750101268291,0.7813081981122493,-1.1894196279257536
1761338294921928000,4.988927978515625,0.5769827263534069,0.48495311582311984,-1.5157484081961214
1761338294931993900,4.998993896484375,1.2290250776052474,0.6550611876163631,-1.937586311675608
1761338294942059800,5.009059814453125,1.8241186301887033,1.1319356994673608,-2.314015193763375
1761338294952125000,5.019125,2.261985731318593,1.6195745472431182,-2.5306205936416983
1761338294962190800,5.02919091796875,2.259019867250323,1.5470625610008835,-2.323634670501947
1761338294972256000,5.039256103515625,1.7583645937740802,1.0516872737541794,-1.8302571329437196
1761338294982322000,5.049322021484375,0.7394476629823445,0.773618739588186,-1.3900101509399712
1761338294992387800,5.059387939453125,-0.9624690673828125,0.7385901693701744,-1.0205157442905008
1761338295002452700,5.06945263671875,-2.5693600741416214,0.920555633021891,-0.5049944717243313
1761338295012519000,5.079518798828125,-3.5803777761161326,1.296591131877899,0.03933463338147849
1761338295022584800,5.089584716796875,-3.943728273183107,1.6330892778545618,0.5723475043008104
1761338295032649700,5.099649658203125,-3.64879080260694,1.7536355194255708,0.941645182801783
1761338295042716000,5.1097158203125,-2.7693191673845052,1.7703893780887126,0.9752781339429318
1761338295052780800,5.11978076171875,-1.5446189672410486,1.8220143513858318,0.7923894179664551
1761338295062847000,5.129846923828125,-0.2564730076253414,1.8535976765207944,0.582387215745449
1761338295072913000,5.139912841796875,0.9150713563919067,1.735811108921468,0.41216790213007476
1761338295082977800,5.149977783203125,1.923876643013954,1.642100559566915,0.18003528104042632
1761338295093043700,5.160043701171875,2.7005262016654012,1.685195020405948,-0.09251783243864774
1761338295103110000,5.17010986328125,3.2774463841766117,1.8088482880815862,-0.3088059099961072
1761338295113175000,5.180175048828125,3.6410330280870196,1.822360680605471,-0.5477114775530993
1761338295123241000,5.190240966796875,3.8348897128015755,1.7505550890669226,-0.7375458479490131
1761338295133305900,5.200305908203125,3.815042856559157,1.526569954200834,-0.7904439829871058
1761338295143371800,5.210371826171875,3.48146264385581,1.145398699891567,-0.814868010951951
1761338295153438000,5.22043798828125,2.7659423844277855,1.1254828700661659,-0.7009868532933294
1761338295163502800,5.2305029296875,1.8449901533037423,1.193567249124497,-0.7194673165533692
1761338295173569000,5.240569091796875,0.8354507071882485,1.1770162195570766,-0.6920522170137614
1761338295183634700,5.250634765625,-0.2878963198930025,1.0938584092032164,-0.46504283895567056
1761338295193699800,5.260699951171875,-1.273776658001542,1.088562348621711,-0.28638681037919594
1761338295203765800,5.270765869140625,-2.068429490855336,1.052332439789921,-0.12081439098790288
1761338295213831000,5.280830810546875,-2.7968963256180284,1.017814595573023,0.1109925692107994
1761338295223897000,5.29089697265625,-3.460184293505549,1.171481966305524,0.3218899210400879
1761338295233962800,5.300962646484375,-3.899949337211251,1.4812012648195028,0.32367899641394615
1761338295244028000,5.31102783203125,-3.9746886441141362,1.571294938851148,0.11727638045432977
1761338295254093800,5.32109375,-3.516880578717589,1.4719200801245866,-0.0916343732681591
1761338295264159000,5.331158935546875,-2.6476082659482953,1.2895226547963916,-0.2418552842080593
1761338295274224600,5.341224609375,-1.7507628865987062,0.9153069187134504,-0.43850503370724614
1761338295284290800,5.351290771484375,-0.7983873432070017,0.5606921378204599,-0.6216996007625013
1761338295294356000,5.36135595703125,0.09175649267733096,0.31591208873949944,-0.8442072834871709
1761338295304422000,5.371421875,0.8448983344912528,0.08424860126525163,-1.0774631547193974
1761338295314487800,5.38148779296875,1.39226392121613,-0.02870767836710438,-1.1026827900413423
1761338295324552700,5.391552734375,1.8058195879101753,-0.08945512039978057,-1.1060812733732164
1761338295334619000,5.401618896484375,2.2249229518592357,-0.19957424037745222,-1.2142425190150736
1761338295344683800,5.411683837890625,2.318523026576638,-0.2830492451880127,-1.2169262782063335
1761338295354750000,5.42175,2.0171260045975448,-0.3198706171069294,-1.1386679303318261
1761338295364816000,5.43181591796875,1.5569997253865002,-0.2945660617141984,-0.9646626319043338
1761338295374880800,5.441880859375,0.9078788145393133,-0.22903350429683922,-0.7911288965113461
1761338295384947000,5.451947021484375,0.2088940948486328,-0.17179153136815875,-0.7199943361021578
1761338295395012900,5.462012939453125,-0.40029695667028425,-0.13723182077091187,-0.5990768865985796
1761338295405078000,5.472078125,-0.8271107488662004,-0.09202522661611437,-0.4583840751862153
1761338295415144000,5.48214404296875,-0.9698726216375827,-0.03458469890803099,-0.2404362477229908
1761338295425208800,5.492208740234375,-1.0035124409109353,0.10652210013270377,0.05741758522391319
1761338295435274800,5.502274658203125,-1.0204366877049207,0.42431876050978895,0.43600466825887557
1761338295445341000,5.5123408203125,-0.9707049808084964,0.6605912030842155,0.9104799369484186
1761338295455405800,5.52240576171875,-0.8816612542212009,0.6562631838172673,1.327847709276527
1761338295465472000,5.532471923828125,-0.7400731014043093,0.3791569918774068,1.585575831529498
1761338295475537700,5.54253759765625,-0.6399421636134386,0.010098492427170275,1.5946800522223115
1761338295485602800,5.552602783203125,-0.6353150883346795,-0.33664171916581687,1.4207929733470082
1761338295495669000,5.5626689453125,-0.7322831781804561,-0.6106913000140339,1.203275061733648
1761338295505734000,5.57273388671875,-0.8486497959792614,-0.801588404270634,1.0633836298320443
1761338295515799800,5.5827998046875,-0.9626035074174404,-0.9295330855298787,1.064630561153218
1761338295525865700,5.59286572265625,-1.013772553640604,-0.9204739460878074,1.2306906727299094
1761338295535931000,5.602930908203125,-0.8354267417907715,-0.6861134015493094,1.2842676568776368
1761338295545996800,5.612996826171875,-0.5505792880743742,-0.562350170693174,1.280323741557449
1761338295556062000,5.62306201171875,-0.3471072182744741,-0.6849845436498523,1.224853929400444
1761338295566127900,5.6331279296875,-0.25907588360011574,-0.8282442098755389,1.018201768259704
1761338295576193800,5.64319384765625,-0.23939152444303036,-0.9138603731669485,0.5694830913130193
1761338295586259000,5.653259033203125,-0.2624000595867634,-0.9582130904387682,0.09093889268413186
1761338295596324900,5.663324951171875,-0.37102234686911106,-0.9932106079313904,-0.1714846939086914
1761338295606391000,5.67339111328125,-0.4352946202933788,-1.049498823799193,-0.36448293516300617
1761338295616455700,5.68345556640625,-0.2518108610332012,-1.3137047637641428,-0.7356405988495797
1761338295626521900,5.69352197265625,0.11137830799221991,-1.7876424184456468,-1.6804697454497217
1761338295636587000,5.7035869140625,0.2911369092494249,-2.2986878607720134,-3.001287263828516
1761338295646653000,5.71365283203125,-0.027858897784352302,-2.433193361851573,-4.358336371539533
1761338295656718800,5.72371875,-0.6333645387887954,-2.4057094348594545,-5.1596699973315
1761338295666783700,5.73378369140625,-1.2343477339327336,-2.1797934780612587,-5.0654959221184255
1761338295676850000,5.743849853515625,-1.9728134001404045,-1.7126023750305175,-4.389203803490102
1761338295686915800,5.753915771484375,-2.6037767230063675,-0.9360689170394092,-3.354050608168542
1761338295696981000,5.76398095703125,-3.1012597961872816,-0.211648361992836,-2.1367659449785945
1761338295707047000,5.774046875,-3.15622414304018,0.47423269210532304,-1.1146294676184654
1761338295717111800,5.78411181640625,-2.923988335570693,1.0107301172047853,-0.07649557598568499
1761338295727178000,5.794177978515625,-2.3596546629101036,1.522801395447552,1.0310271283674985
1761338295737244000,5.804243896484375,-1.531498204383254,1.6759972762107849,1.762944761171192
1761338295747309000,5.81430908203125,-0.8278297107905149,1.823451690712571,2.0200794475756583
1761338295757374700,5.824374755859375,-0.17447335433065891,2.1261063115373253,2.0050486133128405
1761338295767441000,5.83444091796875,0.548246461212635,2.247108187921345,1.9003169037282466
1761338295777505800,5.844505859375,1.1715987245529889,2.128822584758699,1.6446876534506678
1761338295787572000,5.854572021484375,1.703449931281805,1.7682107188753782,1.2231753286637366
1761338295797636900,5.864636962890625,2.1321412077873942,1.4423141925424336,0.7162029809951782
1761338295807702800,5.874702880859375,2.401238134664297,1.1561405317235738,0.25689729745201767
1761338295817768700,5.884768798828125,2.6913258271217346,0.8070058262094855,0.08560439978837966
1761338295827833900,5.894833740234375,2.8256185622334478,0.4938571377687156,0.09878300291378982
1761338295837900000,5.904900146484375,2.8065444439291953,0.13734525455012916,0.23453882371485232
1761338295847966000,5.914966064453125,2.618772047564387,-0.08260308081423863,0.41013760187886655
1761338295858030800,5.92503076171875,2.2545897758483884,-0.09940788421332836,0.5533254084447399
1761338295868096800,5.9350966796875,1.6729221065491438,-0.016630378413945435,0.7576063469421118
1761338295878162000,5.945161865234375,0.9298562530696391,0.018722747583314776,1.1208223309092222
1761338295888228600,5.955228515625,0.11814064173400401,0.07786039806548506,1.4109262438490986
1761338295898294800,5.965294677734375,-0.7239689388215541,0.18810031314492223,1.4270079023391007
1761338295908359700,5.975359619140625,-1.312370884811878,0.2300366534573957,1.3891656629398463
1761338295918425900,5.98542578125,-1.5298545288294554,0.16554587844423949,1.376321963457763
1761338295928490800,5.99549072265625,-1.4098118528664112,0.04790419920831918,1.344678578698635
1761338295938556700,6.005556640625,-0.9821423206239939,0.10402199041265994,1.3623352314203976
1761338295948622600,6.01562255859375,-0.6004647242277861,0.21946031438540667,1.3874182347506283
1761338295958687700,6.025687744140625,-0.2970850039988756,0.26451573656648397,1.3869734135925769
1761338295968754000,6.03575390625,0.026988544690608976,0.17297102347631008,1.2066369393821805
1761338295978819800,6.04581982421875,0.3405377767562866,-0.061423277201317246,0.8195661787055433
1761338295988884700,6.055884765625,0.5885802251666784,-0.37772885877043005,0.32824498915523287
1761338295998950700,6.06595068359375,0.8437626084595918,-0.6554767096146941,-0.12567732084915043
1761338296009015800,6.076015869140625,1.1147650766968726,-0.8527103234164416,-0.5493984442593529
1761338296019081700,6.086081787109375,1.2898603623181581,-0.9290870222628116,-0.9707016198076307
1761338296029147600,6.096147705078125,1.3836451459527015,-0.9152697285082191,-1.3226188687123357
1761338296039212800,6.106212890625,1.3458400236934422,-0.938666751512885,-1.5045881317563354
1761338296049278700,6.11627880859375,1.157075693681836,-0.9125145845811814,-1.6112746286705135
1761338296059345000,6.126344970703125,0.8468594054311513,-0.9281334478650242,-1.7999018882989883
1761338296069409800,6.136409912109375,0.48611236886084075,-1.0550044354781507,-2.048511030681431
1761338296079475700,6.146475830078125,0.21341420262157915,-1.2178530376624315,-2.306638819776475
1761338296089540600,6.15654052734375,0.14490765262842178,-1.4068356135345994,-2.4997026005476712
1761338296099606800,6.166606689453125,0.16212416036725044,-1.61433986146003,-2.5875340287357567
1761338296109672700,6.176672607421875,0.170133279299736,-1.7704247416630385,-2.5389889012753963
1761338296119737600,6.186737548828125,0.11959785480499267,-1.7972414369180798,-2.268772614979744
1761338296129803800,6.1968037109375,-0.11378361556828022,-1.6880404729649423,-1.865472823231667
1761338296139869700,6.20686962890625,-0.4730839604616165,-1.4801614003777503,-1.3988104202501475
1761338296149934800,6.216934814453125,-0.722947194558382,-1.2765198192298413,-1.0098789802681654
1761338296160000800,6.227000732421875,-0.8899030128657818,-1.016940516152233,-0.6766100254710763
1761338296170065700,6.237065673828125,-0.9632540802806615,-0.7755485386069864,-0.37107955694906414
1761338296180131600,6.247131591796875,-1.1004027893453836,-0.5582642165537923,-0.23641320275198666
1761338296190197800,6.25719775390625,-1.3415309283226728,-0.3419155679155141,-0.15994729125220328
1761338296200263000,6.267262939453125,-1.5521020164728163,-0.27199761675447226,-0.05310808799434453
1761338296210328800,6.277328857421875,-1.5861661986380815,-0.3354471025537699,-0.0479947270359844
1761338296220394800,6.287394775390625,-1.381536775496602,-0.20461627139896152,-0.11105024508163332
1761338296230459600,6.297459716796875,-0.864230811470747,-0.15566899287849664,-0.2636770024537109
1761338296240525800,6.30752587890625,-0.20276772092282772,0.2596103558029979,-0.38594909970294683
1761338296250590700,6.3175908203125,0.19048399341106415,0.8252860176570713,-0.29902035597562787
1761338296260657000,6.327656982421875,0.23495909495353698,0.9097612672850489,-0.04258666201394517
1761338296270722600,6.33772265625,0.19301906484663486,0.8973705722674727,0.26195772264674305
1761338296280787700,6.34778759765625,0.06621054801046848,0.897941504023224,0.460082513134554
1761338296290853600,6.357853515625,-0.22980068927705286,0.7122478136286139,0.5614665927916764
1761338296300918800,6.367918701171875,-0.7949749044150114,0.2559847491843626,0.5755651511730626
1761338296310985000,6.37798486328125,-1.376717392516136,0.028610373738780615,0.4528400311930105
1761338296321050600,6.388050537109375,-1.8446984768807886,0.07574943379350006,0.4143155451506376
1761338296331115800,6.39811572265625,-2.145866366279125,0.12574859598707408,0.5708498861541971
1761338296341181700,6.408181640625,-2.2198311816781757,0.19113493160046635,0.8427974166892468
1761338296351248000,6.418247802734375,-2.1151135006189343,0.294326097212173,1.1233403050795197
1761338296361312500,6.4283125,-1.8920459189891814,0.4187978051312268,1.2123675919886678
1761338296371378700,6.438378662109375,-1.5659458329081535,0.48929607693087307,1.131324435701221
1761338296381444600,6.448444580078125,-1.1802759520053863,0.5411283728357404,1.1113561450362204
1761338296391509800,6.458509765625,-0.7014291902333497,0.5332497118825092,1.2066126086585223
1761338296401575700,6.46857568359375,-0.30627135001718997,0.5102427111087366,1.3126698677584527
1761338296411640600,6.478640625,0.00018470891714096068,0.510685413374938,1.391978674533963
1761338296421706800,6.488706787109375,0.46763855453729625,0.42083190477471794,1.466403800921142
1761338296431772700,6.498772705078125,1.0392343271553515,0.17040139218401162,1.411292739073932
1761338296441837800,6.508837890625,1.5967887149393558,0.07504984328993596,1.2498884174138307
1761338296451903700,6.51890380859375,2.032535755175352,-0.10598442219258286,1.0789439678616821
1761338296461968600,6.52896875,2.4125854581087824,-0.3334749987632036,0.917421572779864
1761338296472034800,6.539034912109375,2.6516777073442936,-0.41297925504557786,0.7447689310703426
1761338296482100700,6.549100830078125,2.6038065336227416,-0.39903274542074646,0.6136952310703695
1761338296492166000,6.559165771484375,2.364820667371154,-0.36862799907848237,0.5362991991136222
1761338296502231800,6.569231689453125,1.9621096352964638,-0.2941316158196889,0.5622518248852342
1761338296512297700,6.579297607421875,1.522186186158657,-0.3114388888482004,0.654123322244361
1761338296522362600,6.589362548828125,1.0783920330673455,-0.43827568193078037,0.7036069726638495
1761338296532428800,6.5994287109375,0.594019201350212,-0.5722000951867551,0.6997758700683713
1761338296542493700,6.60949365234375,0.09973930812478064,-0.6668385730411857,0.6358442998405546
1761338296552559900,6.619559814453125,-0.3378922306835651,-0.7282647363193333,0.4919216396614909
1761338296562625500,6.62962548828125,-0.6192196935802697,-0.7184644231211393,0.2954150980252772
1761338296572690700,6.639690673828125,-0.7329746675759553,-0.6826468944825231,0.22987331612184642
1761338296582756900,6.6497568359375,-0.698588413849473,-0.6369193817261606,0.3023495003983378
1761338296592822800,6.65982275390625,-0.5854156236559153,-0.4541206090554595,0.5292682775635272
1761338296602887700,6.6698876953125,-0.42438101209104057,-0.17698897214708847,0.7529903775792568
1761338296612953600,6.67995361328125,-0.2644581611603498,0.030983838571584783,0.9648089085072279
1761338296623018800,6.690018798828125,-0.08822714950740337,0.16283747800206766,1.1712092868439852
1761338296633084700,6.700084716796875,0.059632338663935656,0.2428633287394419,1.3003773724183438
1761338296643150800,6.71015087890625,0.028001521125435826,0.29542328133173285,1.2793968359708785
1761338296653215700,6.7202158203125,-0.03072714669704437,0.26206319231521336,1.287088413386792
1761338296663281700,6.73028173828125,-0.03874386441409588,0.16822704381961376,1.2837911254070697
1761338296673347600,6.74034765625,0.01522095000743866,0.06628051710729486,1.197468202085793
1761338296683412700,6.750412841796875,0.12710603847801685,-0.05746166182765737,1.0676638644345104
1761338296693479000,6.76047900390625,0.2659253111034632,-0.1632435745849274,0.9794286046858877
1761338296703543600,6.77054345703125,0.3815501706242561,-0.2520361576890573,0.9497493596065789
1761338296713609700,6.780609619140625,0.4512544059693813,-0.2888198279460892,0.8959285567656159
1761338296723675600,6.790675537109375,0.3793862705886364,-0.3133342741407454,0.8850052308868617
1761338296733740800,6.80074072265625,0.28072657439410686,-0.3688152652788907,0.9162631965249777
1761338296743806700,6.810806640625,0.216793908187747,-0.4559370108276605,0.9370108740646391
1761338296753872600,6.82087255859375,0.25427111366689203,-0.5411741116736084,0.923312238253653
1761338296763937800,6.830937744140625,0.361484703195095,-0.5881403724446892,0.9013875528238713
1761338296774003700,6.841003662109375,0.5137433031082153,-0.5550792298421263,0.869835207349062
1761338296784068900,6.85106884765625,0.6862456496268511,-0.44062180666550993,0.9555966973952948
1761338296794134800,6.861134765625,0.6817325561165809,-0.2556737835390493,1.033305667758733
1761338296804200700,6.87120068359375,0.6482797838479281,-0.1098599758511409,0.9549326805286109
1761338296814265600,6.881265625,0.6811714151024818,-0.1459858763191849,0.8445783087566494
1761338296824331800,6.891331787109375,0.672021309441328,-0.24537805150672792,0.6314411695107818
1761338296834397000,6.90139697265625,0.5110726225942372,-0.41726606551930306,0.3692243575364351
1761338296844462600,6.911462646484375,0.11578151138722896,-0.5629639186773449,0.2191467549242079
1761338296854528800,6.92152880859375,-0.4552583809137344,-0.5991412205390632,0.2577265878830105
1761338296864593700,6.93159375,-1.1104951442927122,-0.6676934363048523,0.3498383237387985
1761338296874659800,6.941659912109375,-1.6426216608315705,-0.7463860108781606,0.41527233441881833
1761338296884725800,6.951725830078125,-1.96994982740283,-0.7207111060693859,0.3781706111885607
1761338296894790100,6.9617900390625,-2.1018477763324976,-0.6001816329700872,0.17638393719233572
1761338296904856300,6.971856201171875,-2.0869798775464297,-0.39943358130659906,-0.1382001178137958
1761338296914922200,6.981922119140625,-2.0135995840370655,-0.38745807949379085,-0.32882315436936915
1761338296924987400,6.9919873046875,-1.92871473069489,-0.5410376988776028,-0.3038797787055373
1761338296935053300,7.00205322265625,-1.9145587795704602,-0.752013422305882,-0.19026874322518705
1761338296945118200,7.0121181640625,-2.0072417394429443,-0.7685188591659069,-0.05087247442938387
1761338296955184000,7.02218408203125,-2.4022137016981837,-0.5585726249158383,0.13620952851846813
1761338296965250300,7.032250244140625,-2.9792805992037055,-0.0531781210232526,0.6567367926783859
1761338296975315500,7.0423154296875,-3.437985321179032,0.6231666045751423,1.327854577408731
1761338296985381000,7.052381103515625,-3.7276696935325857,1.0885882137153298,1.7880460308104753
1761338296995446300,7.0624462890625,-3.740380122023821,1.2856126417458056,2.0218306751571595
1761338297005512200,7.07251220703125,-3.3421400978833433,1.3673577357575297,1.935836837659776
1761338297015578400,7.082578369140625,-2.6062112566769122,1.352552965335548,1.551158159751445
1761338297025643300,7.092643310546875,-1.7766069374293088,1.2473498388469217,1.258736179127544
1761338297035709200,7.102709228515625,-1.010085389560461,1.1982567951802163,1.145955603121966
1761338297045775000,7.112775146484375,-0.2823158894121647,1.3663866987682878,1.1486476917501538
1761338297055840300,7.12284033203125,0.5353396333664655,1.5319672831997275,1.1133074982997029
1761338297065906200,7.13290625,1.4182166931182145,1.4826400654509662,0.9925234293848275
1761338297075971000,7.14297119140625,2.1805700153917074,1.2555654401369392,0.7521647404100745
1761338297086037200,7.153037353515625,2.7662802380800247,1.0661249644294382,0.47588509895484893
1761338297096103200,7.163103271484375,3.132262252694368,0.9043236793410032,0.29607969941385087
1761338297106168300,7.173168212890625,3.1994284939944744,0.7466079100005328,0.20787640570607036
1761338297116234200,7.183234130859375,3.022624066367745,0.5360042347550392,0.11736099913101643
1761338297126300400,7.193300537109375,2.824393404352665,0.2204294151458889,0.04685195020902901
1761338297136365000,7.203364990234375,2.4656845956116915,-0.12644056030660866,-0.02010576290693134
1761338297146431200,7.21343115234375,2.0329583645015954,-0.40320688930023457,-0.10087463229764253
1761338297156496400,7.223496337890625,1.4958341858059168,-0.468296251261048,-0.14711623205598442
1761338297166562300,7.233562255859375,0.8956512011289596,-0.32799156238343563,-0.08298712996207178
1761338297176628200,7.243628173828125,0.27842297362685203,-0.09100118079800158,0.20476167121902106
1761338297186693000,7.253693115234375,-0.33562662383913994,0.17710914619434623,0.5048095070788636
1761338297196759300,7.26375927734375,-0.9312567675173282,0.2331953732166439,0.8140711614858359
1761338297206825200,7.2738251953125,-1.3627929120600222,0.28232045598942784,1.064595197578892
1761338297216890400,7.283890380859375,-1.5047498981893062,0.47926820205450055,1.1716852337926627
1761338297226956000,7.2939560546875,-1.4142179788708686,0.7458043385326862,1.1762094332188366
1761338297237021200,7.304021240234375,-1.0335440065592527,0.7181604717385024,1.143047460590303
1761338297247087400,7.31408740234375,-0.4967734636068344,0.4838750747954473,1.0847367259189487
1761338297257153300,7.3241533203125,-0.0395312153995037,0.3148848280509934,0.9567413373857736
1761338297267218400,7.334218505859375,0.40055823795497414,0.22006171434465793,0.6830003840953112
1761338297277284000,7.3442841796875,0.8536170629978179,0.10516999140400439,0.3211971895355731
1761338297287350300,7.354350341796875,1.3411059809088706,-0.09917940921969712,-0.10946728673912584
1761338297297415200,7.364415283203125,1.7704127589643,-0.26403237349633124,-0.6466695721723139
1761338297307481300,7.3744814453125,2.0108143372327087,-0.48193011474013325,-1.2155792475115508
1761338297317546200,7.384546142578125,2.106544994238019,-0.7570958401367068,-1.757460338410735
1761338297327612200,7.394612060546875,2.0383903264224528,-0.9349273457888513,-2.2591604447647926
1761338297337678000,7.404677978515625,1.75532507994771,-0.8824358187902718,-2.544885850359499
1761338297347743200,7.4147431640625,1.3435878608524798,-0.6785463272958994,-2.580640469829738
1761338297357809400,7.424809326171875,0.8972206424027681,-0.5360123815288766,-2.459090019652247
1761338297367875300,7.434875244140625,0.4439835381835699,-0.4605266401728615,-2.3529059193022546
1761338297377940200,7.444940185546875,0.013658522996306419,-0.4534085517959669,-2.3183991079360244
1761338297388006100,7.455006103515625,-0.27897359324693677,-0.551561759773083,-2.294451830637455
1761338297398071300,7.4650712890625,-0.42992520221471786,-0.673332026713714,-2.222392118207365
1761338297408137200,7.47513720703125,-0.48004444712400435,-0.6311555575024336,-2.0542782159060238
1761338297418203400,7.485203369140625,-0.46940322612226004,-0.5339336390260606,-1.8424292167745528
1761338297428268300,7.495268310546875,-0.45218028864264487,-0.4568088982913643,-1.6132143645614385
1761338297438334200,7.505334228515625,-0.3901514102309942,-0.4095237808294594,-1.3786436844035983
1761338297448399400,7.5153994140625,-0.3428542370051145,-0.45751507379934186,-1.1868921552747487
1761338297458465300,7.52546533203125,-0.32094284944832324,-0.5436676089897752,-0.9946079805739223
1761338297468531200,7.53553125,-0.2112555632829666,-0.618342253158614,-0.8593355867750943
1761338297478596000,7.54559619140625,-0.09663082071542739,-0.6304481398854405,-0.7605684846833348
1761338297488662300,7.555662353515625,-0.2486608725696802,-0.5956151653047651,-0.8027286603469401
1761338297498728200,7.565728271484375,-0.5508008218705653,-0.5559138540353625,-0.9797815828420221
1761338297508793300,7.57579345703125,-0.7903425684392452,-0.5976927022311836,-1.1742612948257476
1761338297518859300,7.585859375,-0.9130465725660324,-0.6413860057462006,-1.4024804870650172
1761338297528925200,7.59592529296875,-0.8667115223705768,-0.5033345026228576,-1.498283186393231
1761338297538990300,7.605990234375,-0.7198878069877624,-0.18533464782387016,-1.2981664183706045
1761338297549056300,7.61605615234375,-0.6650719286948442,0.27422121108807623,-0.7394236975848675
1761338297559121200,7.62612109375,-0.5710755481362343,0.49271713742073625,-0.11769914504420012
1761338297569187000,7.63618701171875,-0.31332243757247924,0.4613463955905288,0.4483278875308111
1761338297579253200,7.646253173828125,-0.018950784185528754,0.5229891972940415,0.8791095239117741
1761338297589318400,7.656318359375,0.20093056862354278,0.45732309489119793,1.188157937426865
1761338297599384300,7.66638427734375,0.3139560593008995,0.1797572495503351,1.4357333528473972
1761338297609449200,7.67644921875,0.32853169714212416,-0.16719368218388408,1.4385522096604109
1761338297619515100,7.68651513671875,0.2336468433111906,-0.23511750038564203,1.3875493137843906
1761338297629581300,7.696581298828125,-0.08455459847450256,0.09237056945506483,1.4228154190853237
1761338297639646200,7.706646240234375,-0.428649190929532,0.5031366419631987,1.6551134781360626
1761338297649712400,7.71671240234375,-0.5874450836569071,0.7793237462967634,1.9446999430730938
1761338297659778300,7.7267783203125,-0.6301467457860708,0.8995172289073466,2.115131766927987
1761338297669843200,7.73684326171875,-0.8253951771199702,0.9062015289768576,2.0843539129570123
1761338297679909000,7.7469091796875,-1.138653317284584,0.8903157583851367,1.9922807555459439
1761338297689974300,7.756974365234375,-1.4573159468412398,0.9877765271186828,1.9587186776839196
1761338297700040400,7.76704052734375,-1.6899983290344476,1.0477907047070563,2.05875667649433
1761338297710106000,7.777106201171875,-1.7850906881362198,1.0407836754892021,2.3758016417212784
1761338297720171300,7.787171142578125,-1.693328350239992,1.0975605516567826,2.514988432484865
1761338297730237200,7.7972373046875,-1.2520277675300835,1.226772914764285,2.385521948485821
1761338297740303400,7.807303466796875,-0.567407673278451,1.2529285157620906,2.1158276402376592
1761338297750368300,7.8173681640625,0.22617489999532697,1.0895890613209456,1.7719212638311086
1761338297760434200,7.82743408203125,0.9426502681910991,0.9038402797382324,1.4407355450488626
1761338297770499300,7.837499267578125,1.5333563994705677,0.7498245339594781,1.034056339995563
1761338297780565200,7.847565185546875,1.9447604410886763,0.5159456354580819,0.6438328874416649
1761338297790631200,7.857631103515625,2.144168914711475,0.1819890271903947,0.35164734592214225
1761338297800696000,7.867696044921875,2.055474732214212,-0.15361710184998809,0.17048808408677577
1761338297810762200,7.87776220703125,1.597392526051402,-0.5570950997091829,0.022418021904677152
1761338297820828200,7.887828125,0.9266782075554132,-0.46597091358602044,-0.13169000526741145
1761338297830893300,7.897893310546875,0.15905775853395462,-0.293962195803225,-0.02360211712270975
1761338297840959200,7.907959228515625,-0.6377519600927829,-0.48921917576976115,0.11664806508868932
1761338297851024100,7.918024169921875,-1.2373317181795835,-0.30927754609584807,0.15526435760036109
1761338297861090300,7.92809033203125,-1.5237608881294726,-0.20663776728920638,0.32751988975107665
1761338297871156200,7.93815625,-1.407383748936653,-0.1265684244699776,0.5977060731694102
1761338297881221400,7.948221435546875,-0.9911544791191815,-0.05366035158224403,0.8729143225334585
1761338297891287300,7.958287353515625,-0.5265957704186439,-0.10226882660239935,0.9985381596297025
1761338297901353500,7.968353515625,0.0022474866658449173,-0.08528415485806763,1.113011876353994
1761338297911418400,7.97841845703125,0.46238604083657264,-0.17524265820272267,1.2153270993813872
1761338297921484500,7.988484619140625,0.7179314122229814,-0.24067082366384565,1.2640455375820399
1761338297931549200,7.998549072265625,0.9651882632136344,-0.3172476481921971,1.366819975619018
1761338297941614300,8.0086142578125,0.9740227270543574,-0.29183855471275744,1.3026163835167883
1761338297951680500,8.018680419921875,1.2865870397359132,-0.40143472852855916,1.4081892201006412
1761338297961746400,8.028746337890626,1.5641905136734247,-0.48578620564639563,1.4116748702593147
1761338297971811300,8.038811279296874,1.6664058565229176,-0.5151056775026023,1.3508331558056175
1761338297981877200,8.048877197265625,1.512564371332526,-0.41595622502975166,1.3428952024132013
1761338297991943400,8.058943359375,1.351797470793128,-0.32265440260656175,1.3855509795740246
1761338298002008300,8.06900830078125,1.2319570394039154,-0.24866569487527013,1.3588216703414917
1761338298012074500,8.079074462890626,1.0359656807482243,-0.30718123140372333,1.2566606880277396
1761338298022139400,8.089139404296875,0.8059785289883613,-0.4028486139144748,1.033745812741667
1761338298032205300,8.099205322265625,0.5425292526096105,-0.6650143532887101,0.6868681654393672
1761338298042271500,8.109271484375,0.28333997176289555,-0.9497402995172888,0.267626927389577
1761338298052336400,8.11933642578125,0.033251696738600726,-1.096724831485003,-0.1903204003471881
1761338298062402600,8.129402587890626,-0.2706844883292913,-1.0888760176807641,-0.5556080029565841
1761338298072468200,8.13946826171875,-0.7529045259267091,-0.9737547237679361,-0.7599459688708186
1761338298082533400,8.149533447265625,-1.0437567730158568,-0.9377667339332402,-0.8540899412065744
1761338298092599300,8.159599365234374,-1.0949480310708284,-1.1329901769563555,-0.9391383145473897
1761338298102664400,8.16966455078125,-1.0722089605182408,-1.3599964132092892,-1.0702283080950379
1761338298112730400,8.17973046875,-1.0824638125509023,-1.4949503887087106,-1.2633813745848834
1761338298122796300,8.18979638671875,-1.1805687974721193,-1.4296087324872613,-1.3465779825791715
1761338298132861400,8.199861328125,-1.4018553409039973,-1.163062366876006,-1.179089518699795
1761338298142927400,8.20992724609375,-1.6894313428014516,-0.8910396156802773,-0.8458449676916002
1761338298152993500,8.21999365234375,-1.9464198987334966,-0.6728641900062561,-0.441740216236189
1761338298163058200,8.23005810546875,-2.18815477143228,-0.588244271210581,-0.13099639698006213
1761338298173124400,8.240124267578125,-2.3066443727344272,-0.5239613302618265,0.016958149063587186
1761338298183189500,8.250189453125,-2.2458242855906487,-0.5591784818544984,0.003909720789641142
1761338298193255400,8.26025537109375,-2.0665175197541714,-0.4026683619767427,-0.18765819540061054
1761338298203321300,8.2703212890625,-1.7760329369336365,-0.2013188372887671,-0.31713330109752713
1761338298213386200,8.28038623046875,-1.3526456120550632,-0.23317469575479624,0.06832651725113391
1761338298223452400,8.290452392578125,-1.1130945131361485,-0.2482970076933503,0.5124645153440535
1761338298233518300,8.300518310546876,-1.276346800750494,-0.08543561909273266,0.6593870879914612
1761338298243583500,8.31058349609375,-1.682774222999811,0.13151844809278845,0.7407673672787844
1761338298253649400,8.3206494140625,-2.0747586938768623,0.37878786630406974,1.027185942769423
1761338298263714300,8.33071435546875,-2.25893277348876,0.5838932363942265,1.4116189022883772
1761338298273780200,8.3407802734375,-2.3474907623857257,0.7977882082700729,1.7407495882369577
1761338298283846400,8.350846435546876,-2.469515552076697,1.132133998518437,1.9157418518751859
1761338298293911600,8.36091162109375,-2.4754104553341865,1.3252411800399422,1.9453902634248137
1761338298303977200,8.370977294921875,-2.126067440831661,1.0556306045524775,1.73895452151373
1761338298314042400,8.38104248046875,-1.5166180306375026,1.2291907895609735,1.4675745982661843
1761338298324108300,8.3911083984375,-0.8610311386466026,1.3352433724857866,1.37077499685511
1761338298334174500,8.401174560546876,0.3981915088236332,1.235831250488758,1.0163831745304166
1761338298344240400,8.411240478515625,0.9138730865180492,1.2813628753468393,0.6095215986475349
1761338298354306600,8.421306640625,1.4244868594288824,1.363457221187651,0.2502415658898651
1761338298364371200,8.43137109375,1.851374885904789,1.3479466405838727,0.01561696358770132
1761338298374437400,8.441437255859375,2.1767034030914307,1.2569719459339976,-0.17593999281711875
1761338298384502500,8.45150244140625,2.4581653060227633,1.1627724440187215,-0.3448157463364303
1761338298394568400,8.461568359375,2.6565280699849128,0.9913444487333297,-0.511772222230956
1761338298404634400,8.47163427734375,2.695338569894433,0.8893041701897978,-0.6354641414165496
1761338298414699300,8.48169921875,2.5309651692956683,0.8548059074562042,-0.6471027028925717
1761338298424765400,8.491765380859375,1.976442112031579,0.7166043283376843,-0.5228163249451667
1761338298434831400,8.501831298828124,1.1476847650021313,0.7203993367064744,-0.289880260251835
1761338298444896500,8.511896484375,0.2841097870916128,0.9655733900737017,0.008469576051086187
1761338298454962200,8.521962158203126,-0.3842997615933418,1.175891745571792,0.4337796126205474
1761338298465027300,8.53202734375,-0.8993284283369779,1.2958173710264265,0.8363570814434439
1761338298475093200,8.54209326171875,-1.1991437340825795,1.379503516103327,1.0921605192441493
1761338298485159400,8.552159423828124,-1.1596464209526776,1.4255489357024431,1.2293179230719804
1761338298495224600,8.562224609375,-1.0097042812883854,1.5073042588472365,1.414186268558353
1761338298505290200,8.572290283203126,-0.8846762181282043,1.4642359553627669,1.6266246118851004
1761338298515356400,8.5823564453125,-0.6489777029842138,1.371651925820112,1.6067948529079557
1761338298525421300,8.59242138671875,-0.1939279963850975,1.3001809730634093,1.4000775175765157
1761338298535487500,8.602487548828124,0.3547387360662222,1.1521128836426884,1.2851055690065025
1761338298545553400,8.612553466796875,0.8283207091778516,0.9045616528153418,1.2212236831393093
1761338298555618300,8.622618408203126,1.1700403891950846,0.6121154510656371,1.0151762829586863
1761338298565684200,8.632684326171875,1.2738953159451485,0.4067504801912233,0.6894258870981633
1761338298575749400,8.642749267578125,1.2467296611219645,0.3530243698963895,0.28641236494556066
1761338298585815600,8.652815673828124,1.1997177345782517,0.2834765672219917,-0.12250753170661627
1761338298595881500,8.662881591796875,1.1690309198915958,0.10157414060281589,-0.4310449269596487
1761338298605946400,8.6729462890625,1.136890983787179,-0.15771310245934872,-0.6867213043145834
1761338298616012300,8.68301220703125,1.0635445925474167,-0.35419717653542754,-0.9648330931004137
1761338298626078500,8.693078369140625,0.8546616036146879,-0.3626084465280175,-1.2463415385872125
1761338298636143400,8.703143310546874,0.5562339528352022,-0.3365593381119892,-1.2730527276411652
1761338298646209500,8.71320947265625,0.14873568648397922,-0.30473723578508943,-1.0582899599548428
1761338298656274400,8.7232744140625,-0.22109774286150932,-0.1728125815115869,-0.8361522795863449
1761338298666340400,8.73334033203125,-0.3896107274830341,0.03763276136703789,-0.6891096607558429
1761338298676406300,8.74340625,-0.30978724918365474,0.098623127043806,-0.5250030213344842
1761338298686471400,8.753471435546874,-0.16596797631382942,-0.07207483693398535,-0.40089448417201634
1761338298696537300,8.763537353515625,-0.07764087356328964,-0.15718801913931965,-0.3748191818688065
1761338298706603300,8.773603271484374,-0.16487316681444644,-0.10333473880086093,-0.2930522413514554
1761338298716668400,8.78366845703125,-0.5233282930552959,0.005012530932389199,-0.11492062024157494
1761338298726734300,8.793734375,-1.0904770231366157,0.13627981727570296,0.021694968327134845
1761338298736799500,8.803799560546874,-1.3108850301682948,0.22999701556675134,0.12148980603143572
1761338298746865200,8.813865234375,-1.2712690590947866,-0.046193742028623815,0.15972000356866045
1761338298756931300,8.823931396484374,-0.669544690194726,-0.6991106841579079,0.02105168372122571
1761338298766996500,8.83399658203125,0.10400982505083084,-0.6445579137805849,0.3013103118100203
1761338298777062400,8.8440625,0.34637013617157936,-0.34345706173647195,0.7406603267077356
1761338298787128600,8.854128662109375,0.3013666268408298,-0.34840321290176357,0.6611397038124501
1761338298797193200,8.864193115234375,0.4411977068573236,-0.40055531534552574,0.20097360404767095
1761338298807259400,8.87425927734375,0.37598084605932236,-0.5699792042668909,-0.012428981201350688
1761338298817324300,8.88432421875,-0.024988310784101485,-0.9016392625626176,-0.06640208852719515
1761338298827390500,8.894390380859376,-0.26702888843119144,-1.1366832593206315,-0.3294702566338703
1761338298837456400,8.904456298828125,-0.2740150940567255,-1.4522471191443502,-0.752800846356526
1761338298847521300,8.914521240234375,-0.1321224053353071,-1.437941238155216,-1.1678459478907286
