time,seconds_elapsed,z,y,x
1761338290009905200,0.0769052734375,0.35963332653045654,-0.2437629997730255,-0.561474621295929
1761338290019970000,0.086969970703125,0.2894952595233917,-0.17914433777332306,-0.6047734022140503
1761338290030036000,0.097035888671875,0.2259669303894043,-0.08305174857378006,-0.5901870727539062
1761338290040102000,0.107101806640625,0.17793682217597961,0.0012074736878275871,-0.5312377214431763
1761338290050167000,0.1171669921875,0.14249081909656525,0.021736890077590942,-0.4277471601963043
1761338290060233200,0.127233154296875,0.12729641795158386,0.05378803610801697,-0.2673702538013458
1761338290070297900,0.1372978515625,0.12926198542118073,0.07971543073654175,-0.09441380202770233
1761338290080364000,0.147364013671875,0.14677971601486206,0.06937463581562042,0.05092954263091087
1761338290090430000,0.157429931640625,0.1916932761669159,0.05824652686715126,0.14056208729743958
1761338290100495000,0.1674951171875,0.24524545669555664,0.04102626070380211,0.1832467019557953
1761338290110561000,0.17756103515625,0.29763710498809814,0.008451775647699833,0.17784333229064941
1761338290120626000,0.1876259765625,0.3536977171897888,-0.0391857847571373,0.13403567671775818
1761338290130692000,0.197692138671875,0.40898025035858154,-0.10031729936599731,0.0450928658246994
1761338290140758000,0.207758056640625,0.46934080123901367,-0.14403095841407776,-0.06400112807750702
1761338290150823200,0.2178232421875,0.525138795375824,-0.17847205698490143,-0.15014663338661194
1761338290160889000,0.22788916015625,0.5480326414108276,-0.24265263974666595,-0.19272498786449432
1761338290170955000,0.237955078125,0.5423280000686646,-0.3439745604991913,-0.1697835475206375
1761338290181020000,0.24802001953125,0.5164799094200134,-0.4486847221851349,-0.10133606195449829
1761338290191086000,0.258086181640625,0.48277294635772705,-0.5522024631500244,-0.01962590031325817
1761338290201151200,0.268151123046875,0.44991326332092285,-0.630829930305481,0.055594552308321
1761338290211217000,0.278216796875,0.43067649006843567,-0.6828112602233887,0.11403785645961761
1761338290221283000,0.288282958984375,0.436178058385849,-0.714535117149353,0.15179242193698883
1761338290231348000,0.298347900390625,0.45315855741500854,-0.6944954991340637,0.1735108494758606
1761338290241414100,0.3084140625,0.47024327516555786,-0.6622923016548157,0.17848029732704163
1761338290251480000,0.31847998046875,0.4540936350822449,-0.6426464319229126,0.16076788306236267
1761338290261545000,0.328544921875,0.4066888093948364,-0.6949655413627625,0.09134698659181595
1761338290271611000,0.33861083984375,0.31165242195129395,-0.7604566812515259,-0.013078070245683193
1761338290281676000,0.348676025390625,0.1881677657365799,-0.7375436425209045,-0.1297042816877365
1761338290291742200,0.3587421875,0.04159164801239967,-0.6195876598358154,-0.24101722240447998
1761338290301808000,0.36880810546875,-0.10612830519676208,-0.38936346769332886,-0.3207882046699524
1761338290311873000,0.378873046875,-0.22404874861240387,-0.11347874999046326,-0.3305679261684418
1761338290321939000,0.38893896484375,-0.3022894859313965,0.1553013175725937,-0.24706773459911346
1761338290332005000,0.399005126953125,-0.3318743109703064,0.36050891876220703,-0.09315161406993866
1761338290342070000,0.409070068359375,-0.3063593804836273,0.5259370803833008,0.09291785955429077
1761338290352136200,0.41913623046875,-0.22767160832881927,0.598010241985321,0.27268746495246887
1761338290362201000,0.429201171875,-0.11730516701936722,0.6041080951690674,0.416925847530365
1761338290372267000,0.43926708984375,0.01859920099377632,0.5563586354255676,0.5240573287010193
1761338290382333000,0.4493330078125,0.1479492038488388,0.46574753522872925,0.6143049001693726
1761338290392398000,0.459398193359375,0.2847317159175873,0.3517063856124878,0.6834028363227844
1761338290402464300,0.46946435546875,0.4759165942668915,-0.02426273189485073,0.6956294178962708
1761338290412529000,0.47952880859375,0.47388583421707153,0.08516329526901245,0.7054417133331299
1761338290422595000,0.489594970703125,0.6118138432502747,0.06148965656757355,0.7531431913375854
1761338290432661000,0.499660888671875,0.7018168568611145,-0.09563416242599487,0.7438533306121826
1761338290442726100,0.50972607421875,0.7054837942123413,-0.12237336486577988,0.7521371245384216
1761338290452791800,0.519791748046875,0.69536292552948,-0.14267583191394806,0.7574304342269897
1761338290462858000,0.52985791015625,0.6520059108734131,-0.2245027869939804,0.7111161947250366
1761338290472923100,0.539923095703125,0.5532134771347046,-0.28715696930885315,0.5965521931648254
1761338290482989000,0.549989013671875,0.4110984206199646,-0.3230361342430115,0.44316181540489197
1761338290493054200,0.56005419921875,0.231596902012825,-0.38761258125305176,0.2672378420829773
1761338290503120000,0.570119873046875,0.03848763182759285,-0.47175008058547974,0.0711924284696579
1761338290513186000,0.58018603515625,-0.1301536113023758,-0.5076277256011963,-0.14741018414497375
1761338290523251000,0.5902509765625,-0.2446703463792801,-0.4407767653465271,-0.3500911295413971
1761338290533317000,0.600317138671875,-0.2785399854183197,-0.224122554063797,-0.5114327669143677
1761338290543383000,0.610383056640625,-0.245099738240242,0.08260223269462585,-0.6031084060668945
1761338290553448000,0.620447998046875,-0.16986806690692902,0.369028240442276,-0.6228780746459961
1761338290563514000,0.63051416015625,-0.08959320932626724,0.5226777195930481,-0.5829096436500549
1761338290573579000,0.6405791015625,0.0070508671924471855,0.5896878838539124,-0.44845470786094666
1761338290583645200,0.650645263671875,0.08570706099271774,0.6071901917457581,-0.2617996037006378
1761338290593711000,0.660711181640625,0.12445062398910522,0.540392279624939,-0.06414421647787094
1761338290603776000,0.67077587890625,0.14869417250156403,0.42957597970962524,0.10698997974395752
1761338290613842000,0.680842041015625,0.19742712378501892,0.31846314668655396,0.21442319452762604
1761338290623908000,0.690908203125,0.2895447909832001,0.2396058887243271,0.24255496263504028
1761338290633973200,0.70097314453125,0.40706145763397217,0.15375526249408722,0.18821783363819122
1761338290644039200,0.7110390625,0.5198862552642822,0.051713306456804276,0.06415073573589325
1761338290654104000,0.72110400390625,0.6115455627441406,-0.022021587938070297,-0.10003600269556046
1761338290664170000,0.731169921875,0.6604803204536438,-0.048599936068058014,-0.2590981125831604
1761338290674236200,0.741236083984375,0.6635839343070984,-0.06490989029407501,-0.3878301680088043
1761338290684301000,0.751301025390625,0.6253241300582886,-0.11999630928039551,-0.4880339801311493
1761338290694367000,0.761366943359375,0.5453581213951111,-0.1974182426929474,-0.5478512048721313
1761338290704433000,0.771432861328125,0.42736122012138367,-0.2914278507232666,-0.5594612956047058
1761338290714498000,0.781498046875,0.302249550819397,-0.3666466772556305,-0.546108603477478
1761338290724564000,0.79156396484375,0.18897013366222382,-0.40861010551452637,-0.5242469906806946
1761338290734629000,0.801629150390625,0.10434307157993317,-0.40682488679885864,-0.5031076073646545
1761338290744695000,0.811695068359375,0.06614375859498978,-0.3379499614238739,-0.47805604338645935
1761338290754761000,0.821760986328125,0.05533020198345184,-0.21221321821212769,-0.47610893845558167
1761338290764826000,0.831826171875,0.07136509567499161,-0.1004113107919693,-0.47699177265167236
1761338290774892000,0.84189208984375,0.09900108724832535,-0.035468731075525284,-0.48817047476768494
1761338290784958200,0.851958251953125,0.12023020535707474,-0.06969807296991348,-0.4884093701839447
1761338290795022800,0.86202294921875,0.12931716442108154,-0.13212719559669495,-0.44531354308128357
1761338290805089000,0.872089111328125,0.12802526354789734,-0.1260538548231125,-0.35500389337539673
1761338290815154200,0.882154296875,0.13797806203365326,-0.05177658423781395,-0.23933272063732147
1761338290825220000,0.89222021484375,0.1637425422668457,0.008597009815275669,-0.12069502472877502
1761338290835286000,0.9022861328125,0.19912001490592957,0.04545767977833748,0.0035725454799830914
1761338290845351000,0.912350830078125,0.21218575537204742,0.05118933692574501,0.11965121328830719
1761338290855417000,0.9224169921875,0.19930706918239594,0.016697941347956657,0.2305333912372589
1761338290865482000,0.93248193359375,0.2020522505044937,-0.006596195045858622,0.373011976480484
1761338290875548200,0.942548095703125,0.24478603899478912,0.014443306252360344,0.5370124578475952
1761338290885614600,0.952614501953125,0.26961416006088257,0.08724774420261383,0.7350480556488037
1761338290895679700,0.9626796875,0.2403310388326645,0.18532906472682953,0.891530454158783
1761338290905745700,0.97274560546875,0.19137467443943024,0.3287259042263031,0.9091046452522278
1761338290915811800,0.982811767578125,0.16306175291538239,0.5577800273895264,0.7996149659156799
1761338290925876700,0.992876708984375,0.18536625802516937,0.7395114302635193,0.6021937727928162
1761338290935942700,1.002942626953125,0.27284812927246094,0.6742590665817261,0.4156990349292755
1761338290946007800,1.0130078125,0.3519940972328186,0.32740652561187744,0.23353426158428192
1761338290956073700,1.02307373046875,0.3635922074317932,-0.1912580132484436,0.06670158356428146
1761338290966140000,1.033139892578125,0.3171812891960144,-0.6465879678726196,-0.04987003654241562
1761338290976204500,1.04320458984375,0.2560242712497711,-0.828263521194458,-0.07606656104326248
1761338290986270700,1.053270751953125,0.1872768998146057,-0.726341187953949,-0.008185508660972118
1761338290996336600,1.063336669921875,0.1433727741241455,-0.3998772203922272,0.12324684113264084
1761338291006401800,1.07340185546875,0.1109146922826767,0.033493366092443466,0.33022984862327576
1761338291016467700,1.0834677734375,0.11285751312971115,0.4428059160709381,0.5914153456687927
1761338291026532600,1.09353271484375,0.17832280695438385,0.7296453714370728,0.8724603056907654
1761338291036598800,1.103598876953125,0.2828146815299988,0.8417666554450989,1.1346490383148193
1761338291046664700,1.113664794921875,0.38790860772132874,0.8255847692489624,1.3375954627990723
1761338291056729900,1.123729736328125,0.48797810077667236,0.7254875302314758,1.463412880897522
1761338291066795800,1.133795654296875,0.5740485191345215,0.5924594402313232,1.4834717512130737
1761338291076860700,1.143860595703125,0.6650722026824951,0.5063155889511108,1.3934515714645386
1761338291086926600,1.153926513671875,0.7328107357025146,0.5125271081924438,1.2139198780059814
1761338291096992800,1.16399267578125,0.7776165008544922,0.5658444762229919,0.9475695490837097
1761338291107058000,1.174057861328125,0.7891905903816223,0.6032792329788208,0.6319040060043335
1761338291117123800,1.184123779296875,0.7784371972084045,0.6238111257553101,0.3107183575630188
1761338291127189800,1.194189697265625,0.7343658804893494,0.6032224893569946,-0.003574846312403679
1761338291137254700,1.204254638671875,0.6573609113693237,0.4937085509300232,-0.2899249792098999
1761338291147320800,1.21432080078125,0.5378491878509521,0.23834599554538727,-0.5139243006706238
1761338291157386800,1.22438671875,0.4154601991176605,-0.09204033762216568,-0.6742809414863586
1761338291167452000,1.234451904296875,0.3144685924053192,-0.38692736625671387,-0.7669645547866821
1761338291177517600,1.244517578125,0.2553628981113434,-0.5978072285652161,-0.8216195106506348
1761338291187582700,1.254582763671875,0.2172306925058365,-0.6942477226257324,-0.8193787336349487
1761338291197648600,1.264648681640625,0.1881147176027298,-0.6392688751220703,-0.7520750761032104
1761338291207714800,1.27471484375,0.14327028393745422,-0.4960283637046814,-0.64854896068573
1761338291217779700,1.28477978515625,0.11616548895835876,-0.30368247628211975,-0.5287734270095825
1761338291227845600,1.294845703125,0.10747799277305603,-0.03732721507549286,-0.4105242192745209
1761338291237910800,1.304910888671875,0.10746702551841736,0.2861948013305664,-0.2934276759624481
1761338291247976700,1.314976806640625,0.11377312242984772,0.5668643116950989,-0.17958924174308777
1761338291258043000,1.32504296875,0.10032039880752563,0.7658947706222534,-0.06360667198896408
1761338291268107800,1.335107666015625,0.054581135511398315,0.8588694334030151,0.040522389113903046
1761338291278173700,1.345173583984375,-0.008087662979960442,0.857323408126831,0.09787126630544662
1761338291288239600,1.355239501953125,-0.07820895314216614,0.8058133721351624,0.10658939182758331
1761338291298304800,1.3653046875,-0.11826124042272568,0.7309158444404602,0.07478263974189758
1761338291308371000,1.375370849609375,-0.1252855807542801,0.6510034203529358,0.024290168657898903
1761338291318435600,1.385435546875,-0.1092521920800209,0.5545355677604675,-0.0391317754983902
1761338291328501800,1.395501708984375,-0.086541548371315,0.43065038323402405,-0.0889456644654274
1761338291338567700,1.405567626953125,-0.055984824895858765,0.285135954618454,-0.1432199776172638
1761338291348632800,1.4156328125,-0.0033277380280196667,0.1051771268248558,-0.204362154006958
1761338291358698800,1.42569873046875,0.07928743958473206,-0.10122020542621613,-0.2848382890224457
1761338291368764700,1.4357646484375,0.19017533957958221,-0.25713789463043213,-0.35329511761665344
1761338291378829800,1.445829833984375,0.29162415862083435,-0.31602856516838074,-0.41125375032424927
1761338291388895700,1.455895751953125,0.3493654727935791,-0.32776618003845215,-0.43515321612358093
1761338291398961000,1.4659609375,0.36259305477142334,-0.3131069839000702,-0.43190431594848633
1761338291409026800,1.47602685546875,0.33631086349487305,-0.27435532212257385,-0.40049660205841064
1761338291419092700,1.4860927734375,0.29808399081230164,-0.22985060513019562,-0.36588361859321594
1761338291429157600,1.49615771484375,0.26990294456481934,-0.1917562186717987,-0.3068642318248749
1761338291439223800,1.506223876953125,0.2452152818441391,-0.1754962056875229,-0.21185185015201569
1761338291449289700,1.516289794921875,0.2185083031654358,-0.19823187589645386,-0.09683364629745483
1761338291459354600,1.526354736328125,0.17545418441295624,-0.2435201108455658,0.02465805597603321
1761338291469420500,1.536420654296875,0.12930531799793243,-0.26598334312438965,0.12784995138645172
1761338291479485700,1.546485595703125,0.08476294577121735,-0.2623980641365051,0.20371028780937195
1761338291489552000,1.5565517578125,0.0326952189207077,-0.25169214606285095,0.21858032047748566
1761338291499617800,1.56661767578125,-0.0163404643535614,-0.23494714498519897,0.19234123826026917
1761338291509682700,1.5766826171875,-0.057633306831121445,-0.2060430645942688,0.15998196601867676
1761338291519748600,1.58674853515625,-0.10180217027664185,-0.19759751856327057,0.13310301303863525
1761338291529813800,1.596813720703125,-0.14450888335704803,-0.2191891074180603,0.12232627719640732
1761338291539879700,1.606879638671875,-0.17203904688358307,-0.25113213062286377,0.14072605967521667
1761338291549945900,1.61694580078125,-0.2459806501865387,-0.26559147238731384,0.17453408241271973
1761338291560010800,1.6270107421875,-0.3788624703884125,-0.2345956265926361,0.19429121911525726
1761338291570076700,1.63707666015625,-0.4406976103782654,-0.14470569789409637,0.15037037432193756
1761338291580142800,1.647142822265625,-0.45583024621009827,-0.148045152425766,0.04171477258205414
1761338291590207700,1.657207763671875,-0.5232700109481812,-0.24227391183376312,-0.12226297706365585
1761338291600274000,1.66727392578125,-0.6286210417747498,-0.28928786516189575,-0.29904675483703613
1761338291610338600,1.677338623046875,-0.7648523449897766,-0.3111042380332947,-0.46312808990478516
1761338291620404700,1.68740478515625,-0.8880717158317566,-0.2283555120229721,-0.5973168611526489
1761338291630470700,1.697470703125,-0.956997275352478,-0.09983401000499725,-0.6189025640487671
1761338291640535800,1.707535888671875,-0.9435205459594727,0.03023776039481163,-0.5098462104797363
1761338291650601700,1.717601806640625,-0.8553429841995239,0.12719227373600006,-0.25034648180007935
1761338291660667600,1.727667724609375,-0.7301804423332214,0.16954821348190308,0.10570450872182846
1761338291670732800,1.73773291015625,-0.5693289637565613,0.12006507813930511,0.47564154863357544
1761338291680798700,1.747798828125,-0.39218786358833313,0.007255341857671738,0.804399847984314
1761338291690863900,1.75786376953125,-0.23570214211940765,-0.1259746104478836,1.0820239782333374
1761338291700929500,1.767929443359375,-0.10948771983385086,-0.23199263215065002,1.2862409353256226
1761338291710995700,1.77799560546875,-0.010086297988891602,-0.30697739124298096,1.4060823917388916
1761338291721060900,1.788060791015625,0.05080313980579376,-0.400285005569458,1.4860470294952393
1761338291731126800,1.798126708984375,0.09120995551347733,-0.5355245471000671,1.5004971027374268
1761338291741191700,1.808191650390625,0.11680451035499573,-0.6272934675216675,1.4417635202407837
1761338291751257600,1.818257568359375,0.10278216749429703,-0.6540787220001221,1.27937912940979
1761338291761323800,1.82832373046875,0.04292282462120056,-0.603274405002594,1.0175060033798218
1761338291771388700,1.838388671875,-0.052063874900341034,-0.5109809637069702,0.6755532026290894
1761338291781454800,1.848454833984375,-0.17210403084754944,-0.40713077783584595,0.27307024598121643
1761338291791520800,1.858520751953125,-0.2870069146156311,-0.29878753423690796,-0.13454866409301758
1761338291801585700,1.868585693359375,-0.38302043080329895,-0.14864888787269592,-0.5373750329017639
1761338291811651600,1.878651611328125,-0.43314245343208313,0.054638441652059555,-0.8853130340576172
1761338291821716700,1.888716796875,-0.48661306500434875,0.16204598546028137,-1.1380215883255005
1761338291831783000,1.898782958984375,-0.5537175536155701,0.15558116137981415,-1.2898409366607666
1761338291841848800,1.908848876953125,-0.5497104525566101,0.18147017061710358,-1.2736995220184326
1761338291851913700,1.918913818359375,-0.49310389161109924,0.28429827094078064,-1.1201171875
1761338291861979600,1.928979736328125,-0.4015386998653412,0.3521449863910675,-0.8818802833557129
1761338291872045800,1.9390458984375,-0.30125150084495544,0.3612423539161682,-0.5856408476829529
1761338291882110700,1.94911083984375,-0.2051544487476349,0.35729509592056274,-0.28904685378074646
1761338291892176000,1.95917578125,-0.12072105705738068,0.3299574851989746,-0.015110349282622337
1761338291902241000,1.969240966796875,-0.029045570641756058,0.32731151580810547,0.20668470859527588
1761338291912307000,1.979306884765625,0.06699467450380325,0.3192269504070282,0.35011377930641174
1761338291922373000,1.989373046875,0.15433767437934875,0.28904807567596436,0.40832772850990295
1761338291932438000,1.99943798828125,0.22202271223068237,0.24477674067020416,0.3904970586299896
1761338291942504000,2.00950390625,0.2690829336643219,0.21430552005767822,0.32749807834625244
1761338291952569000,2.019569091796875,0.28254255652427673,0.18504378199577332,0.24876463413238525
1761338291962635000,2.029635009765625,0.26041483879089355,0.1275119036436081,0.16048835217952728
1761338291972701200,2.039701171875,0.23437365889549255,0.0745171457529068,0.07220084220170975
1761338291982765800,2.049765869140625,0.2006729245185852,0.0378011092543602,-0.010362199507653713
1761338291992832000,2.05983203125,0.17274995148181915,0.015111775137484074,-0.07615692913532257
1761338292002898000,2.06989794921875,0.14559103548526764,0.025783613324165344,-0.11353760957717896
1761338292012963000,2.079963134765625,0.11082107573747635,0.03858782351016998,-0.11242414265871048
1761338292023029000,2.090029052734375,0.07075934112071991,0.05815897136926651,-0.09497874230146408
1761338292033094000,2.100093994140625,0.029046781361103058,0.07870659232139587,-0.06537717580795288
1761338292043160000,2.11016015625,-0.015149173326790333,0.0838124006986618,-0.04521331936120987
1761338292053226000,2.12022607421875,-0.04309745132923126,0.07792308926582336,-0.03587095066905022
1761338292063291100,2.130291015625,-0.060013942420482635,0.09732583165168762,-0.04550137370824814
1761338292073357000,2.140357177734375,-0.03879653662443161,0.1944665014743805,-0.11552786082029343
1761338292083423000,2.150423095703125,-0.06278600543737411,0.26616546511650085,-0.17856837809085846
1761338292093487900,2.16048779296875,-0.09585953503847122,0.3416423797607422,-0.2041586935520172
1761338292103554000,2.170553955078125,-0.11716774851083755,0.4170149266719818,-0.20332247018814087
1761338292113619200,2.180619140625,-0.12772610783576965,0.45033693313598633,-0.17286869883537292
1761338292123684900,2.190684814453125,-0.1336372345685959,0.4538326859474182,-0.12965039908885956
1761338292133751000,2.2007509765625,-0.14420652389526367,0.4006373882293701,-0.05721455439925194
1761338292143816000,2.21081591796875,-0.150310218334198,0.2919452488422394,0.044258538633584976
1761338292153882000,2.220882080078125,-0.16290244460105896,0.17000603675842285,0.18755018711090088
1761338292163947000,2.230947021484375,-0.15339848399162292,0.07140208780765533,0.3530561327934265
1761338292174013000,2.241012939453125,-0.12854799628257751,-0.004193335771560669,0.5221655368804932
1761338292184078800,2.251078857421875,-0.1052708551287651,-0.049448903650045395,0.6590034365653992
1761338292194144000,2.26114404296875,-0.08485479652881622,-0.02985203079879284,0.7412647604942322
1761338292204210000,2.2712099609375,-0.0636562779545784,0.029244668781757355,0.7803975343704224
1761338292214276000,2.281276123046875,-0.0709749087691307,0.15021264553070068,0.7816100716590881
1761338292224341000,2.291341064453125,-0.10351324081420898,0.3356621265411377,0.7930867671966553
1761338292234407000,2.301406982421875,-0.1123349592089653,0.5664700865745544,0.7991201877593994
1761338292244472000,2.31147216796875,-0.12180645763874054,0.7217268943786621,0.7427436709403992
1761338292254538000,2.3215380859375,-0.15878231823444366,0.724362850189209,0.6006075739860535
1761338292264604200,2.331604248046875,-0.15945933759212494,0.617030680179596,0.3982776999473572
1761338292274669000,2.3416689453125,-0.13716548681259155,0.3617919981479645,0.17981114983558655
1761338292284735000,2.35173486328125,-0.13645988702774048,-0.09017803519964218,-0.03729387745261192
1761338292294801000,2.36180078125,-0.21519464254379272,-0.6090014576911926,-0.23016399145126343
1761338292304866000,2.371865966796875,-0.3170318305492401,-0.9374755620956421,-0.3853953778743744
1761338292314932200,2.38193212890625,-0.4012204706668854,-0.9700884222984314,-0.5132574439048767
1761338292324996900,2.391996826171875,-0.44061771035194397,-0.6911745071411133,-0.6222239136695862
1761338292335063000,2.40206298828125,-0.4564395248889923,-0.2513212263584137,-0.5970788598060608
1761338292345129000,2.41212890625,-0.43955808877944946,0.21070104837417603,-0.40246057510375977
1761338292355194000,2.422194091796875,-0.4037548303604126,0.5520000457763672,-0.06682717055082321
1761338292365259800,2.432259765625,-0.31439563632011414,0.6756623387336731,0.3927987515926361
1761338292375326000,2.442325927734375,-0.26505738496780396,0.5791515111923218,0.9048769474029541
1761338292385391000,2.45239111328125,-0.36568063497543335,0.3588602542877197,1.362867832183838
1761338292395457000,2.46245703125,-0.5090519189834595,0.2147853672504425,1.5779380798339844
1761338292405522200,2.472522216796875,-0.5971837043762207,0.1649676263332367,1.5311182737350464
1761338292415587800,2.482587890625,-0.6256555914878845,0.12463777512311935,1.2770750522613525
1761338292425654000,2.492654052734375,-0.5956687927246094,0.04558628425002098,0.9308741092681885
1761338292435719000,2.502718994140625,-0.5369564890861511,-0.0727590024471283,0.5646460056304932
1761338292445785000,2.51278515625,-0.5390307307243347,-0.1690770834684372,0.24463976919651031
1761338292455850000,2.52285009765625,-0.6254034638404846,-0.2393467128276825,-0.02250964567065239
1761338292465916000,2.532916015625,-0.7625860571861267,-0.3161020278930664,-0.2796575725078583
1761338292475981800,2.54298193359375,-0.9180701971054077,-0.42133256793022156,-0.5428673624992371
1761338292486047000,2.553046875,-1.0525344610214233,-0.5325466394424438,-0.8106531500816345
1761338292496113200,2.563113037109375,-1.1707707643508911,-0.6657989621162415,-1.0372756719589233
1761338292506179000,2.573178955078125,-1.287473440170288,-0.7846420407295227,-1.2029165029525757
1761338292516244000,2.583243896484375,-1.3936889171600342,-0.8505232930183411,-1.2549253702163696
1761338292526310000,2.593309814453125,-1.4721043109893799,-0.8051486015319824,-1.182582139968872
1761338292536375000,2.603375,-1.4895299673080444,-0.6606764197349548,-1.0257985591888428
1761338292546441000,2.61344091796875,-1.430675983428955,-0.4074866771697998,-0.8016681671142578
1761338292556507100,2.623507080078125,-1.3106603622436523,-0.07177472859621048,-0.5338838696479797
1761338292566572000,2.633572021484375,-1.165485143661499,0.23113670945167542,-0.2646946907043457
1761338292576638000,2.643637939453125,-1.0563501119613647,0.42733949422836304,-0.04240701347589493
1761338292586704100,2.6537041015625,-0.9944267272949219,0.5209681987762451,0.11324714124202728
1761338292596769000,2.66376904296875,-0.9566868543624878,0.5633183121681213,0.19937190413475037
1761338292606835000,2.6738349609375,-0.9410515427589417,0.5300514698028564,0.21243160963058472
1761338292616899800,2.68389990234375,-0.9403402209281921,0.4415804445743561,0.1767236739397049
1761338292626966000,2.693966064453125,-0.9544301629066467,0.3115667998790741,0.09838410466909409
1761338292637032000,2.704031982421875,-0.989818811416626,0.13478057086467743,-0.020504198968410492
1761338292647097000,2.71409716796875,-1.0299019813537598,-0.03740950673818588,-0.16885700821876526
1761338292657163000,2.7241630859375,-1.064400553703308,-0.15483786165714264,-0.3339990973472595
1761338292667228000,2.734227783203125,-1.0846344232559204,-0.1988823413848877,-0.4903847575187683
1761338292677294000,2.744294189453125,-1.0925713777542114,-0.22122493386268616,-0.617359459400177
1761338292687360000,2.754360107421875,-1.1214141845703125,-0.2692342698574066,-0.672797441482544
1761338292697425000,2.7644248046875,-1.1681244373321533,-0.3200604319572449,-0.6753066778182983
1761338292707490800,2.77449072265625,-1.2352306842803955,-0.35817211866378784,-0.6258851885795593
1761338292717557000,2.784556884765625,-1.3131414651870728,-0.3588126301765442,-0.5521632432937622
1761338292727622100,2.7946220703125,-1.3913631439208984,-0.32932910323143005,-0.45716679096221924
1761338292737688000,2.80468798828125,-1.4535285234451294,-0.24145998060703278,-0.3581419587135315
1761338292747753000,2.8147529296875,-1.4872171878814697,-0.11247225850820541,-0.24759849905967712
1761338292757819000,2.82481884765625,-1.490439772605896,0.03232487291097641,-0.14590729773044586
1761338292767885000,2.834885009765625,-1.4619781970977783,0.1642785221338272,-0.044364653527736664
1761338292777950000,2.844949951171875,-1.4171204566955566,0.24816276133060455,0.04791068285703659
1761338292788016000,2.85501611328125,-1.3677802085876465,0.2574850022792816,0.12575526535511017
1761338292798082000,2.86508203125,-1.339646816253662,0.19487570226192474,0.1662939041852951
1761338292808147000,2.87514697265625,-1.3047455549240112,0.07969319820404053,0.16331100463867188
1761338292818212900,2.885212890625,-1.2561544179916382,-0.03926115110516548,0.12711915373802185
1761338292828278000,2.895278076171875,-1.2073533535003662,-0.16837161779403687,0.10093212872743607
1761338292838344200,2.90534423828125,-1.1831161975860596,-0.27846693992614746,0.0982053205370903
1761338292848409900,2.915409912109375,-1.1772394180297852,-0.36516833305358887,0.1234365776181221
1761338292858475000,2.92547509765625,-1.1742228269577026,-0.4209165573120117,0.14139986038208008
1761338292868541000,2.935541015625,-1.1557776927947998,-0.4415939748287201,0.14998814463615417
1761338292878607000,2.945607177734375,-1.1421902179718018,-0.40842562913894653,0.13214069604873657
1761338292888672000,2.955672119140625,-1.1173042058944702,-0.3401327431201935,0.11092832684516907
1761338292898738000,2.965738037109375,-1.0808287858963013,-0.2760962247848511,0.11015468090772629
1761338292908803000,2.975802978515625,-1.0361980199813843,-0.25252625346183777,0.11634449660778046
1761338292918869000,2.985868896484375,-1.0390100479125977,-0.2809506952762604,0.11899727582931519
1761338292928935200,2.99593505859375,-1.1027331352233887,-0.3265400528907776,0.055022336542606354
1761338292938999800,3.005999755859375,-1.1889820098876953,-0.3866127133369446,-0.11031682044267654
1761338292949066000,3.01606591796875,-1.3084361553192139,-0.5151886343955994,-0.3806757926940918
1761338292959131000,3.026130859375,-1.453750729560852,-0.6804572343826294,-0.6811320185661316
1761338292969197000,3.036197021484375,-1.6155730485916138,-0.7668017148971558,-0.9551767110824585
1761338292979263000,3.046262939453125,-1.77918541431427,-0.696842610836029,-1.1329530477523804
1761338292989328000,3.056327880859375,-1.9222590923309326,-0.4646274447441101,-1.1632939577102661
1761338292999394000,3.06639404296875,-2.0087685585021973,-0.15371429920196533,-1.0298947095870972
1761338293009460000,3.0764599609375,-2.0272555351257324,0.15979886054992676,-0.7414969205856323
1761338293019525000,3.086525146484375,-1.9715203046798706,0.40430524945259094,-0.3379789888858795
1761338293029591000,3.096591064453125,-1.8507369756698608,0.5189128518104553,0.11555827409029007
1761338293039656000,3.106656005859375,-1.6930229663848877,0.5175290703773499,0.5561617612838745
1761338293049721900,3.116721923828125,-1.5460550785064697,0.415530800819397,0.9075700640678406
1761338293059788000,3.1267880859375,-1.4516416788101196,0.30688849091529846,1.009437084197998
1761338293069853200,3.136853271484375,-1.368660807609558,0.26568588614463806,0.971566379070282
1761338293079919000,3.146919189453125,-1.2813067436218262,0.28510087728500366,0.8221726417541504
1761338293089984800,3.15698486328125,-1.1910881996154785,0.3231925368309021,0.62958163022995
1761338293100050000,3.1670498046875,-1.1393647193908691,0.3495037853717804,0.426429808139801
1761338293110116000,3.1771162109375,-1.1533747911453247,0.3206228017807007,0.25038784742355347
1761338293120181000,3.187180908203125,-1.2159687280654907,0.25564274191856384,0.09610296040773392
1761338293130247000,3.197246826171875,-1.3124001026153564,0.1547747254371643,-0.02811100333929062
1761338293140312800,3.207312744140625,-1.4194447994232178,0.05839678272604942,-0.13774056732654572
1761338293150378000,3.2173779296875,-1.5174477100372314,-0.015602931380271912,-0.2283603996038437
1761338293160444000,3.22744384765625,-1.5939781665802002,-0.0988517478108406,-0.329151451587677
1761338293170510000,3.237510009765625,-1.6766570806503296,-0.21220046281814575,-0.4339431822299957
1761338293180575000,3.247574951171875,-1.766364574432373,-0.28210657835006714,-0.5654953718185425
1761338293190641000,3.257640869140625,-1.8711212873458862,-0.26490896940231323,-0.6951768398284912
1761338293200706000,3.2677060546875,-1.9886306524276733,-0.1838197112083435,-0.8112376928329468
1761338293210772000,3.27777197265625,-2.0784294605255127,-0.05235447734594345,-0.8808158040046692
1761338293220838100,3.287838134765625,-2.1103949546813965,0.08987537026405334,-0.8814602494239807
1761338293230902800,3.29790283203125,-2.0824334621429443,0.22720986604690552,-0.8093273639678955
1761338293240969000,3.307968994140625,-2.0103414058685303,0.3551504909992218,-0.6642577648162842
1761338293251034000,3.3180341796875,-1.905135989189148,0.4477437734603882,-0.45458316802978516
1761338293261100000,3.32810009765625,-1.777958631515503,0.513735830783844,-0.198686420917511
1761338293271166200,3.338166259765625,-1.6753009557724,0.5650897026062012,0.049248505383729935
1761338293281230800,3.34823095703125,-1.5986621379852295,0.5931479930877686,0.24283234775066376
1761338293291297000,3.358297119140625,-1.5195268392562866,0.5478056073188782,0.36466965079307556
1761338293301363000,3.368363037109375,-1.4655208587646484,0.39989250898361206,0.4151732921600342
1761338293311428000,3.378427978515625,-1.435617208480835,0.1996292769908905,0.4173334240913391
1761338293321494000,3.388493896484375,-1.4213197231292725,-0.005944646429270506,0.3838561773300171
1761338293331559000,3.398558837890625,-1.3950716257095337,-0.14819684624671936,0.28943362832069397
1761338293341625000,3.408625,-1.373473882675171,-0.21714556217193604,0.12351682782173157
1761338293351691000,3.41869091796875,-1.4000345468521118,-0.22116278111934662,-0.10265688598155975
1761338293361756200,3.428756103515625,-1.481408953666687,-0.2176295518875122,-0.3227066993713379
1761338293371821800,3.43882177734375,-1.5991045236587524,-0.22510667145252228,-0.4756442904472351
1761338293381888000,3.448887939453125,-1.7277463674545288,-0.2415788471698761,-0.5456454753875732
1761338293391953000,3.458952880859375,-1.845186471939087,-0.24131357669830322,-0.5455740094184875
1761338293402019000,3.46901904296875,-1.9472768306732178,-0.22980046272277832,-0.5245004296302795
1761338293412084200,3.479084228515625,-2.0161099433898926,-0.2400580197572708,-0.5121367573738098
1761338293422150000,3.48914990234375,-2.0417487621307373,-0.26644060015678406,-0.5227430462837219
1761338293432215800,3.4992158203125,-2.0205066204071045,-0.3600519001483917,-0.48627591133117676
1761338293442281000,3.509281005859375,-1.9589684009552002,-0.39188599586486816,-0.4286898374557495
1761338293452347100,3.51934716796875,-1.8775317668914795,-0.3505716025829315,-0.3453465402126312
1761338293462411800,3.529411865234375,-1.812052607536316,-0.27401769161224365,-0.25698578357696533
1761338293472478000,3.53947802734375,-1.766680121421814,-0.21460367739200592,-0.17732474207878113
1761338293482543900,3.5495439453125,-1.7420514822006226,-0.17868907749652863,-0.10109760612249374
1761338293492609000,3.559609130859375,-1.73453688621521,-0.1698078215122223,-0.040081631392240524
1761338293502675000,3.569675048828125,-1.7152563333511353,-0.17327553033828735,0.022722899913787842
1761338293512741000,3.5797412109375,-1.6700196266174316,-0.15782032907009125,0.11805172264575958
1761338293522806000,3.589805908203125,-1.6016309261322021,-0.07426632195711136,0.26665398478507996
1761338293532872000,3.599871826171875,-1.5177862644195557,0.01860160008072853,0.44583967328071594
1761338293542937000,3.60993701171875,-1.444618821144104,0.08668611198663712,0.6237135529518127
1761338293553003000,3.6200029296875,-1.4149011373519897,0.18417346477508545,0.7644983530044556
1761338293563069200,3.630069091796875,-1.3686102628707886,0.38492199778556824,0.8454871773719788
1761338293573133800,3.6401337890625,-1.2711511850357056,0.587502121925354,0.8535407781600952
1761338293583200000,3.650199951171875,-1.1552730798721313,0.6463103294372559,0.7971802949905396
1761338293593266000,3.660265869140625,-1.0364022254943848,0.5652174949645996,0.6922290921211243
1761338293603331000,3.6703310546875,-0.9251460433006287,0.3947589695453644,0.548868715763092
1761338293613397000,3.68039697265625,-0.8424797058105469,0.18342868983745575,0.39261868596076965
1761338293623462000,3.6904619140625,-0.8090413212776184,-0.01699841022491455,0.2665424942970276
1761338293633528000,3.700528076171875,-0.813299834728241,-0.1420821249485016,0.19879290461540222
1761338293643594000,3.710593994140625,-0.8387566804885864,-0.19481749832630157,0.23358604311943054
1761338293653659100,3.7206591796875,-0.8956210613250732,-0.19597935676574707,0.3217339813709259
1761338293663724800,3.730724853515625,-0.9511967301368713,-0.12486309558153152,0.41843628883361816
1761338293673791000,3.740791015625,-1.002099871635437,0.026176143437623978,0.48588335514068604
1761338293683856100,3.750856201171875,-1.0402486324310303,0.19587142765522003,0.5166671276092529
1761338293693922000,3.760922119140625,-1.059420108795166,0.29657188057899475,0.5124085545539856
1761338293703987000,3.770987060546875,-1.0618880987167358,0.30859604477882385,0.477180540561676
1761338293714052900,3.781052978515625,-1.032407522201538,0.2455952763557434,0.4179275631904602
1761338293724119000,3.791119140625,-0.9736537337303162,0.15116968750953674,0.33949241042137146
1761338293734184000,3.801183837890625,-0.892215371131897,0.06755377352237701,0.2623034119606018
1761338293744250000,3.81125,-0.831389844417572,-0.011475266888737679,0.1850256472826004
1761338293754315000,3.82131494140625,-0.812414824962616,-0.09380434453487396,0.1068081259727478
1761338293764381000,3.831380859375,-0.8278481364250183,-0.1654668003320694,0.014125054702162743
1761338293774446800,3.84144677734375,-0.8625938892364502,-0.23835483193397522,-0.08816301077604294
1761338293784512000,3.851511962890625,-0.8989433646202087,-0.3184584379196167,-0.20618551969528198
1761338293794578200,3.861578125,-0.9188204407691956,-0.4165666699409485,-0.31581687927246094
1761338293804644000,3.87164404296875,-0.9285345673561096,-0.5120788216590881,-0.3921273648738861
1761338293814709000,3.881708984375,-0.9384487271308899,-0.6017464995384216,-0.4240868389606476
1761338293824775000,3.89177490234375,-0.955625593662262,-0.6729589104652405,-0.42023831605911255
1761338293834841000,3.901841064453125,-0.9923096895217896,-0.691902220249176,-0.3976043462753296
1761338293844906000,3.911906005859375,-1.057244896888733,-0.6272925734519958,-0.3644663691520691
1761338293854972000,3.921971923828125,-1.1408671140670776,-0.4747040271759033,-0.3436112403869629
1761338293865037000,3.932037109375,-1.2164264917373657,-0.23684726655483246,-0.2866171896457672
1761338293875103000,3.94210302734375,-1.271830677986145,0.014757840894162655,-0.18896789848804474
1761338293885169200,3.952169189453125,-1.3003348112106323,0.21109619736671448,-0.051323480904102325
1761338293895234300,3.962234375,-1.3152122497558594,0.3523070514202118,0.11865339428186417
1761338293905300500,3.972300537109375,-1.339603066444397,0.41918089985847473,0.30312392115592957
1761338293915365400,3.982365478515625,-1.3745535612106323,0.4019685983657837,0.4576302766799927
1761338293925431300,3.992431396484375,-1.4222047328948975,0.3249257504940033,0.5325380563735962
1761338293935497200,4.002497314453125,-1.463778018951416,0.21743252873420715,0.4926525056362152
1761338293945562400,4.012562255859375,-1.497178077697754,0.11894802749156952,0.3468942642211914
1761338293955628300,4.022628173828125,-1.5139144659042358,0.05568096414208412,0.13100171089172363
1761338293965694500,4.032694580078125,-1.4971346855163574,0.05998729541897774,-0.1348283737897873
1761338293975759400,4.04275927734375,-1.4558143615722656,0.09578021615743637,-0.3908993601799011
1761338293985825300,4.0528251953125,-1.4017868041992188,0.14177033305168152,-0.5826232433319092
1761338293995890400,4.062890380859375,-1.3741875886917114,0.15447348356246948,-0.6993515491485596
1761338294005956400,4.072956298828125,-1.3597311973571777,0.11778178066015244,-0.7499632835388184
1761338294016022500,4.0830224609375,-1.3444381952285767,0.07378577440977097,-0.7394710183143616
1761338294026087200,4.093087158203125,-1.3142317533493042,0.0077700065448880196,-0.7112838625907898
1761338294036153300,4.1031533203125,-1.2746999263763428,-0.07875808328390121,-0.6942741870880127
1761338294046219300,4.11321923828125,-1.2145992517471313,-0.16890528798103333,-0.6746504306793213
1761338294056284400,4.123284423828125,-1.127316951751709,-0.2081996351480484,-0.6353021860122681
1761338294066350300,4.133350341796875,-1.0051031112670898,-0.19746284186840057,-0.5926583409309387
1761338294076415200,4.143415283203125,-0.8695351481437683,-0.16526970267295837,-0.5404343008995056
1761338294086481400,4.1534814453125,-0.7259534597396851,-0.10429611057043076,-0.4747498631477356
1761338294096547300,4.16354736328125,-0.6073601245880127,-0.05350930243730545,-0.3779653310775757
1761338294106612500,4.173612548828125,-0.5178840756416321,-0.019063709303736687,-0.2509235143661499
1761338294116678400,4.183678466796875,-0.46227890253067017,0.0053122518584132195,-0.09400759637355804
1761338294126744300,4.193744384765625,-0.43775972723960876,0.020529285073280334,0.07076244801282883
1761338294136809500,4.2038095703125,-0.4378216564655304,0.007977372035384178,0.22624802589416504
1761338294146875400,4.21387548828125,-0.44728919863700867,-0.04862039163708687,0.344486802816391
1761338294156940500,4.2239404296875,-0.44816964864730835,-0.13941799104213715,0.4102027416229248
1761338294167006200,4.234006103515625,-0.4287344217300415,-0.2128424048423767,0.41556528210639954
1761338294177072400,4.244072265625,-0.4098261296749115,-0.24595427513122559,0.3804745078086853
1761338294187137300,4.25413720703125,-0.41358864307403564,-0.24255821108818054,0.3252251148223877
1761338294197203500,4.264203369140625,-0.43640589714050293,-0.21853822469711304,0.2543742060661316
1761338294207268400,4.274268310546875,-0.44524598121643066,-0.1949458122253418,0.17936094105243683
1761338294217334300,4.284334228515625,-0.4394156038761139,-0.20263220369815826,0.11604997515678406
1761338294227400200,4.294400146484375,-0.3911319673061371,-0.22714847326278687,0.1057179719209671
1761338294237465300,4.30446533203125,-0.31459203362464905,-0.24296952784061432,0.14536087214946747
1761338294247531500,4.314531494140625,-0.25226473808288574,-0.2545050084590912,0.21145227551460266
1761338294257597400,4.324597412109375,-0.3156985640525818,-0.2617022395133972,0.21745099127292633
1761338294267662300,4.334662353515625,-0.44081413745880127,-0.20243598520755768,0.12834589183330536
1761338294277728300,4.344728271484375,-0.5358628630638123,-0.16560354828834534,-0.07110043615102768
1761338294287793400,4.35479345703125,-0.6389833688735962,-0.30983448028564453,-0.3558237552642822
1761338294297859300,4.364859375,-0.7520889043807983,-0.5364212989807129,-0.6364708542823792
1761338294307925500,4.374925537109375,-0.8413825631141663,-0.684715986251831,-0.8266671895980835
1761338294317990400,4.384990478515625,-0.9033252000808716,-0.7455952763557434,-0.8914385437965393
1761338294328056300,4.395056396484375,-0.9346940517425537,-0.6893460750579834,-0.8272379636764526
1761338294338122200,4.405122314453125,-0.9272251725196838,-0.5103150010108948,-0.6266971826553345
1761338294348187400,4.4151875,-0.8642741441726685,-0.29296693205833435,-0.32232049107551575
1761338294358253600,4.425253662109375,-0.7410221099853516,-0.07710102200508118,0.06537723541259766
1761338294368319200,4.4353193359375,-0.5796321630477905,0.12050925940275192,0.4921533167362213
1761338294378385400,4.445385498046875,-0.41937965154647827,0.2354128360748291,0.8882482647895813
1761338294388450300,4.4554501953125,-0.3175584673881531,0.219395250082016,1.2234700918197632
1761338294398516500,4.4655166015625,-0.2764853537082672,0.12408707290887833,1.4550321102142334
1761338294408582400,4.47558251953125,-0.27615806460380554,-0.03179094195365906,1.5725115537643433
1761338294418647300,4.485647216796875,-0.31173282861709595,-0.21600046753883362,1.5737078189849854
1761338294428713200,4.495713134765625,-0.3672299087047577,-0.3789193332195282,1.493172287940979
1761338294438778400,4.5057783203125,-0.4215151369571686,-0.4929966330528259,1.3493191003799438
1761338294448844500,4.515844482421875,-0.4768282175064087,-0.5456899404525757,1.1837798357009888
1761338294458910500,4.525910400390625,-0.5586959719657898,-0.559316873550415,0.9680383801460266
1761338294468975400,4.535975341796875,-0.7024248838424683,-0.6143031716346741,0.6786720752716064
1761338294479041300,4.546041259765625,-0.8868873119354248,-0.6723664999008179,0.35199159383773804
1761338294489107500,4.556107421875,-1.0657305717468262,-0.6609218716621399,-0.0059782760217785835
1761338294499172400,4.56617236328125,-1.211594581604004,-0.5819644331932068,-0.3595395088195801
1761338294509238500,4.576238525390625,-1.3148833513259888,-0.4164851903915405,-0.6831936836242676
1761338294519303400,4.586303466796875,-1.3892048597335815,-0.15935182571411133,-0.9534101486206055
1761338294529369300,4.596369384765625,-1.4434382915496826,0.09970264136791229,-1.1143263578414917
1761338294539435300,4.606435302734375,-1.4233475923538208,0.3356171250343323,-1.1070096492767334
1761338294549500400,4.61650048828125,-1.342634677886963,0.5092906951904297,-0.9411270022392273
1761338294559566300,4.62656640625,-1.1966216564178467,0.5747191309928894,-0.6763865351676941
1761338294569632300,4.63663232421875,-1.0362759828567505,0.5571616888046265,-0.3608117997646332
1761338294579697400,4.646697509765625,-0.8873336911201477,0.46241340041160583,-0.060745660215616226
1761338294589763300,4.656763427734375,-0.7488878965377808,0.32403263449668884,0.16864171624183655
1761338294599828500,4.666828369140625,-0.6185579299926758,0.22856472432613373,0.30003949999809265
1761338294609894400,4.676894287109375,-0.4886457324028015,0.18686388432979584,0.34567490220069885
1761338294619960300,4.686960205078125,-0.3802590072154999,0.16021917760372162,0.3203761577606201
1761338294630025500,4.697025390625,-0.30249151587486267,0.12023341655731201,0.23979580402374268
1761338294640091400,4.70709130859375,-0.2697881758213043,0.09368036687374115,0.1312168687582016
1761338294650157600,4.717157470703125,-0.269215852022171,0.0725090354681015,0.037995316088199615
1761338294660222200,4.72722216796875,-0.301042377948761,0.03635401278734207,-0.03780631721019745
1761338294670288400,4.737288330078125,-0.3491119146347046,-0.006132462061941624,-0.1043267548084259
1761338294680353300,4.747353271484375,-0.4124801754951477,-0.0703510046005249,-0.14513468742370605
1761338294690419500,4.75741943359375,-0.4913451671600342,-0.10788506269454956,-0.1559247523546219
1761338294700485400,4.7674853515625,-0.5799973011016846,-0.1319379359483719,-0.14502549171447754
1761338294710550300,4.77755029296875,-0.6747592091560364,-0.1494266539812088,-0.11546733975410461
1761338294720616400,4.787616455078125,-0.7562260031700134,-0.1515047401189804,-0.0852818414568901
1761338294730682400,4.797682373046875,-0.8279111385345459,-0.1476586014032364,-0.06010591611266136
1761338294740747500,4.80774755859375,-0.9027674794197083,-0.11510531604290009,-0.06494785845279694
1761338294750813400,4.8178134765625,-0.944919764995575,-0.08478522300720215,-0.07237834483385086
1761338294760878300,4.82787841796875,-0.9826166033744812,-0.10783162713050842,-0.09341634809970856
1761338294770944300,4.8379443359375,-1.0064854621887207,-0.1432679146528244,-0.10354887694120407
1761338294781010400,4.848010498046875,-1.0361162424087524,-0.17786377668380737,-0.10979096591472626
1761338294791075600,4.85807568359375,-1.0587280988693237,-0.1771756112575531,-0.11033052206039429
1761338294801141200,4.868141357421875,-1.0811601877212524,-0.08254524320363998,-0.13574853539466858
1761338294811206400,4.878206298828125,-1.0881885290145874,0.07627397030591965,-0.17372281849384308
1761338294821272300,4.888272216796875,-1.0377459526062012,0.21602171659469604,-0.19666045904159546
1761338294831338500,4.89833837890625,-0.950022280216217,0.2780701816082001,-0.17956429719924927
1761338294841403400,4.9084033203125,-0.8700759410858154,0.2657274305820465,-0.0948643684387207
1761338294851469300,4.91846923828125,-0.8129551410675049,0.18025994300842285,0.05957847461104393
1761338294861535200,4.92853515625,-0.7686095237731934,0.0590662956237793,0.25776535272598267
1761338294871600400,4.938600341796875,-0.7270719408988953,-0.06203403323888779,0.4504655599594116
1761338294881666300,4.948666259765625,-0.6821668744087219,-0.11510805785655975,0.6102066040039062
1761338294891730700,4.958730712890625,-0.6494869589805603,-0.12216596305370331,0.7191791534423828
1761338294901796900,4.968796875,-0.6236403584480286,-0.0868658795952797,0.781133770942688
1761338294911862800,4.97886279296875,-0.6142527461051941,-0.03451079502701759,0.7799409627914429
1761338294921928000,4.988927978515625,-0.6464698314666748,0.03194550424814224,0.6962738037109375
1761338294931993900,4.998993896484375,-0.694786012172699,0.11191064119338989,0.5117282271385193
1761338294942059800,5.009059814453125,-0.7552407383918762,0.19025172293186188,0.19724343717098236
1761338294952125000,5.019125,-0.8171815872192383,0.21315251290798187,-0.2081863433122635
1761338294962190800,5.02919091796875,-0.8764647841453552,0.14705626666545868,-0.6428532600402832
1761338294972256000,5.039256103515625,-0.940959095954895,-0.05841807276010513,-1.0494152307510376
1761338294982322000,5.049322021484375,-1.0233814716339111,-0.3380654752254486,-1.2895588874816895
1761338294992387800,5.059387939453125,-1.1140605211257935,-0.5304639935493469,-1.2484545707702637
1761338295002452700,5.06945263671875,-1.1728349924087524,-0.5192295908927917,-0.9966863393783569
1761338295012519000,5.079518798828125,-1.2228899002075195,-0.3548441231250763,-0.6097644567489624
1761338295022584800,5.089584716796875,-1.2516069412231445,-0.10535719245672226,-0.18644896149635315
1761338295032649700,5.099649658203125,-1.2687768936157227,0.18104925751686096,0.19033268094062805
1761338295042716000,5.1097158203125,-1.2629438638687134,0.4176551401615143,0.4868091940879822
1761338295052780800,5.11978076171875,-1.2348142862319946,0.5805791020393372,0.7015920877456665
1761338295062847000,5.129846923828125,-1.1734256744384766,0.6515045762062073,0.854300320148468
1761338295072913000,5.139912841796875,-1.0937089920043945,0.5947312712669373,0.9309819936752319
1761338295082977800,5.149977783203125,-1.028840184211731,0.4299318492412567,0.9552211761474609
1761338295093043700,5.160043701171875,-0.9801202416419983,0.21112148463726044,0.9115325212478638
1761338295103110000,5.17010986328125,-0.9421475529670715,0.03291782736778259,0.7820156216621399
1761338295113175000,5.180175048828125,-0.9281425476074219,-0.07027193903923035,0.5516743063926697
1761338295123241000,5.190240966796875,-0.923990786075592,-0.08860167860984802,0.21584738790988922
1761338295133305900,5.200305908203125,-0.9464724063873291,-0.03629027307033539,-0.17262844741344452
1761338295143371800,5.210371826171875,-0.9825182557106018,0.046676814556121826,-0.5823603272438049
1761338295153438000,5.22043798828125,-1.0007797479629517,0.08324068784713745,-0.9377461075782776
1761338295163502800,5.2305029296875,-1.0590729713439941,-0.0011305445805191994,-1.2205103635787964
1761338295173569000,5.240569091796875,-1.1022846698760986,-0.062102820724248886,-1.3680135011672974
1761338295183634700,5.250634765625,-1.1380349397659302,-0.11137744039297104,-1.4225378036499023
1761338295193699800,5.260699951171875,-1.1659456491470337,-0.1984068751335144,-1.4137898683547974
1761338295203765800,5.270765869140625,-1.2201168537139893,-0.28131231665611267,-1.3601881265640259
1761338295213831000,5.280830810546875,-1.2819098234176636,-0.31269076466560364,-1.2554632425308228
1761338295223897000,5.29089697265625,-1.3342957496643066,-0.2569791078567505,-1.0916526317596436
1761338295233962800,5.300962646484375,-1.3537237644195557,-0.08504435420036316,-0.8618069291114807
1761338295244028000,5.31102783203125,-1.3476451635360718,0.1699317842721939,-0.5951488018035889
1761338295254093800,5.32109375,-1.3084192276000977,0.40831369161605835,-0.34746894240379333
1761338295264159000,5.331158935546875,-1.2468945980072021,0.5379132628440857,-0.14849753677845
1761338295274224600,5.341224609375,-1.1970279216766357,0.5843223333358765,-0.003993879072368145
1761338295284290800,5.351290771484375,-1.1724262237548828,0.6156403422355652,0.07830638438463211
1761338295294356000,5.36135595703125,-1.1743954420089722,0.6271464824676514,0.08588387817144394
1761338295304422000,5.371421875,-1.1969614028930664,0.6290138959884644,0.017783939838409424
1761338295314487800,5.38148779296875,-1.2174043655395508,0.6529000997543335,-0.12276172637939453
1761338295324552700,5.391552734375,-1.2698572874069214,0.627014696598053,-0.29443275928497314
1761338295334619000,5.401618896484375,-1.3371303081512451,0.5074813961982727,-0.47176146507263184
1761338295344683800,5.411683837890625,-1.4097449779510498,0.3248192369937897,-0.6164911389350891
1761338295354750000,5.42175,-1.463699221611023,0.14518234133720398,-0.7262924909591675
1761338295364816000,5.43181591796875,-1.4926365613937378,-0.0005170432850718498,-0.7851423025131226
1761338295374880800,5.441880859375,-1.5034998655319214,-0.10857214033603668,-0.7837084531784058
1761338295384947000,5.451947021484375,-1.506985068321228,-0.16348762810230255,-0.7120280265808105
1761338295395012900,5.462012939453125,-1.5094980001449585,-0.15448801219463348,-0.5986964106559753
1761338295405078000,5.472078125,-1.4996376037597656,-0.08894846588373184,-0.4708617925643921
1761338295415144000,5.48214404296875,-1.4616951942443848,-0.008265607059001923,-0.36701902747154236
1761338295425208800,5.492208740234375,-1.3892159461975098,0.11936651915311813,-0.30944323539733887
1761338295435274800,5.502274658203125,-1.2615424394607544,0.3180082142353058,-0.29890432953834534
1761338295445341000,5.5123408203125,-1.1028543710708618,0.55721116065979,-0.3401294946670532
1761338295455405800,5.52240576171875,-0.9329031109809875,0.7561572790145874,-0.4064041078090668
1761338295465472000,5.532471923828125,-0.7725156545639038,0.858401358127594,-0.44958531856536865
1761338295475537700,5.54253759765625,-0.6413179636001587,0.8596676588058472,-0.46358662843704224
1761338295485602800,5.552602783203125,-0.5374844074249268,0.8141037225723267,-0.4202467203140259
1761338295495669000,5.5626689453125,-0.4700217545032501,0.7208296656608582,-0.31921783089637756
1761338295505734000,5.57273388671875,-0.4370051324367523,0.5662065148353577,-0.18464386463165283
1761338295515799800,5.5827998046875,-0.4017459452152252,0.3917098343372345,-0.024238483980298042
1761338295525865700,5.59286572265625,-0.35348621010780334,0.26507505774497986,0.12427450716495514
1761338295535931000,5.602930908203125,-0.2672349512577057,0.18846656382083893,0.21603797376155853
1761338295545996800,5.612996826171875,-0.14602802693843842,0.11599045246839523,0.2455822378396988
1761338295556062000,5.62306201171875,-0.01587589457631111,0.05970880389213562,0.24014246463775635
1761338295566127900,5.6331279296875,0.07183322310447693,0.006220721639692783,0.23299479484558105
1761338295576193800,5.64319384765625,0.09018373489379883,-0.025575291365385056,0.2369338721036911
1761338295586259000,5.653259033203125,0.047179050743579865,-0.05176502466201782,0.24781014025211334
1761338295596324900,5.663324951171875,-0.014963414520025253,-0.09859883785247803,0.27325478196144104
1761338295606391000,5.67339111328125,-0.04640871286392212,-0.13561362028121948,0.29283440113067627
1761338295616455700,5.68345556640625,-0.061906974762678146,-0.12047195434570312,0.24137012660503387
1761338295626521900,5.69352197265625,-0.026810547336935997,-0.026766661554574966,0.011582465842366219
1761338295636587000,5.7035869140625,-0.08569863438606262,0.04107443615794182,-0.3191736340522766
1761338295646653000,5.71365283203125,-0.35552138090133667,0.10440033674240112,-0.6378185749053955
1761338295656718800,5.72371875,-0.7490846514701843,0.14677122235298157,-0.8897973299026489
1761338295666783700,5.73378369140625,-1.153234601020813,0.17999257147312164,-1.017348289489746
1761338295676850000,5.743849853515625,-1.4707233905792236,0.123377226293087,-1.0174779891967773
1761338295686915800,5.753915771484375,-1.682214617729187,0.04444713890552521,-0.7967272400856018
1761338295696981000,5.76398095703125,-1.819336175918579,-0.003967798314988613,-0.4115273654460907
1761338295707047000,5.774046875,-1.9234821796417236,-0.1849522441625595,0.07545602321624756
1761338295717111800,5.78411181640625,-1.9443451166152954,-0.5073809027671814,0.5459728837013245
1761338295727178000,5.794177978515625,-1.8700228929519653,-0.8611387014389038,0.9231977462768555
1761338295737244000,5.804243896484375,-1.7587525844573975,-1.0900366306304932,1.1950256824493408
1761338295747309000,5.81430908203125,-1.579537272453308,-1.1211718320846558,1.3329908847808838
1761338295757374700,5.824374755859375,-1.3753117322921753,-1.0052263736724854,1.3484553098678589
1761338295767441000,5.83444091796875,-1.179010272026062,-0.8061411380767822,1.265060305595398
1761338295777505800,5.844505859375,-1.0193638801574707,-0.598739743232727,1.1290944814682007
1761338295787572000,5.854572021484375,-0.9211685657501221,-0.41107091307640076,0.9598029255867004
1761338295797636900,5.864636962890625,-0.9010225534439087,-0.2652721703052521,0.8085522055625916
1761338295807702800,5.874702880859375,-0.9245919585227966,-0.18439386785030365,0.6760917901992798
1761338295817768700,5.884768798828125,-0.9769880771636963,-0.2033846080303192,0.5329487919807434
1761338295827833900,5.894833740234375,-1.037251591682434,-0.3155862092971802,0.35822510719299316
1761338295837900000,5.904900146484375,-1.1031306982040405,-0.4477602243423462,0.1383742094039917
1761338295847966000,5.914966064453125,-1.1741173267364502,-0.5238263607025146,-0.10834553092718124
1761338295858030800,5.92503076171875,-1.2370835542678833,-0.5541608333587646,-0.34197479486465454
1761338295868096800,5.9350966796875,-1.2774875164031982,-0.555790901184082,-0.5223591327667236
1761338295878162000,5.945161865234375,-1.272364616394043,-0.556229829788208,-0.6293191313743591
1761338295888228600,5.955228515625,-1.229163646697998,-0.5380182862281799,-0.6382580995559692
1761338295898294800,5.965294677734375,-1.1697142124176025,-0.4698980748653412,-0.5274887084960938
1761338295908359700,5.975359619140625,-1.0921427011489868,-0.35983866453170776,-0.3493680953979492
1761338295918425900,5.98542578125,-0.9938998222351074,-0.24384786188602448,-0.16091032326221466
1761338295928490800,5.99549072265625,-0.9055394530296326,-0.11538272351026535,-0.035863086581230164
1761338295938556700,6.005556640625,-0.8151029944419861,0.015042660757899284,0.009665783494710922
1761338295948622600,6.01562255859375,-0.6836950778961182,0.15994557738304138,-0.027211902663111687
1761338295958687700,6.025687744140625,-0.5262157320976257,0.2985127866268158,-0.08469223976135254
1761338295968754000,6.03575390625,-0.37910640239715576,0.37317511439323425,-0.124984011054039
1761338295978819800,6.04581982421875,-0.263162225484848,0.3381231427192688,-0.1423337161540985
1761338295988884700,6.055884765625,-0.1789400279521942,0.23912490904331207,-0.12898299098014832
1761338295998950700,6.06595068359375,-0.11210053414106369,0.14697739481925964,-0.11189962178468704
1761338296009015800,6.076015869140625,-0.07602514326572418,0.0356229729950428,-0.10902176052331924
1761338296019081700,6.086081787109375,-0.0896083265542984,-0.08242244273424149,-0.12039744853973389
1761338296029147600,6.096147705078125,-0.13203735649585724,-0.1785912662744522,-0.13915404677391052
1761338296039212800,6.106212890625,-0.1637880951166153,-0.20662450790405273,-0.1973896324634552
1761338296049278700,6.11627880859375,-0.16375726461410522,-0.178940549492836,-0.2519281804561615
1761338296059345000,6.126344970703125,-0.15956996381282806,-0.10862936824560165,-0.3082500398159027
1761338296069409800,6.136409912109375,-0.18304798007011414,-0.0021501444280147552,-0.3206285834312439
1761338296079475700,6.146475830078125,-0.24322476983070374,0.10766449570655823,-0.30589568614959717
1761338296089540600,6.15654052734375,-0.3216005563735962,0.19855999946594238,-0.2693704664707184
1761338296099606800,6.166606689453125,-0.41287532448768616,0.24226488173007965,-0.24542811512947083
1761338296109672700,6.176672607421875,-0.4973568618297577,0.22449953854084015,-0.23542794585227966
1761338296119737600,6.186737548828125,-0.5736255645751953,0.17080675065517426,-0.2281239628791809
1761338296129803800,6.1968037109375,-0.6137965321540833,0.10907619446516037,-0.2000432014465332
1761338296139869700,6.20686962890625,-0.6231021285057068,0.09210493415594101,-0.1308995634317398
1761338296149934800,6.216934814453125,-0.6007877588272095,0.09389109164476395,-0.03994683921337128
1761338296160000800,6.227000732421875,-0.5441084504127502,0.07430779933929443,0.04790765047073364
1761338296170065700,6.237065673828125,-0.4737548530101776,0.05291040986776352,0.10588379204273224
1761338296180131600,6.247131591796875,-0.40261170268058777,0.09430552273988724,0.14017997682094574
1761338296190197800,6.25719775390625,-0.32227998971939087,0.17947933077812195,0.17965085804462433
1761338296200263000,6.267262939453125,-0.22400054335594177,0.26634925603866577,0.24533984065055847
1761338296210328800,6.277328857421875,-0.13123688101768494,0.34599292278289795,0.35770082473754883
1761338296220394800,6.287394775390625,-0.056301381438970566,0.4152367115020752,0.4936962127685547
1761338296230459600,6.297459716796875,-0.0013301237486302853,0.48205727338790894,0.5638200640678406
1761338296240525800,6.30752587890625,0.009366462007164955,0.4858030080795288,0.5044208765029907
1761338296250590700,6.3175908203125,-0.010552482679486275,0.3737333416938782,0.3935910761356354
1761338296260657000,6.327656982421875,-0.04306355118751526,0.16201603412628174,0.29994288086891174
1761338296270722600,6.33772265625,-0.030087675899267197,-0.03448265790939331,0.1864636093378067
1761338296280787700,6.34778759765625,0.009350808337330818,-0.2494431734085083,0.06413477659225464
1761338296290853600,6.357853515625,0.048205967992544174,-0.4949227571487427,-0.04093004763126373
1761338296300918800,6.367918701171875,0.014850673265755177,-0.7308534979820251,-0.06934916973114014
1761338296310985000,6.37798486328125,-0.09392441809177399,-0.8477299809455872,-0.05006403475999832
1761338296321050600,6.388050537109375,-0.2242954820394516,-0.80985027551651,0.005858886521309614
1761338296331115800,6.39811572265625,-0.3261050581932068,-0.6555425524711609,0.048107173293828964
1761338296341181700,6.408181640625,-0.37001872062683105,-0.44815391302108765,0.0762900710105896
1761338296351248000,6.418247802734375,-0.361140638589859,-0.2103525996208191,0.08095067739486694
1761338296361312500,6.4283125,-0.3346049189567566,0.032361775636672974,0.09345555305480957
1761338296371378700,6.438378662109375,-0.3111673891544342,0.2388036996126175,0.1370476484298706
1761338296381444600,6.448444580078125,-0.2804717719554901,0.3720152974128723,0.2113937884569168
1761338296391509800,6.458509765625,-0.23110893368721008,0.44844457507133484,0.31370893120765686
1761338296401575700,6.46857568359375,-0.16683752834796906,0.47787198424339294,0.44673091173171997
1761338296411640600,6.478640625,-0.07918354123830795,0.4951067566871643,0.5842050909996033
1761338296421706800,6.488706787109375,-0.0013036546297371387,0.47439348697662354,0.6927438378334045
1761338296431772700,6.498772705078125,0.0398755744099617,0.40022552013397217,0.748427152633667
1761338296441837800,6.508837890625,0.054340798407793045,0.29613906145095825,0.7385404706001282
1761338296451903700,6.51890380859375,0.04934109002351761,0.17365241050720215,0.672383725643158
1761338296461968600,6.52896875,0.02762487530708313,0.014803915284574032,0.5547686815261841
1761338296472034800,6.539034912109375,-0.003304558340460062,-0.16078077256679535,0.3964245617389679
1761338296482100700,6.549100830078125,-0.029166515916585922,-0.3208990693092346,0.23529481887817383
1761338296492166000,6.559165771484375,-0.029051050543785095,-0.4451816976070404,0.09245096892118454
1761338296502231800,6.569231689453125,-0.005242922343313694,-0.5313224196434021,-0.025712424889206886
1761338296512297700,6.579297607421875,0.018132928758859634,-0.6109896898269653,-0.12632447481155396
1761338296522362600,6.589362548828125,0.02388029545545578,-0.6856367588043213,-0.21202658116817474
1761338296532428800,6.5994287109375,0.02356744557619095,-0.6965355277061462,-0.2662121057510376
1761338296542493700,6.60949365234375,0.01289482694119215,-0.6198567152023315,-0.27542319893836975
1761338296552559900,6.619559814453125,-0.033115725964307785,-0.5081637501716614,-0.26137804985046387
1761338296562625500,6.62962548828125,-0.10733217000961304,-0.38807201385498047,-0.23111388087272644
1761338296572690700,6.639690673828125,-0.18991680443286896,-0.27496328949928284,-0.1966823935508728
1761338296582756900,6.6497568359375,-0.25126510858535767,-0.18470050394535065,-0.15249522030353546
1761338296592822800,6.65982275390625,-0.26578250527381897,-0.11753759533166885,-0.11665044724941254
1761338296602887700,6.6698876953125,-0.23328259587287903,-0.06215902790427208,-0.09455446898937225
1761338296612953600,6.67995361328125,-0.15333591401576996,-0.013862555846571922,-0.07817409932613373
1761338296623018800,6.690018798828125,-0.04443046823143959,0.012358395382761955,-0.06615179032087326
1761338296633084700,6.700084716796875,0.06857077032327652,0.004923993721604347,-0.07278557866811752
1761338296643150800,6.71015087890625,0.18489444255828857,0.0022294074296951294,-0.08523771911859512
1761338296653215700,6.7202158203125,0.28430187702178955,0.0024799667298793793,-0.09348013252019882
1761338296663281700,6.73028173828125,0.3614283502101898,0.005388936027884483,-0.10670512169599533
1761338296673347600,6.74034765625,0.41330212354660034,0.0220043808221817,-0.13009418547153473
1761338296683412700,6.750412841796875,0.45355767011642456,0.06882142275571823,-0.16070669889450073
1761338296693479000,6.76047900390625,0.4939051568508148,0.1209770143032074,-0.20000971853733063
1761338296703543600,6.77054345703125,0.536287248134613,0.14138296246528625,-0.226131871342659
1761338296713609700,6.780609619140625,0.5695805549621582,0.17024998366832733,-0.23837235569953918
1761338296723675600,6.790675537109375,0.607558012008667,0.20004995167255402,-0.21593603491783142
1761338296733740800,6.80074072265625,0.6383588314056396,0.20530198514461517,-0.16319161653518677
1761338296743806700,6.810806640625,0.662624180316925,0.1781366765499115,-0.0938628613948822
1761338296753872600,6.82087255859375,0.6784874796867371,0.145541250705719,-0.024649538099765778
1761338296763937800,6.830937744140625,0.6932458877563477,0.12974123656749725,0.021467890590429306
1761338296774003700,6.841003662109375,0.7264753580093384,0.11799901723861694,0.03886563703417778
1761338296784068900,6.85106884765625,0.7868862152099609,0.09293361753225327,0.022595055401325226
1761338296794134800,6.861134765625,0.881279706954956,0.04799981042742729,-0.0030380282551050186
1761338296804200700,6.87120068359375,0.9881715178489685,0.007921101525425911,-0.048445992171764374
1761338296814265600,6.881265625,1.0948978662490845,-0.03627849370241165,-0.1138034388422966
1761338296824331800,6.891331787109375,1.177119493484497,-0.1098342016339302,-0.18904812633991241
1761338296834397000,6.90139697265625,1.230350136756897,-0.21349993348121643,-0.26436877250671387
1761338296844462600,6.911462646484375,1.2601979970932007,-0.35359737277030945,-0.3198954164981842
1761338296854528800,6.92152880859375,1.2820544242858887,-0.5089880228042603,-0.3298594057559967
1761338296864593700,6.93159375,1.3089851140975952,-0.6119312047958374,-0.30709949135780334
1761338296874659800,6.941659912109375,1.331091284751892,-0.6442400813102722,-0.23678776621818542
1761338296884725800,6.951725830078125,1.3541935682296753,-0.6311801671981812,-0.15372537076473236
1761338296894790100,6.9617900390625,1.3612139225006104,-0.5876399278640747,-0.07022799551486969
1761338296904856300,6.971856201171875,1.3387970924377441,-0.5546516180038452,-0.031013213098049164
1761338296914922200,6.981922119140625,1.31023371219635,-0.5453423261642456,-0.039631087332963943
1761338296924987400,6.9919873046875,1.267288327217102,-0.5379208922386169,-0.11266481876373291
1761338296935053300,7.00205322265625,1.2088385820388794,-0.5041875839233398,-0.2335485816001892
1761338296945118200,7.0121181640625,1.1198530197143555,-0.484676718711853,-0.3796927332878113
1761338296955184000,7.02218408203125,1.022421956062317,-0.45003798604011536,-0.48521462082862854
1761338296965250300,7.032250244140625,0.9834597110748291,-0.3325643539428711,-0.5187757611274719
1761338296975315500,7.0423154296875,1.0330876111984253,-0.17870835959911346,-0.47822636365890503
1761338296985381000,7.052381103515625,1.1391085386276245,0.012587303295731544,-0.3756243586540222
1761338296995446300,7.0624462890625,1.28244948387146,0.24346758425235748,-0.19737608730793
1761338297005512200,7.07251220703125,1.416030764579773,0.4448276162147522,0.02006356231868267
1761338297015578400,7.082578369140625,1.4976496696472168,0.5972405672073364,0.23988069593906403
1761338297025643300,7.092643310546875,1.5495357513427734,0.6963626146316528,0.44808292388916016
1761338297035709200,7.102709228515625,1.5914762020111084,0.7590104341506958,0.6366429328918457
1761338297045775000,7.112775146484375,1.6441831588745117,0.8010918498039246,0.7883616089820862
1761338297055840300,7.12284033203125,1.7021101713180542,0.7966647744178772,0.8973881602287292
1761338297065906200,7.13290625,1.7490116357803345,0.6833411455154419,0.9516354203224182
1761338297075971000,7.14297119140625,1.7613979578018188,0.49687519669532776,0.946179986000061
1761338297086037200,7.153037353515625,1.7471702098846436,0.3120816648006439,0.8650872707366943
1761338297096103200,7.163103271484375,1.7203826904296875,0.16127730906009674,0.7401215434074402
1761338297106168300,7.173168212890625,1.6964385509490967,0.03890451788902283,0.6002741456031799
1761338297116234200,7.183234130859375,1.6667803525924683,-0.07597775012254715,0.4632135033607483
1761338297126300400,7.193300537109375,1.620036244392395,-0.22593583166599274,0.33323100209236145
1761338297136365000,7.203364990234375,1.5399218797683716,-0.40105897188186646,0.2038963884115219
1761338297146431200,7.21343115234375,1.4238765239715576,-0.5264996886253357,0.06810925900936127
1761338297156496400,7.223496337890625,1.3131614923477173,-0.5248726606369019,-0.07757656276226044
1761338297166562300,7.233562255859375,1.198326826095581,-0.4299280643463135,-0.2337736338376999
1761338297176628200,7.243628173828125,1.0714167356491089,-0.30599841475486755,-0.36358246207237244
1761338297186693000,7.253693115234375,0.9348554015159607,-0.2005351185798645,-0.4312054514884949
1761338297196759300,7.26375927734375,0.8294346332550049,-0.09229153394699097,-0.4017539620399475
1761338297206825200,7.2738251953125,0.7770012617111206,0.062353432178497314,-0.29042932391166687
1761338297216890400,7.283890380859375,0.7994111776351929,0.24784621596336365,-0.13817499577999115
1761338297226956000,7.2939560546875,0.8701745867729187,0.41593456268310547,0.034484121948480606
1761338297237021200,7.304021240234375,0.948759913444519,0.5010851621627808,0.1903602033853531
1761338297247087400,7.31408740234375,1.0039927959442139,0.46004533767700195,0.31741800904273987
1761338297257153300,7.3241533203125,1.0349382162094116,0.3524879813194275,0.40807175636291504
1761338297267218400,7.334218505859375,1.0406904220581055,0.22537848353385925,0.4663390517234802
1761338297277284000,7.3442841796875,1.0626730918884277,0.13279372453689575,0.47829970717430115
1761338297287350300,7.354350341796875,1.0910192728042603,0.07472801208496094,0.4157750606536865
1761338297297415200,7.364415283203125,1.1014238595962524,0.0351022332906723,0.2871951162815094
1761338297307481300,7.3744814453125,1.089418649673462,0.037639692425727844,0.12293344736099243
1761338297317546200,7.384546142578125,1.0475877523422241,0.05154397711157799,-0.052260491997003555
1761338297327612200,7.394612060546875,0.9289299249649048,0.012581929564476013,-0.21964123845100403
1761338297337678000,7.404677978515625,0.7495729327201843,-0.05547478795051575,-0.3525012731552124
1761338297347743200,7.4147431640625,0.5852542519569397,-0.12320563197135925,-0.4201391637325287
1761338297357809400,7.424809326171875,0.474409282207489,-0.16358377039432526,-0.4290192127227783
1761338297367875300,7.434875244140625,0.4047428369522095,-0.18712212145328522,-0.409540057182312
1761338297377940200,7.444940185546875,0.33715975284576416,-0.20157493650913239,-0.38041970133781433
1761338297388006100,7.455006103515625,0.24454540014266968,-0.16015878319740295,-0.35106101632118225
1761338297398071300,7.4650712890625,0.12093210965394974,-0.09273214638233185,-0.31180310249328613
1761338297408137200,7.47513720703125,0.014969727024435997,-0.015510860830545425,-0.2726772725582123
1761338297418203400,7.485203369140625,-0.03771384060382843,0.0598573163151741,-0.23759214580059052
1761338297428268300,7.495268310546875,-0.04583008959889412,0.1731678992509842,-0.23036593198776245
1761338297438334200,7.505334228515625,-0.05150274932384491,0.2555186152458191,-0.21702441573143005
1761338297448399400,7.5153994140625,-0.06457008421421051,0.2614539861679077,-0.18142621219158173
1761338297458465300,7.52546533203125,-0.08567582815885544,0.2323988527059555,-0.1268961876630783
1761338297468531200,7.53553125,-0.09765845537185669,0.18018944561481476,-0.0713769942522049
1761338297478596000,7.54559619140625,-0.09058350324630737,0.06340637058019638,-0.019501283764839172
1761338297488662300,7.555662353515625,-0.0651782751083374,-0.0800543874502182,0.030557090416550636
1761338297498728200,7.565728271484375,-0.04994138330221176,-0.18592151999473572,0.10380052775144577
1761338297508793300,7.57579345703125,-0.06906474381685257,-0.23901161551475525,0.1912161260843277
1761338297518859300,7.585859375,-0.14330676198005676,-0.2633579969406128,0.27268970012664795
1761338297528925200,7.59592529296875,-0.2533254325389862,-0.254334956407547,0.34422141313552856
1761338297538990300,7.605990234375,-0.3782508075237274,-0.2124667465686798,0.4033861756324768
1761338297549056300,7.61605615234375,-0.45830410718917847,-0.1407691240310669,0.43641576170921326
1761338297559121200,7.62612109375,-0.5543211698532104,-0.25243425369262695,0.4980328381061554
1761338297569187000,7.63618701171875,-0.5920147895812988,-0.3042151629924774,0.4775456488132477
1761338297579253200,7.646253173828125,-0.6086357831954956,-0.3168008625507355,0.3713728189468384
1761338297589318400,7.656318359375,-0.5965402126312256,-0.37003931403160095,0.21471825242042542
1761338297599384300,7.66638427734375,-0.5742310285568237,-0.6422381401062012,0.11338075250387192
1761338297609449200,7.67644921875,-0.5993435978889465,-1.10401451587677,0.02188599482178688
1761338297619515100,7.68651513671875,-0.6619603633880615,-1.532241702079773,-0.060276709496974945
1761338297629581300,7.696581298828125,-0.6923435926437378,-1.7685763835906982,-0.17710745334625244
1761338297639646200,7.706646240234375,-0.6585990786552429,-1.761565089225769,-0.3380027711391449
1761338297649712400,7.71671240234375,-0.5415552854537964,-1.6158720254898071,-0.5296452045440674
1761338297659778300,7.7267783203125,-0.392571359872818,-1.2920176982879639,-0.7087206840515137
1761338297669843200,7.73684326171875,-0.24838542938232422,-0.8114132285118103,-0.8056080937385559
1761338297679909000,7.7469091796875,-0.11848793178796768,-0.32463327050209045,-0.7811468839645386
1761338297689974300,7.756974365234375,-0.010092483833432198,0.06593260169029236,-0.6475182771682739
1761338297700040400,7.76704052734375,0.09011630713939667,0.24710053205490112,-0.42101895809173584
1761338297710106000,7.777106201171875,0.2114427238702774,0.3123314678668976,-0.12787975370883942
1761338297720171300,7.787171142578125,0.37887975573539734,0.3585311472415924,0.19692035019397736
1761338297730237200,7.7972373046875,0.5515556335449219,0.3898051679134369,0.47615545988082886
1761338297740303400,7.807303466796875,0.7001491785049438,0.35853493213653564,0.64032381772995
1761338297750368300,7.8173681640625,0.8161383867263794,0.33046361804008484,0.6714803576469421
1761338297760434200,7.82743408203125,0.9084692001342773,0.32870981097221375,0.5897180438041687
1761338297770499300,7.837499267578125,0.9708476066589355,0.2708323895931244,0.41505834460258484
1761338297780565200,7.847565185546875,0.9788937568664551,0.15711674094200134,0.15680164098739624
1761338297790631200,7.857631103515625,0.9382035732269287,0.019620146602392197,-0.1304818093776703
1761338297800696000,7.867696044921875,0.8455823063850403,-0.15432392060756683,-0.3902401924133301
1761338297810762200,7.87776220703125,0.7061663866043091,-0.3398381173610687,-0.5734826922416687
1761338297820828200,7.887828125,0.5859658122062683,-0.399038165807724,-0.6768057346343994
1761338297830893300,7.897893310546875,0.49353331327438354,-0.35745689272880554,-0.6976109147071838
1761338297840959200,7.907959228515625,0.3948279023170471,-0.2574990391731262,-0.6206464767456055
1761338297851024100,7.918024169921875,0.3049004077911377,-0.09023573994636536,-0.4729323983192444
1761338297861090300,7.92809033203125,0.2332760989665985,0.14251434803009033,-0.2831675708293915
1761338297871156200,7.93815625,0.208621084690094,0.39648324251174927,-0.10702024400234222
1761338297881221400,7.948221435546875,0.2244754433631897,0.574978232383728,0.041316449642181396
1761338297891287300,7.958287353515625,0.25147056579589844,0.6695470809936523,0.15702760219573975
1761338297901353500,7.968353515625,0.28254687786102295,0.7273980975151062,0.23811672627925873
1761338297911418400,7.97841845703125,0.30904293060302734,0.7478516697883606,0.2867247462272644
1761338297921484500,7.988484619140625,0.33016446232795715,0.7188466787338257,0.31350815296173096
1761338297931549200,7.998549072265625,0.3522564470767975,0.6572168469429016,0.316714346408844
1761338297941614300,8.0086142578125,0.38106000423431396,0.5853307247161865,0.26973339915275574
1761338297951680500,8.018680419921875,0.4041445255279541,0.5089811086654663,0.16139626502990723
1761338297961746400,8.028746337890626,0.4358048439025879,0.46509337425231934,0.018009157851338387
1761338297971811300,8.038811279296874,0.496128648519516,0.4540708065032959,-0.1090763509273529
1761338297981877200,8.048877197265625,0.5791372060775757,0.4392499625682831,-0.21095368266105652
1761338297991943400,8.058943359375,0.6650577187538147,0.36859098076820374,-0.28587907552719116
1761338298002008300,8.06900830078125,0.7480949759483337,0.24256561696529388,-0.3475186824798584
1761338298012074500,8.079074462890626,0.824446976184845,0.10549965500831604,-0.3927391469478607
1761338298022139400,8.089139404296875,0.8677520751953125,-0.019687984138727188,-0.41973260045051575
1761338298032205300,8.099205322265625,0.8634832501411438,-0.10482524335384369,-0.4443513751029968
1761338298042271500,8.109271484375,0.8023591041564941,-0.14656272530555725,-0.46277421712875366
1761338298052336400,8.11933642578125,0.7334538102149963,-0.1429852992296219,-0.46029481291770935
1761338298062402600,8.129402587890626,0.6811912059783936,-0.09993792325258255,-0.39540085196495056
1761338298072468200,8.13946826171875,0.6274241209030151,-0.06102568283677101,-0.30812108516693115
1761338298082533400,8.149533447265625,0.5598228573799133,-0.06974894553422928,-0.23744943737983704
1761338298092599300,8.159599365234374,0.4641501307487488,-0.11622802913188934,-0.2147185504436493
1761338298102664400,8.16966455078125,0.32624784111976624,-0.1617140769958496,-0.22577831149101257
1761338298112730400,8.17973046875,0.18222753703594208,-0.1705019772052765,-0.25294947624206543
1761338298122796300,8.18979638671875,0.07757292687892914,-0.1436977982521057,-0.28440529108047485
1761338298132861400,8.199861328125,0.026385903358459473,-0.08024878799915314,-0.3061177730560303
1761338298142927400,8.20992724609375,0.011396357789635658,-0.02588047832250595,-0.30079445242881775
1761338298152993500,8.21999365234375,0.021668436005711555,0.006178122945129871,-0.2515731155872345
1761338298163058200,8.23005810546875,0.05855172127485275,0.01495676301419735,-0.15742060542106628
1761338298173124400,8.240124267578125,0.09041165560483932,-0.02572515234351158,-0.0497167743742466
1761338298183189500,8.250189453125,0.027067506685853004,-0.07178685814142227,0.08248604089021683
1761338298193255400,8.26025537109375,-0.0623776875436306,-0.07505535334348679,0.17426683008670807
1761338298203321300,8.2703212890625,-0.08575917780399323,-0.13682284951210022,0.17338106036186218
1761338298213386200,8.28038623046875,-0.0999562218785286,-0.27878984808921814,0.10281261801719666
1761338298223452400,8.290452392578125,-0.129618838429451,-0.3534322679042816,0.03622809424996376
1761338298233518300,8.300518310546876,-0.17561297118663788,-0.3248472213745117,0.019940201193094254
1761338298243583500,8.31058349609375,-0.19203752279281616,-0.2696133852005005,0.036202576011419296
1761338298253649400,8.3206494140625,-0.15126639604568481,-0.20111076533794403,0.05646630376577377
1761338298263714300,8.33071435546875,-0.06641337275505066,-0.08806095272302628,0.0995326042175293
1761338298273780200,8.3407802734375,0.05693412944674492,0.07277560234069824,0.2068987488746643
1761338298283846400,8.350846435546876,0.17062564194202423,0.20217174291610718,0.40574145317077637
1761338298293911600,8.36091162109375,0.20874826610088348,0.23399145901203156,0.6334939002990723
1761338298303977200,8.370977294921875,0.23352473974227905,0.18444284796714783,0.8852861523628235
1761338298314042400,8.38104248046875,0.27488628029823303,0.05206615850329399,1.123388648033142
1761338298324108300,8.3911083984375,0.32950928807258606,-0.10380017012357712,1.3243756294250488
1761338298334174500,8.401174560546876,0.38266146183013916,-0.23915612697601318,1.465878963470459
1761338298344240400,8.411240478515625,0.43447771668434143,-0.31910550594329834,1.5281784534454346
1761338298354306600,8.421306640625,0.4832569658756256,-0.3680275082588196,1.4958372116088867
1761338298364371200,8.43137109375,0.5119298100471497,-0.4035887122154236,1.3935918807983398
1761338298374437400,8.441437255859375,0.5386170744895935,-0.3889189660549164,1.227460265159607
1761338298384502500,8.45150244140625,0.548093318939209,-0.3258052468299866,1.007173776626587
1761338298394568400,8.461568359375,0.5304732918739319,-0.27298277616500854,0.7350772023200989
1761338298404634400,8.47163427734375,0.49584126472473145,-0.2630961835384369,0.4371417462825775
1761338298414699300,8.48169921875,0.44027653336524963,-0.32664692401885986,0.1555233746767044
1761338298424765400,8.491765380859375,0.3361649513244629,-0.3837563395500183,-0.07718835771083832
1761338298434831400,8.501831298828124,0.22322748601436615,-0.33436962962150574,-0.2523529827594757
1761338298444896500,8.511896484375,0.1494712084531784,-0.16349323093891144,-0.3723384737968445
1761338298454962200,8.521962158203126,0.12583060562610626,0.09479530900716782,-0.425642728805542
1761338298465027300,8.53202734375,0.15219742059707642,0.35237210988998413,-0.41228342056274414
1761338298475093200,8.54209326171875,0.20703138411045074,0.5541041493415833,-0.33883821964263916
1761338298485159400,8.552159423828124,0.2745531499385834,0.6355144381523132,-0.23240235447883606
1761338298495224600,8.562224609375,0.36051812767982483,0.5888451933860779,-0.08499106019735336
1761338298505290200,8.572290283203126,0.45166724920272827,0.4963310956954956,0.1193748265504837
1761338298515356400,8.5823564453125,0.5265478491783142,0.38491907715797424,0.3337153494358063
1761338298525421300,8.59242138671875,0.586108386516571,0.24082428216934204,0.5014063715934753
1761338298535487500,8.602487548828124,0.6486213207244873,0.07999145239591599,0.5913026928901672
1761338298545553400,8.612553466796875,0.7296430468559265,-0.07913553714752197,0.5718159675598145
1761338298555618300,8.622618408203126,0.804021418094635,-0.18608835339546204,0.4575144648551941
1761338298565684200,8.632684326171875,0.8510240316390991,-0.1697656512260437,0.2944174110889435
1761338298575749400,8.642749267578125,0.8778008222579956,-0.061086058616638184,0.11722399294376373
1761338298585815600,8.652815673828124,0.8815182447433472,0.03906109929084778,-0.0326104499399662
1761338298595881500,8.662881591796875,0.8717727065086365,0.0918971449136734,-0.13599197566509247
1761338298605946400,8.6729462890625,0.8338704109191895,0.08816012740135193,-0.1789558231830597
1761338298616012300,8.68301220703125,0.7732893824577332,0.06922531872987747,-0.19262103736400604
1761338298626078500,8.693078369140625,0.7027332782745361,0.0320977121591568,-0.18353790044784546
1761338298636143400,8.703143310546874,0.613083004951477,-0.021816648542881012,-0.1431579887866974
1761338298646209500,8.71320947265625,0.513313353061676,-0.04618612304329872,-0.10388016700744629
1761338298656274400,8.7232744140625,0.45166096091270447,0.022949539124965668,-0.06850992143154144
1761338298666340400,8.73334033203125,0.4278425872325897,0.1737528294324875,-0.06617342680692673
1761338298676406300,8.74340625,0.4284535050392151,0.33214035630226135,-0.10112714767456055
1761338298686471400,8.753471435546874,0.41356360912323,0.47519683837890625,-0.16331633925437927
1761338298696537300,8.763537353515625,0.3935853838920593,0.5925953984260559,-0.22697708010673523
1761338298706603300,8.773603271484374,0.390815407037735,0.6818194389343262,-0.2518584132194519
1761338298716668400,8.78366845703125,0.42010247707366943,0.7550185918807983,-0.2329225391149521
1761338298726734300,8.793734375,0.49161866307258606,0.8820986747741699,-0.14315053820610046
1761338298736799500,8.803799560546874,0.5585486888885498,1.0893982648849487,0.1349055916070938
1761338298746865200,8.813865234375,0.4288574457168579,0.9275094866752625,0.5705503225326538
1761338298756931300,8.823931396484374,0.27646392583847046,0.27387601137161255,0.7136265635490417
1761338298766996500,8.83399658203125,0.26301464438438416,-0.13083112239837646,0.6380171179771423
1761338298777062400,8.8440625,0.3518151044845581,-0.1202397346496582,0.4852696359157562
1761338298787128600,8.854128662109375,0.41517186164855957,0.08875258266925812,0.2701459527015686
1761338298797193200,8.864193115234375,0.44057390093803406,0.26518887281417847,0.010535412468016148
1761338298807259400,8.87425927734375,0.48157718777656555,0.3815521001815796,-0.196676567196846
1761338298817324300,8.88432421875,0.5524143576622009,0.4860644042491913,-0.2768566310405731
1761338298827390500,8.894390380859376,0.5911872386932373,0.5249319672584534,-0.25490760803222656
1761338298837456400,8.904456298828125,0.5631675720214844,0.4894373416900635,-0.1295938789844513
1761338298847521300,8.914521240234375,0.46986597776412964,0.3884143531322479,0.0624721460044384
