time,seconds_elapsed,z,y,x
1761338265318924800,0.0869248046875,0.3661164546489715,-0.5457198653444647,0.0008548815299756824
1761338265328990000,0.096989990234375,0.3129261317312717,-0.45414545123577116,0.10360027613556012
1761338265339056000,0.10705615234375,0.19220073420107364,-0.4296476273823529,0.19735917641017584
1761338265349122000,0.1171220703125,0.14045359582901001,-0.3843775030046701,0.1432188592912629
1761338265359187200,0.127187255859375,0.15311258639395237,-0.3251543296635151,0.11574234842061996
1761338265369252900,0.1372529296875,0.3280295928388834,-0.2566930801168084,0.1797959010602906
1761338265379318000,0.147318115234375,0.5654378345102071,-0.09631773617826402,0.3077351024268195
1761338265389384000,0.157384033203125,0.654018619760871,-0.1886670801822096,0.3637948067683726
1761338265399450000,0.1674501953125,0.6812982563525438,-0.32139117773771286,0.28238190385308115
1761338265409515000,0.177514892578125,0.609597878754139,-0.35864451133310793,0.20135968075580893
1761338265419581000,0.187580810546875,0.607742021754384,-0.3858235370945185,0.19082294304184613
1761338265429646000,0.19764599609375,0.6385930870920419,-0.4652341237440705,0.26748408485278485
1761338265439712000,0.2077119140625,0.8172983799040318,-0.5150247212208807,0.35832938096933065
1761338265449778200,0.217778076171875,1.0110673863351345,-0.5700110607098787,0.41477476016022263
1761338265459842800,0.2278427734375,1.1088999840557574,-0.6492940023917705,0.36380299007482825
1761338265469909000,0.237908935546875,1.016045759269595,-0.8121507878825068,0.316789456095919
1761338265479975000,0.247974853515625,0.6362731197118758,-0.8879789860006422,0.18659904173649847
1761338265490040000,0.2580400390625,0.11648644478619098,-0.7929707980509847,0.03387910792194307
1761338265500106000,0.26810595703125,-0.39228433060646056,-0.6407743766538798,0.10548724065963178
1761338265510171000,0.2781708984375,-0.6678524993240833,-0.3106440852086991,0.2880805538861081
1761338265520237000,0.288237060546875,-0.5687497355371713,-0.10250570409819483,0.45227191244885323
1761338265530303000,0.298302978515625,-0.2512315998405218,-0.17790026003941892,0.5913265282001346
1761338265540368100,0.3083681640625,0.1172264494985342,-0.37648243890590966,0.7026948993202299
1761338265550434000,0.31843408203125,0.535618450307846,-0.6627190819583832,0.6412133525930345
1761338265560500000,0.3285,0.7395066996932029,-1.0195452918231487,0.534915928061679
1761338265570564900,0.33856494140625,0.7739969983160495,-1.4059978475362063,0.4751228824106976
1761338265580631000,0.348631103515625,0.6221294435471296,-1.6664165240474045,0.3383342022974044
1761338265590696200,0.3586962890625,0.21950492071211336,-1.5399227722488342,0.12915142670050261
1761338265600762000,0.36876220703125,-0.0809101044923067,-1.1790572238653898,0.05236519720517099
1761338265610828000,0.378828125,-0.1614466994971037,-0.964055532856658,0.3029267888296395
1761338265620893000,0.388892822265625,-0.15778934603333472,-1.0338811295591295,0.6593388649355619
1761338265630959000,0.398958984375,-0.10801438451707362,-1.1833649309966712,0.8517832716993987
1761338265641024000,0.40902392578125,-0.0498182161360979,-1.3089661909349262,0.892687821278721
1761338265651090000,0.41908984375,-0.09388707496523857,-1.4656353007666765,0.8823898607566952
1761338265661155800,0.42915576171875,-0.05086158770918846,-1.5416859825290739,0.7837715925510972
1761338265671221000,0.439220947265625,-0.025710195317864417,-1.5701833243474363,0.7111362721901386
1761338265681287200,0.449287109375,-0.037982816913723946,-1.5477036353833973,0.683360449579358
1761338265691353000,0.45935302734375,0.08758359090685844,-1.4980392946347594,0.7173576309230179
1761338265701418000,0.46941796875,0.2234989587843418,-1.455109376707673,0.7505746216744184
1761338265711484000,0.47948388671875,0.24326398196220397,-1.4241922603964805,0.7870567517016083
1761338265721549000,0.489549072265625,0.15952596056759358,-1.3628254991553723,0.9079308369874953
1761338265731615000,0.499614990234375,-0.02576981655061245,-1.2286539062052964,1.0572422775328159
1761338265741681200,0.50968115234375,-0.13509586818814276,-1.109784950196743,1.173258109132573
1761338265751746000,0.51974609375,-0.12874737594425678,-1.1813592171974479,1.0306974580217152
1761338265761812000,0.52981201171875,-0.16956103236973286,-1.467979671935737,0.6316022052913903
1761338265771877000,0.539877197265625,-0.3394435517787933,-1.7556472976393998,0.24470358631126582
1761338265781943000,0.549943115234375,-0.8897294098645449,-1.8665036275841294,0.007779767156019806
1761338265792009200,0.56000927734375,-1.5123814159810542,-1.963642251691222,-0.021948796957731245
1761338265802073900,0.570073974609375,-1.9443980375170706,-1.8214708921588956,0.13393011234439908
1761338265812140000,0.58014013671875,-2.159106371602416,-1.4428341247633099,0.35698286173120136
1761338265822206000,0.5902060546875,-2.1948925552546976,-1.0836100599765777,0.6548383386459201
1761338265832271000,0.60027099609375,-2.1184669027000664,-0.8696954335521906,0.9146489662613719
1761338265842337000,0.6103369140625,-1.9198609776318072,-0.6586895341813563,1.0548962989285589
1761338265852402000,0.62040185546875,-1.5141875886201857,-0.4352025946283713,1.20342060768418
1761338265862467600,0.630467529296875,-0.9473615146219729,-0.34432602659072725,1.2144483437854796
1761338265872533500,0.640533447265625,-0.3502455163002014,-0.1870331953700632,1.0658101993918419
1761338265882598700,0.6505986328125,0.017540332865715026,-0.07017132313391193,0.7357528270523995
1761338265892664600,0.66066455078125,0.15695289520919323,-0.4744841461157426,0.12122151048406958
1761338265902730500,0.67073046875,0.013424714240431785,-0.7371276956021785,-0.5733323871523142
1761338265912795600,0.680795654296875,-0.32465865510106084,-0.8678831964984536,-1.051944244189933
1761338265922861600,0.690861572265625,-0.6633142713725566,-1.0555543244458734,-1.2440247860774396
1761338265932926700,0.7009267578125,-0.9473550848811865,-1.2116764679193497,-1.3734991611219942
1761338265942992400,0.710992431640625,-1.1325906562447547,-1.18706239727512,-1.4416639119401573
1761338265953058600,0.72105859375,-1.5352099183827639,-0.9264699716322123,-1.3882482558339833
1761338265963123500,0.73112353515625,-1.9737679243862627,-0.5131614480996504,-1.097972420393303
1761338265973189600,0.741189697265625,-2.2313830877840517,-0.12221483237035571,-0.6118063485838473
1761338265983254800,0.7512548828125,-2.3160773869901896,0.14100410585124046,-0.14972214023806155
1761338265993320400,0.761320556640625,-2.1066887866228816,0.4355572898175567,0.26670141004249454
1761338266003386600,0.77138671875,-1.5742787769675255,0.7402269767917692,0.5555731508389115
1761338266013451500,0.781451416015625,-0.8965630552768706,0.9222682090934365,0.8225647029343992
1761338266023517700,0.791517578125,-0.34048692335188385,1.0242308192908762,0.9740596980638802
1761338266033583600,0.80158349609375,-0.057903322914242744,1.1600850315656512,0.8868121341783552
1761338266043648500,0.8116484375,0.05533259564340114,1.2712529847428202,0.6064488401386886
1761338266053714400,0.82171435546875,0.3750263218134641,1.2621981561496853,0.3301308759670704
1761338266063779600,0.831779541015625,0.8344318855345249,1.1073563348103315,0.0537161734227091
1761338266073845500,0.841845458984375,1.4401140521496534,0.8225583462588488,-0.21513211245536804
1761338266083911700,0.85191162109375,2.104495660492778,0.554173147847876,-0.42643158794529734
1761338266093976600,0.8619765625,2.65753987737596,0.29410189653486013,-0.5425516836371272
1761338266104042500,0.87204248046875,2.7888468746751545,0.061438803564012046,-0.5025078425403684
1761338266114108700,0.882108642578125,2.4501643703967333,-0.06646627633720636,-0.4154401652663946
1761338266124173600,0.892173583984375,1.837314211848378,-0.16410086726769804,-0.45772462489679455
1761338266134239700,0.90223974609375,1.0574240638405084,-0.27986323556303977,-0.6963711761914193
1761338266144304600,0.9123046875,0.4637520684927702,-0.22153481910452244,-0.9712237439855933
1761338266154370600,0.92237060546875,0.1694844600021839,-0.052851884743571276,-0.9932508668765425
1761338266164436500,0.9324365234375,0.17299977464675903,-0.06497530712708831,-0.6726110920280217
1761338266174501600,0.942501708984375,0.3549392270743847,-0.14686068639233707,-0.23227423978373407
1761338266184567600,0.952567626953125,0.5915186167061328,-0.13141601063162087,0.10576002971902489
1761338266194632400,0.962632568359375,0.7875514764159918,-0.050979515000432726,0.2984012011639774
1761338266204698600,0.97269873046875,0.9152753545314073,0.03469904600270092,0.3893488616764545
1761338266214764500,0.9827646484375,1.1362030015230178,0.08940642241984605,0.4731272150814533
1761338266224829700,0.99282958984375,1.4029893133699893,0.08491291039288043,0.5272372101273387
1761338266234895400,1.002895263671875,1.522973537144065,0.10292327192313969,0.602152165858075
1761338266244961500,1.01296142578125,1.5428993038415908,0.14120543710961936,0.6673541944131255
1761338266255026700,1.023026611328125,1.4241794009149074,0.15275398221462963,0.7288486006218939
1761338266265092600,1.033092529296875,1.1011550690174101,0.1374689539950341,0.7449037364311516
1761338266275157500,1.043157470703125,0.810350752723217,0.20413177581764758,0.79189549696967
1761338266285223400,1.053223388671875,0.616349106580019,0.21771401870734988,0.8605199742540717
1761338266295289600,1.06328955078125,0.5878577561110258,0.21984584310427308,0.7823688130810856
1761338266305354500,1.0733544921875,0.7666875520855188,0.04806581951081752,0.6575244359247386
1761338266315420700,1.083420654296875,0.8498352063715457,-0.284512230412662,0.5054662539545446
1761338266325485600,1.093485595703125,0.6591191577702761,-0.6143892046838998,0.29739706562273205
1761338266335551500,1.103551513671875,0.22602058621644971,-0.8474524759534746,-0.013861352092027664
1761338266345617400,1.113617431640625,-0.3105120563268661,-1.0949018538415431,-0.20348471008576452
1761338266355682600,1.1236826171875,-0.873240631878376,-1.4004087953574955,-0.22830036771669981
1761338266365748700,1.133748779296875,-1.2646914342701434,-1.523039441987127,-0.2558002229303121
1761338266375814700,1.143814697265625,-1.3880518564790487,-1.7054558642767368,-0.16106632187739015
1761338266385879600,1.153879638671875,-1.3520318640708922,-2.0288120584771034,-0.020374094986915586
1761338266395945500,1.163945556640625,-1.3885066145092249,-2.403824936287105,0.04212992665581405
1761338266406010600,1.1740107421875,-1.6144845306277273,-2.853448233923316,-0.08860913456231355
1761338266416076500,1.18407666015625,-1.9339450325638055,-3.207323631158471,-0.5548154643394053
1761338266426142500,1.194142578125,-2.168643430754542,-3.4584640455842015,-1.3523239788852632
1761338266436207600,1.20420751953125,-2.2901439043104648,-3.180737529788911,-2.3276224249638617
1761338266446273500,1.2142734375,-2.570438517028093,-2.6479548874288796,-3.09945362354815
1761338266456339700,1.224339599609375,-2.699849909839034,-1.93758280454427,-3.3083722683161496
1761338266466404600,1.234404541015625,-2.35747907243669,-1.0544822382349521,-2.80593887925148
1761338266476470500,1.244470458984375,-1.4047528159111737,-0.23009696880988775,-1.8422914157390593
1761338266486535400,1.254535400390625,-0.09028875821232796,0.6667152389224619,-1.0124665125433354
1761338266496601600,1.2646015625,1.1662807444006205,1.3316772044368088,-0.2171860493104905
1761338266506667500,1.27466748046875,1.9201807111054658,1.4194642089612781,0.5209017965607344
1761338266516732400,1.284732421875,2.0543501120984553,1.1594069131083786,0.7676598311837762
1761338266526798600,1.294798583984375,1.672722200062871,1.145586185287684,0.32464718385897573
1761338266536864500,1.304864501953125,0.9901555312097072,1.13490485147126,-0.21660247726887463
1761338266546929700,1.3149296875,0.21237901435494422,0.8972302139487117,-0.3812288297154009
1761338266556995600,1.32499560546875,-0.6012456454724073,0.6882798588681965,-0.27336218310594557
1761338266567060500,1.335060546875,-1.4282728077083826,0.691997345021367,-0.08267470301203429
1761338266577126400,1.34512646484375,-2.000646578961611,0.8734452876050025,0.1131678217574954
1761338266587192600,1.355192626953125,-2.2150252427011727,1.0226944035038352,0.4339495623599738
1761338266597257700,1.3652578125,-2.0655232480198142,1.073822971586138,0.7977629276983439
1761338266607323600,1.37532373046875,-1.4884814849555492,1.0304719056375324,1.1204405650500207
1761338266617388500,1.385388427734375,-0.7127373507112265,0.9214023129791021,1.2665306323960424
1761338266627454500,1.395454345703125,0.038408348849415776,0.8289723049543798,1.164540476604551
1761338266637520600,1.405520751953125,0.7291542325049638,0.7211588498368859,1.022956707701832
1761338266647585500,1.41558544921875,1.2638105597823857,0.5721683848742395,0.8999792934611439
1761338266657651700,1.425651611328125,1.5608008712351322,0.44363706283345816,0.8228600326191633
1761338266667716600,1.435716552734375,1.7512205672383307,0.5588366826795041,0.713473336835578
1761338266677782500,1.445782470703125,1.8526269317924975,0.7173388531573116,0.6741597827747464
1761338266687848400,1.455848388671875,1.8627075963020323,0.8157416519813239,0.7181709200672804
1761338266697913600,1.46591357421875,1.8076053022831677,0.9423280504994094,0.7954113961361348
1761338266707979800,1.475979736328125,1.7716127824038266,0.978662807945162,0.8480946463145315
1761338266718045400,1.48604541015625,1.7155121249973773,0.9292295725386589,0.8973759790949523
1761338266728110600,1.496110595703125,1.6673849306881428,0.7403966342702507,0.8562390820644795
1761338266738176500,1.506176513671875,1.6067185728013516,0.5360459550049156,0.7402582487128675
1761338266748241700,1.51624169921875,1.3768851502984762,0.39610206226371225,0.5977261661093681
1761338266758307600,1.5263076171875,0.995648283407092,0.2604360660374164,0.43153782504312693
1761338266768373500,1.53637353515625,0.575393411335349,0.1492217895004898,0.3161568207481876
1761338266778438700,1.546438720703125,0.04071721031367779,0.05639584096074104,0.0758731697710231
1761338266788504600,1.556504638671875,-0.3269564106494188,-0.08114259807392954,-0.1904420539654791
1761338266798570800,1.56657080078125,-0.622447423455119,-0.21452998184375463,-0.41325010787621136
1761338266808635400,1.576635498046875,-0.8048866420984268,-0.20858795150890946,-0.49958304113484914
1761338266818701600,1.58670166015625,-0.6390244642466306,-0.1607359208792448,-0.30523703853338957
1761338266828766500,1.596766357421875,-0.26154315049648286,-0.20239947213232515,0.12273030761182308
1761338266838832600,1.60683251953125,0.09732172558903694,-0.23124606577977536,0.5912014405157416
1761338266848898600,1.616898681640625,0.47791328031420705,-0.07261142802871763,0.8417408933736383
1761338266858963700,1.626963623046875,0.8440881871521473,0.10214498102702199,0.9708342332113533
1761338266869030000,1.63702978515625,1.1771920145153998,0.12832111335620283,1.1219501658953726
1761338266879094500,1.647094482421875,1.3379396258324383,0.10666691543087363,1.1723881213650107
1761338266889160700,1.65716064453125,1.0609633438825607,0.04834485564790666,0.9972381098818033
1761338266899226600,1.6672265625,0.7151064179301262,-0.15615962593965232,0.7637343283031135
1761338266909291800,1.677291748046875,0.5736357540130614,-0.4200173369888216,0.6041490387637167
1761338266919357400,1.687357421875,0.4968313312739134,-0.6454409071601926,0.5697526655020192
1761338266929423600,1.697423583984375,0.4615899220228195,-0.7439202783517539,0.5648057471517474
1761338266939488800,1.70748876953125,0.45799861953258514,-0.7662903694614768,0.5675204860031604
1761338266949554700,1.7175546875,0.42497605537474153,-0.8432676645494998,0.5467325495183467
1761338266959619800,1.727619873046875,0.23668343452811239,-0.9673794165823608,0.4401316850610077
1761338266969685500,1.737685546875,-0.13845570001006124,-1.0875535369053482,0.21971227985247968
1761338266979751700,1.747751708984375,-0.4508662834346294,-1.1662963072959334,0.06757540662288665
1761338266989816600,1.757816650390625,-0.6681359924405813,-1.1923671526197344,0.011777677685767412
1761338266999882800,1.7678828125,-0.8466016312777995,-1.2880360695004462,0.01753017679788172
1761338267009947600,1.77794775390625,-0.9438900391191244,-1.429800017275661,0.193442624020949
1761338267020013600,1.788013671875,-1.0053121838092804,-1.773268148395419,0.2901969249855727
1761338267030079500,1.79807958984375,-1.0362357298612594,-2.0796214776076374,0.0576323239531368
1761338267040144600,1.80814453125,-1.141226967164874,-2.2165422231353817,-0.36089031749852
1761338267050210800,1.8182109375,-1.5724673436313867,-2.4184857681937513,-0.7146057018663734
1761338267060276700,1.82827685546875,-2.0679338162928818,-2.6464520816504953,-0.9560052781961857
1761338267070341600,1.838341552734375,-2.3487013072192666,-2.812294970279932,-1.2181125653814524
1761338267080407600,1.848407470703125,-2.381809796094894,-2.792497798398137,-1.4321590014919638
1761338267090472700,1.85847265625,-2.2330670953482388,-2.624822433644533,-1.4139084745302795
1761338267100538600,1.86853857421875,-2.0439368546336887,-2.3143434028044343,-1.0598687535788864
1761338267110604800,1.878604736328125,-1.7808645948737858,-1.6920083536826074,-0.39748993642553687
1761338267120669700,1.888669677734375,-1.387491884508729,-0.859227377160266,0.5173546985384077
1761338267130735600,1.898735595703125,-0.8746107511878013,-0.07879808077439665,1.43019398502931
1761338267140800800,1.90880078125,-0.2776923212647438,0.44120282142385836,1.9577736519187687
1761338267150866700,1.91886669921875,0.050939329120516776,0.47514067379571495,2.000814775135368
1761338267160932600,1.9289326171875,-0.10395137286186218,0.3778612529784441,1.7134215824589132
1761338267170997500,1.93899755859375,-0.6715805799365043,0.39479543664455413,1.153585367348045
1761338267181063700,1.949063720703125,-1.553131944042444,0.3540654399145394,0.6191424636255949
1761338267191129600,1.959129638671875,-2.568163557833433,0.472804814726673,0.3539485355366021
1761338267201194800,1.96919482421875,-3.1402807239770887,0.8901511424079537,0.5569656281106173
1761338267211260700,1.9792607421875,-3.1105197919636964,1.3719196368455886,1.0167943126145749
1761338267221325600,1.98932568359375,-2.5137416472941636,1.6897041683934628,1.4866548540502786
1761338267231391700,1.999391845703125,-1.5979659420251846,1.8882051717825232,1.7143055256865918
1761338267241457700,2.009457763671875,-0.6932499754309653,1.9638471266135573,1.74159816789031
1761338267251522600,2.0195224609375,-0.06039163259863853,1.8340289065673947,1.6631868944764137
1761338267261588500,2.02958837890625,0.22190613663494585,1.5685542618408799,1.4574284673050044
1761338267271654700,2.039654541015625,0.3616419395834207,1.4744240257695316,1.0673262299779802
1761338267281719800,2.0497197265625,0.4958183548390865,1.5116858349323272,0.6446368973009288
1761338267291785700,2.05978564453125,0.7147843463689089,1.4494535429030655,0.2704548808244988
1761338267301850600,2.0698505859375,1.0384276869475841,1.2170975431200115,-0.025276991532370445
1761338267311916500,2.07991650390625,1.437414145541191,0.9790130826875567,-0.265761681506969
1761338267321982700,2.089982666015625,1.8901567442417144,0.8160685458481312,-0.49959842136707155
1761338267332047600,2.100047607421875,2.2311410957217217,0.7837554451338946,-0.7170229921411723
1761338267342113800,2.11011376953125,2.4392034159213303,0.8283990351110696,-0.924905791055411
1761338267352178700,2.1201787109375,2.521474871894717,0.7990776635587215,-1.1204022788662462
1761338267362244600,2.13024462890625,2.3704811773508787,0.6668596888944506,-1.322880588388443
1761338267372310500,2.140310546875,2.04363641038239,0.46351767521500586,-1.4871803392291068
1761338267382375700,2.150375732421875,1.612228860655427,0.3498999177329242,-1.5526029517322777
1761338267392441900,2.16044189453125,1.0438754309594631,0.4496064926318824,-1.4763269367814063
1761338267402507500,2.170507568359375,0.4161877687633037,0.6922606721326708,-1.2370663452416657
1761338267412572700,2.18057275390625,-0.09645838675796985,0.9207699333596974,-0.9005006139215082
1761338267422638600,2.190638671875,-0.6150812786012888,1.0532341378699988,-0.5491373456377536
1761338267432703700,2.200703857421875,-0.977891677442193,1.0633902787685394,-0.23345343963094053
1761338267442769700,2.210769775390625,-0.9694885907560586,0.9935231810119003,0.05844685520641505
1761338267452835600,2.220835693359375,-0.6396820513725281,0.9350102017667143,0.2616824128367007
1761338267462900700,2.230900634765625,-0.15559797346889973,0.8473726156502962,0.40370954159274697
1761338267472966700,2.240966552734375,0.42162323781549926,0.7619504405610263,0.41070685313418503
1761338267483031800,2.25103173828125,1.0148182633012532,0.6144738872926682,0.26095307564884423
1761338267493097500,2.261097412109375,1.585879782912135,0.37976102218516167,0.03966923563070595
1761338267503163600,2.27116357421875,2.0228607488572594,0.08182561190202832,-0.1571135656636208
1761338267513228500,2.281228515625,2.192913364136219,-0.1728645308945328,-0.35455979930274184
1761338267523294700,2.291294677734375,2.230700366216898,-0.30531397622711953,-0.492555553650856
1761338267533359900,2.30135986328125,2.1385697795301675,-0.34840156893394886,-0.4821962913956493
1761338267543425500,2.311425537109375,1.78292737262249,-0.3004062573760748,-0.35178120143488045
1761338267553491700,2.32149169921875,1.3499071270018814,-0.23689897697493434,-0.2505004360217601
1761338267563556600,2.331556640625,0.957225321510434,-0.23303112256564198,-0.2571541948225349
1761338267573622800,2.341622802734375,0.5418938773155212,-0.3377839480035007,-0.33637261990085243
1761338267583688700,2.351688720703125,0.14092121334075927,-0.5172977076541632,-0.3652919134583324
1761338267593753600,2.361753662109375,-0.2036257990568876,-0.7132496110823004,-0.30272257149443027
1761338267603819500,2.371819580078125,-0.4950263276785612,-0.9144009097844362,-0.21870281054899096
1761338267613884700,2.381884765625,-0.6154530345231294,-1.170057559525594,-0.12043328271582722
1761338267623950600,2.39195068359375,-0.5590507638216018,-1.447005857490003,-0.08759462375752627
1761338267634016800,2.402016845703125,-0.4483621916592121,-1.737802428869158,-0.13973843329697846
1761338267644081700,2.41208154296875,-0.4122165270447731,-2.1469293193355203,-0.1567144102782011
1761338267654147600,2.422147705078125,-0.5453606766432524,-2.6087045347973703,-0.23020415551140902
1761338267664213800,2.4322138671875,-0.8573398829132318,-2.9520965319409966,-0.3839628577891737
1761338267674278700,2.442278564453125,-1.2428151180267333,-3.0797207490742204,-0.5463690499681979
1761338267684344600,2.452344482421875,-1.5490502276867628,-3.0008798520714044,-0.7052996749911457
1761338267694409700,2.46240966796875,-1.72085991576612,-2.8449796807855368,-0.768131101957336
1761338267704475600,2.4724755859375,-1.840850569280982,-2.730680224649608,-0.8461476038999856
1761338267714541600,2.48254150390625,-2.2463690599918364,-2.668504631243646,-1.144813301219046
1761338267724606700,2.492606689453125,-2.8540561366885897,-2.494417353621125,-1.4401367023728786
1761338267734672600,2.502672607421875,-3.1636002247661352,-2.132545404674113,-1.6937907070547342
1761338267744737500,2.512737548828125,-2.7388445341438055,-1.559457932193577,-1.7888742983281611
1761338267754803700,2.5228037109375,-1.7087404389053582,-0.7943533384505659,-1.3765126637242733
1761338267764869600,2.53286962890625,-0.6746931589990854,-0.033618045832961796,-0.7588870344024151
1761338267774934500,2.5429345703125,-0.026555413970351216,0.6487573382318019,-0.5035965145599097
1761338267785000400,2.55300048828125,0.13799451223909853,1.0181439736578612,-0.5859036994338035
1761338267795066600,2.563066650390625,-0.16007950279712677,0.8993941139843314,-0.6997318117309361
1761338267805131800,2.5731318359375,-0.8459358608454466,0.5743229325596243,-0.8325275862831621
1761338267815197700,2.58319775390625,-1.619489207047224,0.548944453414157,-0.8817115231037139
1761338267825262600,2.5932626953125,-2.3804063590377567,0.8329273992557078,-0.8618129366740583
1761338267835328500,2.60332861328125,-2.9957302142232654,1.102470243269205,-0.7020845854021608
1761338267845394700,2.613394775390625,-3.1298850021690128,1.317272393117845,-0.26191870581060644
1761338267855459600,2.62345947265625,-2.801042923903465,1.5042038086138665,0.2795044852532446
1761338267865526300,2.6335263671875,-2.1288661316394806,1.6368911543555558,0.7009048740983009
1761338267875591200,2.643591064453125,-1.201015373173356,1.8382406790435313,0.9743208332180976
1761338267885657300,2.6536572265625,-0.2778139018177986,1.8879799847245216,1.2519390663333236
1761338267895723300,2.66372314453125,0.4157926319658756,1.7187226114764809,1.4811100794047116
1761338267905788400,2.673788330078125,0.9308733211576938,1.531047976397723,1.6139719049304724
1761338267915854300,2.683854248046875,1.327459148350358,1.410757609283924,1.6100186372600496
1761338267925920300,2.693920166015625,1.6954922502756118,1.3643012707963584,1.507486337415874
1761338267935985400,2.7039853515625,2.0809762532174587,1.3578034332096576,1.361364925083518
1761338267946051300,2.71405126953125,2.4567396571338174,1.2711780198104679,1.1358074993994087
1761338267956116200,2.7241162109375,2.7366028926968573,1.135282964068651,0.8873560317967086
1761338267966182100,2.73418212890625,2.7293717723995448,1.037654802878946,0.639595396002382
1761338267976248300,2.744248291015625,2.4647628045916554,1.0361027511313556,0.3980013930790126
1761338267986313200,2.754313232421875,2.1492601003706455,1.0325608407407998,0.2309047780614346
1761338267996379400,2.76437939453125,1.9172499183505773,1.0046315080687402,0.15518895427659152
1761338268006444300,2.7744443359375,1.827299013790488,0.9436579839289188,0.12504888675250111
1761338268016510200,2.78451025390625,1.7082587928682564,0.8579049694500863,0.1127979655317962
1761338268026576400,2.794576416015625,1.4666735577732324,0.78594141087085,0.06438647438846529
1761338268036641300,2.804641357421875,1.130652381658554,0.7162859831035137,-0.011104819925501943
1761338268046707500,2.81470751953125,0.7121879001349211,0.6634751610226929,-0.004169029312953353
1761338268056773400,2.8247734375,0.33051556443572044,0.6116925129458308,0.07269099607095122
1761338268066838300,2.83483837890625,0.08671966755390166,0.5653233412850648,0.18567425504177806
1761338268076904200,2.844904296875,-0.07510346404016018,0.5100540201362223,0.3257728999532759
1761338268086969300,2.85496923828125,-0.24958733976483344,0.44211935174688693,0.43495888553299006
1761338268097035500,2.865035400390625,-0.2560287709891796,0.3947492594152689,0.5411136136580258
1761338268107101200,2.87510107421875,-0.029025603476166725,0.3706584819927811,0.6526782380025834
1761338268117166300,2.885166259765625,0.34223113667070865,0.28357677619345484,0.7262414137981832
1761338268127232300,2.895232177734375,0.7466442964881658,0.1830496056266129,0.7920488609004765
1761338268137298400,2.90529833984375,1.1112854178875684,0.10875387777276337,0.8095971578769385
1761338268147363300,2.91536328125,1.2923083399921655,-0.016013415559381246,0.834474555632472
1761338268157429200,2.92542919921875,1.3001970474153757,-0.06658354604132473,0.8166395506691188
1761338268167494400,2.935494384765625,1.2309534153193236,-0.000006722001731395721,0.8060403421781956
1761338268177560300,2.945560302734375,1.1412684682190417,-0.01964183518961072,0.8721271907437592
1761338268187626200,2.955626220703125,1.0085966123074293,-0.11711056803390384,0.909742562584579
1761338268197691100,2.965691162109375,0.8134908043146133,-0.21475663020648061,0.9095714438013732
1761338268207757300,2.97575732421875,0.6418365990579128,-0.29671880103498693,0.9546562016747892
1761338268217822200,2.985822265625,0.3578168283373117,-0.3516792023651302,0.9739102065905928
1761338268227888400,2.995888427734375,-0.11074176365435123,-0.3666180474955588,0.9643198828812688
1761338268237954300,3.005954345703125,-0.5044043968766927,-0.37458003935068845,0.9463626397777348
1761338268248019200,3.016019287109375,-0.8077028685629367,-0.4343075089521706,0.8264149486217647
1761338268258085400,3.02608544921875,-1.191750116699934,-0.5571033195482566,0.6194616125773638
1761338268268151300,3.0361513671875,-1.4551228207111357,-0.6837625275742262,0.5281402964469045
1761338268278216400,3.046216552734375,-1.4472645084261893,-0.839376794590801,0.5016308405101298
1761338268288282400,3.056282470703125,-1.315224520677328,-1.045162255899608,0.5023221837751567
1761338268298347300,3.06634716796875,-1.24780050522387,-1.1516020115111023,0.5367636748202145
1761338268308413200,3.0764130859375,-1.3545213427990674,-1.1934577974006533,0.541817889469862
1761338268318479400,3.086479248046875,-1.4494763392567633,-1.1634038737900554,0.5867455570854246
1761338268328544300,3.096544189453125,-1.508798881319165,-1.0621190897889434,0.6035869479015469
1761338268338610400,3.1066103515625,-1.5524369475156068,-0.9516106964990496,0.5573683636926114
1761338268348675300,3.11667529296875,-1.583106811067462,-0.8847909305490553,0.4255125003390014
1761338268358741200,3.1267412109375,-1.5149731860399245,-0.9150701142828911,0.2335140107117593
1761338268368807400,3.136807373046875,-1.4059545929163693,-0.9738764504514634,0.0517367631085217
1761338268378872300,3.146872314453125,-1.331593471676111,-0.9804710994761436,-0.052446811074018475
1761338268388938500,3.1569384765625,-1.280377079179883,-0.9678263566322625,-0.02975128740221262
1761338268399004200,3.167004150390625,-1.1099001010090113,-0.8737910323027521,-0.05714432124048471
1761338268409069300,3.1770693359375,-0.7482377031594515,-0.727538540936634,-0.22144567951634525
1761338268419135200,3.18713525390625,-0.3432932129442692,-0.6409838546860963,-0.3795484754130244
1761338268429200400,3.197200439453125,-0.07264145784080028,-0.7191614654745906,-0.4910558166123926
1761338268439266300,3.207266357421875,-0.016211130088567734,-0.8552530667018144,-0.617123013561964
1761338268449332200,3.217332275390625,-0.29350539194643493,-0.8703319048248231,-0.835564542826265
1761338268459397400,3.2273974609375,-0.8549415895998478,-0.7497520532451569,-0.9948682389453053
1761338268469463300,3.23746337890625,-1.3611732019037008,-0.5191867362711579,-0.9570134323254227
1761338268479528400,3.247528564453125,-1.7869558974862099,-0.16420644653402267,-0.6926015945248305
1761338268489594000,3.257593994140625,-1.9772668724179268,0.2501321141660213,-0.21621815412640571
1761338268499660300,3.267660400390625,-1.8927771558731794,0.6144110511895269,0.34709669688045974
1761338268509725400,3.277725341796875,-1.6632155360490082,0.9710812667749822,0.8494863929338753
1761338268519791400,3.287791259765625,-1.4145318671256304,1.3122212472081183,1.2327467284768818
1761338268529857300,3.297857177734375,-1.2442121253430842,1.4578443546295166,1.4257178625285625
1761338268539922200,3.307922119140625,-1.2310557066500185,1.424036193051934,1.3238871350824832
1761338268549988400,3.31798828125,-1.2810422650903464,1.3692305438920855,0.9242521494522691
1761338268560053200,3.32805322265625,-1.0884265203475951,1.4700085474148392,0.4196423661965877
1761338268570119400,3.338119384765625,-0.6076631112992763,1.6461390213027596,0.11555018684938549
1761338268580185300,3.348185302734375,0.13477028949558734,1.7002565420679747,-0.04162906446158886
1761338268590250200,3.358250244140625,1.0387754774719475,1.647516447135806,-0.19507680109404027
1761338268600316200,3.368316162109375,1.8563006518691778,1.5619659694917498,-0.31328524736724794
1761338268610381300,3.37838134765625,2.383190436798334,1.4626824423104523,-0.46825544432662425
1761338268620447500,3.388447509765625,2.6109610815525053,1.3733657440006732,-0.7601070777166634
1761338268630513400,3.398513427734375,2.433985973533988,1.2735918029539286,-1.1358999269232153
1761338268640578300,3.408578369140625,1.9746938070595264,1.127547109119594,-1.4537855807580053
1761338268650644200,3.418644287109375,1.500822495612502,0.9207689835116266,-1.7026370074637234
1761338268660710400,3.42871044921875,1.1012778186142445,0.7120888236746191,-1.8453424738727509
1761338268670775300,3.438775390625,0.7628226933509111,0.5407083207927644,-1.8868622327409683
1761338268680841200,3.44884130859375,0.3528343637496233,0.4454962808340788,-1.823326164636761
1761338268690906400,3.45890625,-0.2053869635105133,0.54738385303393,-1.6606218662939964
1761338268700972300,3.46897216796875,-0.6612731209337711,0.8093934519983828,-1.2687316495716572
1761338268711038500,3.47903857421875,-0.9027174862533808,0.9980810635119676,-0.7069532143518328
1761338268721103400,3.489103271484375,-0.8377847030937671,0.9929279185324906,-0.14676263284534216
1761338268731169300,3.499169189453125,-0.4976455702662468,0.9137272483065724,0.2354278084438294
1761338268741234200,3.509234130859375,0.054015083304047584,0.8340626138307153,0.46609505142234264
1761338268751300400,3.51930029296875,0.6667950992256403,0.7441507261067628,0.6003140637107193
1761338268761366300,3.5293662109375,1.2034779638946056,0.6403598045036196,0.6985061423934996
1761338268771431200,3.53943115234375,1.6122253535240887,0.4965742877729237,0.7029322152074426
1761338268781497300,3.549497314453125,1.936926094201207,0.3170199769161641,0.5869263204798102
1761338268791563300,3.559563232421875,2.158013900190592,0.07776800707429647,0.292414747165516
1761338268801628400,3.56962841796875,2.2126649433106182,-0.20922259615063665,-0.12392821215949952
1761338268811694300,3.5796943359375,2.1462024663656947,-0.42099750713258977,-0.5419623394418508
1761338268821759200,3.58975927734375,1.9768010084718464,-0.5185267379924655,-0.7706237955559044
1761338268831825200,3.5998251953125,1.6399211697012186,-0.5503732441082596,-0.8479317839030176
1761338268841891300,3.609891357421875,1.2933680781781673,-0.5426170770235359,-0.8899265398718417
1761338268851956500,3.61995654296875,0.9343851286709308,-0.5795305111400783,-0.9117821055881679
1761338268862022000,3.63002197265625,0.5560778854906558,-0.7612744409956037,-0.986014632012695
1761338268872087000,3.640087158203125,0.22455694340467452,-1.0094409541770815,-1.0955185244351624
1761338268882153000,3.650153076171875,-0.03358779682517052,-1.165684824334085,-1.185781125292927
1761338268892219100,3.66021923828125,-0.22935586811900138,-1.2389904451720415,-1.1653073693238198
1761338268902284000,3.670283935546875,-0.2966623946726322,-1.2353344068825245,-1.0066355413675308
1761338268912350000,3.680349853515625,-0.24435996050536632,-1.2176841839015484,-0.8236021562233566
1761338268922415900,3.690415771484375,-0.12188918061256408,-1.2290101722970603,-0.7580386739447712
1761338268932481000,3.70048095703125,-0.1159627131730318,-1.2702626585312187,-0.9237984143353998
1761338268942547200,3.710547119140625,-0.16411854905486106,-1.2646589933052659,-1.0170623889662325
1761338268952611800,3.72061181640625,-0.1215180092126131,-1.1453196433059871,-0.9091269149042666
1761338268962678000,3.730677978515625,0.008848492366075515,-0.9741616971336304,-0.6572109860613942
1761338268972744000,3.740743896484375,0.11360299830436706,-0.811503137628734,-0.36411169069781896
1761338268982809000,3.75080908203125,0.09012450756132602,-0.6209820270776748,-0.29113164855241774
1761338268992875000,3.760875,-0.07370879481136798,-0.435640218860656,-0.23634287746213375
1761338269002941200,3.770941162109375,-0.42776422478854653,-0.3093082334950566,-0.1748562161684036
1761338269013006000,3.781006103515625,-0.809589705222845,-0.15771335818767546,-0.17077530353032053
1761338269023072000,3.791072021484375,-1.0659095681130886,0.033589404260367155,-0.22107976881340144
1761338269033137200,3.80113720703125,-1.2200193488508462,0.24199513107016682,-0.28670542960800227
1761338269043203000,3.811203125,-1.237101416555047,0.4759801202945411,-0.4182140869591385
1761338269053269000,3.82126904296875,-0.965537807303667,0.6900234145998955,-0.6380990930300205
1761338269063334000,3.831333984375,-0.5392915858626365,0.7282384328342973,-0.9254055572710931
1761338269073400000,3.841400146484375,0.034679683715105054,0.7633538776181638,-1.1172636885795741
1761338269083465200,3.85146533203125,0.5596259333610535,0.9247200592249631,-1.2369479795590042
1761338269093531100,3.86153125,0.6807447141230106,0.9800016553334892,-1.2749077078580855
1761338269103596800,3.8715966796875,0.5063157834559678,0.9132789200171828,-1.3167059914067387
1761338269113662000,3.881661865234375,-0.04080664216279983,0.7550045669458806,-1.4881266801685094
1761338269123728100,3.89172802734375,-1.063642792224884,0.3766824184574187,-1.7954717968970537
1761338269133794000,3.9017939453125,-2.4328490784585473,0.22925576874539255,-2.218384636131674
1761338269143859000,3.91185888671875,-3.544464166691899,0.5990398059912025,-2.574327633421123
1761338269153924900,3.9219248046875,-4.323164228132367,1.1676080474816262,-2.454928223797679
1761338269163990000,3.931989990234375,-4.923109312400221,1.6272263771705329,-2.0345453414320946
1761338269174056000,3.942055908203125,-4.84440811612904,1.7928481703951953,-1.4907052984848617
1761338269184122000,3.9521220703125,-3.9834243237555023,1.7336296732291578,-1.0149629324689506
1761338269194187000,3.96218701171875,-2.5936393598735332,1.5518421964928506,-0.8606215349324047
1761338269204253000,3.9722529296875,-1.034395654952526,1.3151213525637984,-0.9289517054453491
1761338269214318000,3.982318115234375,0.45383156298100946,1.188607434760034,-1.0745791237156836
1761338269224384000,3.992384033203125,1.6331915691852568,1.1270832910001278,-1.2648996701933444
1761338269234450200,4.0024501953125,2.335170794516802,1.1314522998645902,-1.5441167168073355
1761338269244514800,4.012514892578125,2.3165414973706007,1.2056420100606977,-1.4818079985409973
1761338269254581000,4.0225810546875,2.4605209292382,1.1399126696959136,-1.9365709971532223
1761338269264646100,4.032646240234375,2.059839357164502,0.9309194983869791,-2.5517320629924534
1761338269274712000,4.042712158203125,1.1312819117337465,0.6835169553153216,-3.225705675545335
1761338269284777000,4.05277685546875,0.17499474785625935,0.6884652253724635,-3.631541561642289
1761338269294843000,4.0628427734375,-0.5123410350948572,0.973922773811221,-3.725111241221428
1761338269304909000,4.072908935546875,-0.7551654565960169,1.2564083207018673,-3.4243197839200494
1761338269314974000,4.082973876953125,-0.5598404528945684,1.4664232362739742,-2.7177178672239184
1761338269325040000,4.0930400390625,-0.3192658561468124,1.7522431882843374,-1.8610050301678478
1761338269335105000,4.10310498046875,-0.2417114918231964,2.057574773233384,-1.2091172849558294
1761338269345171000,4.1131708984375,-0.13190613223612307,2.315972611441463,-0.7387355691902339
1761338269355237000,4.123237060546875,0.07822948710620403,2.4436447593696413,-0.3862778202006593
1761338269365302000,4.133302001953125,0.3330482977837324,2.374374969919026,-0.14784341381937263
1761338269375368200,4.1433681640625,0.5841133088856935,2.1963928768150507,0.02438588791154325
1761338269385433900,4.153433837890625,0.7669184382319449,2.0452109662227334,0.07718640779405832
1761338269395499000,4.1634990234375,0.9262479994446039,1.9375002408273516,0.026510223121754824
1761338269405565000,4.17356494140625,1.1556506293147801,1.8611852090403436,-0.00004617722928524017
1761338269415630000,4.183630126953125,1.465005332300067,1.7687036169588566,0.03079345339890569
1761338269425696300,4.1936962890625,1.7883681023716926,1.6844988548353312,0.16264918888835236
1761338269435762000,4.203761962890625,2.064479291924834,1.5168608994826673,0.40701567046605047
1761338269445827000,4.2138271484375,2.0644611717462538,1.3137955107875168,0.5553239253181964
1761338269455893000,4.22389306640625,1.9564736752361058,1.1605601747967302,0.6481919594340027
1761338269465958100,4.233958251953125,1.7535417036622762,1.0558082992069422,0.6978925405398011
1761338269476023800,4.24402392578125,1.4330577038973569,0.9780625039644539,0.7376609256960451
1761338269486090000,4.254090087890625,1.0722352640032768,0.8615371884725987,0.8123002793557942
1761338269496155100,4.264155029296875,0.6110527537375688,0.6774257988333702,0.8148512059476226
1761338269506221000,4.274220947265625,0.07708616228997707,0.4885239600472152,0.6205075414337218
1761338269516287000,4.284286865234375,-0.6508364825934171,0.27166473153829573,0.16441386047331616
1761338269526352000,4.294351806640625,-1.3963836314946412,0.08361059562265873,-0.5290996795309707
1761338269536418000,4.30441796875,-1.9148451952964067,0.01765606819987297,-1.17281621058397
1761338269546483000,4.31448291015625,-2.300893261861801,0.0890353971503675,-1.49789331029281
1761338269556549000,4.324549072265625,-2.3019968391895294,0.3479099129594862,-1.4790867568835615
1761338269566615000,4.334614990234375,-1.8922990169674156,0.5910290796235204,-1.2965452469095586
1761338269576680000,4.344679931640625,-1.2181482942819595,0.6190035666115582,-1.117408869203925
1761338269586745900,4.354745849609375,-0.6680114892780781,0.5296561809025705,-1.0784820494383573
1761338269596812000,4.36481201171875,-0.31949089707434175,0.42872810138463974,-1.1842589572269469
1761338269606877200,4.374877197265625,-0.003645663025975227,0.28384660611078144,-1.198123597254604
1761338269616943000,4.384943115234375,0.26833061867952346,0.14651961786970497,-1.1173813966751098
1761338269627008000,4.395008056640625,0.5380874707698822,0.2157252560429275,-0.9377090854618698
1761338269637074000,4.405073974609375,0.7542547714918851,0.48856268462240693,-0.7025503762830049
1761338269647140000,4.41514013671875,0.6918360169798136,0.635996933118999,-0.3615802725240588
1761338269657205000,4.425205078125,0.2579857502758503,0.6027765083014964,-0.153982354965806
1761338269667271200,4.435271240234375,-0.16529460709691046,0.7195832710832357,-0.01541038989862427
1761338269677336000,4.445336181640625,-0.461781060680747,0.8214524308435618,0.2709744111865759
1761338269687402000,4.455402099609375,-0.5386906973600387,0.8684211027674377,0.5537954736419022
1761338269697468200,4.46546826171875,-0.4952431852996349,0.455136946491152,0.6577486000694334
1761338269707533000,4.475532958984375,-0.3782867849141359,-0.46986689811125393,0.08537278298959136
1761338269717599000,4.485598876953125,-0.20749825657606125,-0.9217473270244896,-0.9647041329585015
1761338269727665000,4.495664794921875,-0.025742928543686865,-1.4976077713496982,-2.105553206721693
1761338269737730000,4.50572998046875,0.060333180409669875,-1.9356071205571292,-3.0867966788098213
1761338269747796000,4.5157958984375,0.1793973667293787,-2.220422571700066,-3.5800998359575864
1761338269757861000,4.525861083984375,0.6766524763733148,-2.185639866001904,-3.777424196782708
1761338269767927000,4.535927001953125,0.8990911124497651,-1.7055771525688468,-3.7708328356936573
1761338269777993000,4.545992919921875,0.29057459919154643,-1.0955349641133099,-3.363577438187599
1761338269788058000,4.55605810546875,-1.2856950593322514,-0.32653350906223055,-2.1827248553380367
1761338269798124000,4.5661240234375,-3.038559302124381,0.6155255152374506,-0.9075779318965971
1761338269808189000,4.57618896484375,-4.289709117776155,1.5322840940639375,-0.1604889238482341
1761338269818254800,4.5862548828125,-4.825529228135943,2.4547420535758135,0.24098551563620565
1761338269828321000,4.596321044921875,-4.405075034099817,3.1898776985779405,0.6135762808658183
1761338269838386200,4.60638623046875,-3.412952002209425,3.810948280721903,1.0092223429903386
1761338269848452000,4.6164521484375,-2.388376899525523,4.183122135713696,1.2639540599063037
1761338269858518000,4.62651806640625,-1.210420914900303,4.316981155583262,1.40276427244246
1761338269868582100,4.63658203125,0.010789689561724661,4.313465256416797,1.5435259113073347
1761338269878648300,4.6466484375,1.1525596775621174,4.245912353886664,1.5740272864244877
1761338269888713500,4.65671337890625,1.9260078098237514,4.1234886280059815,1.5525303248874842
1761338269898779100,4.666779052734375,2.3652871158391235,3.924804377004504,1.3801955900207161
1761338269908845300,4.67684521484375,2.512411275473237,3.6259079396694895,0.8897886657711118
1761338269918910200,4.68691015625,2.610836578390002,3.052447834484279,0.13191128333527594
1761338269928976400,4.696976318359375,2.8069074320226908,2.2546390218175945,-0.7625697415031493
1761338269939042300,4.707042236328125,3.0945716967254877,1.4637980023369193,-1.5478288691982627
1761338269949107200,4.717107177734375,3.281821530520916,0.932378903415054,-2.0544775378704068
1761338269959173000,4.727173095703125,3.317970117744803,0.7615256392776966,-2.34061488526687
1761338269969238300,4.73723828125,2.9986949092477557,0.5482774408727884,-2.508399409483373
1761338269979304200,4.74730419921875,2.28569569272995,0.037555969803780315,-2.554513510404527
1761338269989370400,4.757370361328125,1.397736215147376,-0.4340258424665779,-2.2904537009119985
1761338269999435300,4.767435302734375,0.343679581913352,-0.5649160756584256,-1.7760592404186724
1761338270009501200,4.777501220703125,-0.9120546389192342,-0.35488705849573016,-1.18295693471767
1761338270019566300,4.78756640625,-2.41991945425868,0.132058948177658,-0.4680923261867836
1761338270029632300,4.79763232421875,-4.127392649707198,0.5548875431949273,0.19602796433903275
1761338270039698400,4.807698486328125,-5.409985651370882,0.886711523348093,0.7018303183801472
1761338270049763300,4.817763427734375,-5.997664543783665,1.1010599380798638,1.1670961524367331
1761338270059829200,4.827829345703125,-5.761816975557804,1.1952909311119466,1.4951777677237987
1761338270069895200,4.837895263671875,-4.672258236309886,1.3454466404616832,1.498437061780691
1761338270079960300,4.847960205078125,-3.030536154666543,1.35945879920125,1.4248437100425362
1761338270090026500,4.858026611328125,-1.2416554265975952,1.3374673321455717,1.3734561987631022
1761338270100091100,4.868091064453125,0.5056792391180992,1.1225165676064788,1.0528455038785933
1761338270110157300,4.8781572265625,2.107743848633766,0.8005538005258888,0.8566044082455336
1761338270120223200,4.88822314453125,3.3688936647742986,0.5423190439250319,0.926410934921354
1761338270130288400,4.898288330078125,4.023504989731312,0.34026875055655836,1.002923900433257
1761338270140354000,4.90835400390625,3.9251410616129636,0.07992839997857809,0.8792400184236466
1761338270150420200,4.918420166015625,3.276667801019549,-0.19661840451285242,0.5528448949187994
1761338270160485400,4.9284853515625,2.421809213528037,-0.31109818565174935,0.2551605367872864
1761338270170551300,4.93855126953125,1.615762880000472,-0.5025800309937447,0.018806434678239746
1761338270180616400,4.948616455078125,1.0247697484731673,-0.8900035506308078,-0.3106128132876009
1761338270190682000,4.95868212890625,0.6612345424890518,-1.356954122903943,-0.6894757175892591
1761338270200748300,4.968748291015625,0.41244975127875805,-1.764527938709408,-0.9704609429195523
1761338270210813200,4.978813232421875,0.17414076137542722,-1.9664282291479407,-1.1350596767067909
1761338270220879400,4.98887939453125,0.12243980023264885,-2.089397460082173,-1.0018687653571368
1761338270230945300,4.9989453125,0.16742752747237682,-2.136642756990343,-0.5095385083621368
1761338270241010200,5.00901025390625,0.20609014334380626,-1.9648150948628782,-0.0600852517968975
1761338270251076000,5.019076171875,0.18323942911028862,-1.5281391032136975,0.3416674749059602
1761338270261141200,5.029141357421875,0.16153963847756383,-1.0935629333879797,0.7070571861829609
1761338270271207400,5.03920751953125,-0.0014537059396505356,-1.0611581358022988,1.0615809643242509
1761338270281273300,5.0492734375,-0.38946401248872276,-1.3168421850070358,1.2939989234276115
1761338270291338200,5.059338134765625,-1.0633242277950048,-1.4169023956492541,1.3340396957844496
1761338270301404200,5.069404052734375,-2.1335826387673613,-1.439521639214456,1.281623718240112
1761338270311469300,5.07946923828125,-2.82018776935637,-1.0561224797226487,1.2085895347546785
1761338270321535200,5.08953515625,-2.9971850892066954,-0.640964346268028,1.3214569853261113
1761338270331601400,5.099601318359375,-2.886366753184795,-0.7917504624757915,1.541658656130731
1761338270341666300,5.109666259765625,-2.4440824201345444,-0.7775591477770358,1.546724122826755
1761338270351732200,5.119732177734375,-1.9030419447779654,-0.69176339013502,1.310731593172252
1761338270361798400,5.12979833984375,-1.0704594865024089,-0.7837658203974366,0.7753862607173622
1761338270371863300,5.13986328125,-0.08813128791749476,-1.1562681036259979,0.023271277733147144
1761338270381929200,5.14992919921875,0.5857037929475307,-1.7766840943187474,-0.9621222997717559
1761338270391994000,5.159994140625,0.7057873854428529,-1.9379152513690292,-1.5325181950807572
1761338270402060300,5.170060302734375,0.497270307213068,-1.6137882189266384,-1.3479133228361606
1761338270412126200,5.180126220703125,0.03432137179672718,-1.4520004509069024,-0.7356319771517068
1761338270422191400,5.19019140625,-0.81735741661489,-1.4084092925921081,-0.5422211365085094
1761338270432257300,5.20025732421875,-1.8507734128803013,-0.7275669633135199,-0.5792506712853909
1761338270442322200,5.210322265625,-2.5563819346249104,0.22831720925364643,-0.4685803654320538
1761338270452388400,5.220388427734375,-2.6522651518434284,0.7519900414302945,-0.23527758631817994
1761338270462454300,5.230454345703125,-2.4854607247054576,0.9747024529468268,-0.08708872006200254
1761338270472519200,5.240519287109375,-1.7659604557305573,1.0360891609974205,-0.21851448490265757
1761338270482585000,5.250585205078125,-0.3831809866964817,1.7873609711557625,0.238361743003875
1761338270492651300,5.2606513671875,1.045326214289665,2.2736181553147734,1.0745319966383278
1761338270502716400,5.27071630859375,2.0216414361953734,2.01335846875757,1.7827477782718837
1761338270512782300,5.2807822265625,2.5747721623182294,1.4057806976541876,1.8635671357408166
1761338270522847200,5.29084716796875,2.876544447350502,0.5321113920349627,1.2250855461992323
1761338270532913200,5.3009130859375,3.0150737971186636,-0.180690877138637,0.19343487910591065
1761338270542979300,5.310979248046875,3.0616432405918834,-0.548639479118213,-0.7623174472425133
1761338270553044200,5.321044189453125,2.950646040871739,-0.8967048018351197,-1.2771695153102278
1761338270563110400,5.3311103515625,2.816149892142415,-1.0166670329730958,-1.2933809376597403
1761338270573175300,5.34117529296875,2.4752432820737362,-0.8290503386266529,-0.9991165440395474
1761338270583241200,5.3512412109375,1.805776917812228,-0.6273997851654887,-0.7362874453857541
1761338270593307100,5.36130712890625,0.9940788421332836,-0.3040381841376424,-0.4085530361011624
1761338270603372300,5.371372314453125,0.02731120077371597,0.03888210384100675,-0.06676741470824926
1761338270613438500,5.3814384765625,-0.6303057357400655,0.3606493483494967,0.21326960651911794
1761338270623504100,5.391504150390625,-0.9651379943311214,0.5432334553562105,0.5169902491401881
1761338270633569300,5.4015693359375,-1.0793950726300476,0.5661325387760997,0.7848452861972153
1761338270643635200,5.41163525390625,-0.8283259698748588,0.5795556090487167,0.8879812510229647
1761338270653700400,5.421700439453125,-0.3603063070654869,0.5193050288885831,0.9270157689467072
1761338270663766300,5.431766357421875,-0.02765723773241043,0.276638483096566,0.8711034737192094
1761338270673832200,5.441832275390625,0.22170038492977617,-0.044796889975899826,0.5452420917648821
1761338270683897300,5.4518974609375,0.5439911418557166,-0.1718767984988168,0.1973953437021002
1761338270693963300,5.46196337890625,0.8271610177487134,-0.33113749572634693,-0.019331673261895773
1761338270704029400,5.472029541015625,1.0707657759726046,-0.6758256701603531,-0.34174474139325317
1761338270714094000,5.482093994140625,1.3791460809677838,-0.9417757503788917,-0.728286802020669
1761338270724160300,5.49216015625,1.5264081877678632,-1.2529565728127956,-1.0558146558824926
1761338270734225200,5.50222509765625,1.3820131608366966,-1.5758287828885018,-1.1734576502926648
1761338270744291300,5.512291259765625,1.0864151805251836,-1.6961898771509527,-1.1048572845362126
1761338270754357200,5.522357177734375,0.8269955980539322,-1.5419801431700586,-1.005768549274653
1761338270764422100,5.532422119140625,0.5589397046625614,-1.3577199927099048,-0.9898454423472285
1761338270774488300,5.54248828125,0.28483927040994167,-1.165308173041418,-0.9253229204889386
1761338270784553200,5.55255322265625,0.00779693748652935,-0.9531256311066448,-0.8669956000089645
1761338270794619400,5.562619384765625,-0.45383682367801664,-0.6933769628114997,-0.8365047462858259
1761338270804685300,5.572685302734375,-1.0096090042203665,-0.5824047148695215,-0.7245628861267119
1761338270814750200,5.582750244140625,-1.5253852744609118,-0.582991976705566,-0.5342741960920393
1761338270824816000,5.592816162109375,-1.9207500354260205,-0.648309594464302,-0.4468351282224059
1761338270834882300,5.60288232421875,-1.9905390264451504,-0.7869180008180439,-0.24919567356612532
1761338270844947500,5.612947509765625,-1.7419377751082181,-0.8690645152375102,-0.31510343923773615
1761338270855013400,5.623013427734375,-1.3682774809509515,-0.9081006405964493,-0.7529987070161849
1761338270865079000,5.6330791015625,-0.9272200593471527,-1.0193640900373457,-1.1756517262708395
1761338270875145000,5.64314501953125,-0.43137598554491996,-1.280215605007857,-1.658362396929413
1761338270885211000,5.6532109375,0.03519055584669113,-1.4601292506963013,-1.9972255184717476
1761338270895276000,5.663276123046875,0.2667296132236719,-1.4609474352113903,-1.967686704776436
1761338270905342200,5.67334228515625,0.35289573854804035,-1.338330086454749,-1.7087994756162166
1761338270915407000,5.683406982421875,0.27195991509258743,-1.2344243063002824,-1.2628095660462975
1761338270925473000,5.69347314453125,0.00583235941529274,-1.038107076691091,-0.7480880655556916
1761338270935539000,5.7035390625,-0.5662152486234903,-0.7892117377784102,-0.3481683081673458
1761338270945604000,5.71360400390625,-1.0149275688946247,-0.6843342630475759,-0.20860530450250953
1761338270955670000,5.723669921875,-1.1277882243990898,-0.5930522925468161,-0.26363411316005514
1761338270965736200,5.733736083984375,-1.1104261707097292,-0.38002179201319813,-0.32222642298545684
1761338270975801000,5.743801025390625,-1.0454583162367344,-0.18779986889362335,-0.3124353525396436
1761338270985867000,5.753866943359375,-0.8312719601988792,0.07554605670850724,-0.2657011286924593
1761338270995932200,5.76393212890625,-0.39381460891366005,0.6937198579650372,-0.1389254546799697
1761338271005998000,5.773998046875,0.12368483185768127,1.0531325771916658,0.1591995050922036
1761338271016064300,5.784064208984375,0.45689562672674655,0.8360873245913535,0.34443149625919756
1761338271026129000,5.79412890625,0.45137540200054643,0.371180386975035,0.24539763299003242
1761338271036195000,5.804195068359375,0.37403380364477634,0.07802168957442045,0.279494913707301
1761338271046260200,5.81426025390625,-0.04271042995750904,-0.08567826874218881,0.5598939731800928
1761338271056326100,5.824326171875,-0.7705325370758771,-0.15835052358005194,0.7908243606068194
1761338271066392000,5.83439208984375,-1.5257997004806994,0.0832168835973367,0.9183120188135653
1761338271076457000,5.84445703125,-2.3012562499552964,0.5641594486048445,1.071857224471122
1761338271086523100,5.854523193359375,-2.748490898889303,1.0876448684506117,1.4790950863204895
1761338271096589000,5.864589111328125,-3.015152707573771,1.460182149927318,1.826365678463131
1761338271106654200,5.874654296875,-3.1567958054482936,1.5366367363154887,1.6158071575336157
1761338271116719900,5.884719970703125,-2.703441212329268,1.5132679895572363,0.7462344735782593
1761338271126785000,5.894784912109375,-1.7560814512729643,1.4722615870386362,-0.24594291884787378
1761338271136851200,5.904851318359375,-0.7483768193691969,1.408959912212193,-0.5667240749284624
1761338271146917000,5.914917236328125,0.24787059897482394,1.4008666221275925,-0.24066636668443678
1761338271156982000,5.92498193359375,1.1453905165851115,1.414548379869014,0.30726379512064156
1761338271167048000,5.9350478515625,1.8782389274328946,1.4963812982946634,0.5687528773423284
1761338271177113000,5.945113037109375,2.402375614261627,1.5995064494654536,0.5851178097531199
1761338271187179000,5.955178955078125,2.742002705913782,1.4384227380618453,0.51907311982885
1761338271197245200,5.9652451171875,2.866357399857044,1.1195939581580459,0.3756158852044493
1761338271207310000,5.97531005859375,2.8066426436066627,0.8220242393821477,0.18652911830544472
1761338271217376000,5.9853759765625,2.634444248470664,0.5316827182941138,0.04263261548094451
1761338271227442000,5.99544189453125,2.44886439371407,0.34031609682962294,-0.006329860608652233
1761338271237507000,6.005507080078125,2.2023463783919808,0.2054864966285415,0.17044950564205646
1761338271247573200,6.0155732421875,1.8389193089574574,0.20101530603123827,0.4943462364599108
1761338271257638000,6.025637939453125,1.2252110722750424,0.2923261738329194,0.7402377173814922
1761338271267704000,6.0357041015625,0.3072153528690338,0.5873051271969452,0.8183345180187374
1761338271277770000,6.04577001953125,-0.7284077980518341,0.9273848945200442,0.7539451210208237
1761338271287835100,6.055835205078125,-1.7138380543053149,1.0175264993466435,0.6688071697004139
1761338271297901000,6.065901123046875,-2.4372744936853645,1.0669450486406684,0.5016222553448751
1761338271307967000,6.075967041015625,-2.755773457112908,1.238017800747603,0.03565773496702313
1761338271318032100,6.0860322265625,-2.6512486682772636,1.1461675653722136,-0.31011465450711545
1761338271328098000,6.09609814453125,-2.26191675773561,0.789475357150659,-0.5965556610252708
1761338271338163200,6.1061630859375,-1.5092062930762766,0.5796026995934546,-0.9942133552331477
1761338271348229000,6.11622900390625,-0.5449322220981121,0.4385570926880464,-1.317166010133922
1761338271358295000,6.126294921875,0.355956879684329,0.21272344387844203,-1.2919278162419796
1761338271368360000,6.13635986328125,0.9730167648822069,-0.021807634921371936,-1.1683446911931037
1761338271378426000,6.146426025390625,1.3722463845819235,0.019393084592930973,-0.9521933186925947
1761338271388491300,6.1564912109375,1.6488608474820852,0.24332875429410486,-0.6517422723267227
1761338271398557000,6.166556884765625,1.6345698718011379,0.16300317169148473,-0.27177688667587935
1761338271408623000,6.176623046875,1.3965174870073795,0.19775025808699428,0.04231379532273859
1761338271418688000,6.18668798828125,1.0766665244489908,0.5677691270019859,0.02029730342365801
1761338271428754200,6.196754150390625,0.8554033618927002,0.651063423217088,-0.22628552076295017
1761338271438820000,6.206820068359375,0.6294049875080585,0.27207477364391086,-0.6841539380446076
1761338271448885000,6.216885009765625,0.5296458056390285,0.0958085445471108,-1.256939212708175
1761338271458951000,6.226950927734375,0.4191168079525232,0.14262816338911652,-1.7205447123371063
1761338271469016000,6.23701611328125,0.33641806647777556,0.09487411324121058,-1.9511945657894014
1761338271479082000,6.24708203125,0.29893969195485115,0.04766903874557465,-1.9775402825318276
1761338271489148200,6.257148193359375,0.17008944015800953,-0.02704520678129047,-1.8398409538470208
1761338271499213000,6.267213134765625,-0.03161795805692673,0.002279343108832836,-1.6760452070057392
1761338271509279000,6.277279052734375,-0.2207376773774624,0.09069711981751025,-1.5106000855222343
1761338271519344000,6.28734423828125,-0.37047698794603345,0.06287829831521957,-1.3819102849841116
1761338271529410000,6.29741015625,-0.40287177559435366,0.012727087365090846,-1.3055883850649
1761338271539476200,6.307476318359375,-0.31977848184406754,0.02392272737920284,-1.3085631630919874
1761338271549541000,6.317541015625,-0.20030103854835032,-0.058178121267631645,-1.385049313662201
1761338271559607000,6.32760693359375,-0.16020283691585063,-0.24785273452457038,-1.6255287794724105
1761338271569673000,6.3376728515625,-0.15433423714339733,-0.35833456860110163,-2.14461271295622
1761338271579738000,6.347738037109375,-0.1381920806378126,-0.46369916926175353,-2.8081089167669413
1761338271589804300,6.35780419921875,-0.1639215651780367,-0.472431889761053,-3.353488005849719
1761338271599869000,6.367868896484375,-0.3839174842774868,-0.17507269019698724,-3.292244432596862
1761338271609935000,6.37793505859375,-0.6047387482851744,0.9503670531135052,-1.8159847158327698
1761338271620001000,6.3880009765625,-0.7788292407780886,1.8504326366186141,0.7253210110176355
1761338271630066200,6.398066162109375,-0.899744023400545,1.7052489435277878,2.244473163242638
1761338271640131800,6.4081318359375,-0.8774076884299516,2.0834850211679936,2.942368041869998
1761338271650198000,6.418197998046875,-0.8089087372213601,2.53351719186604,2.4146155026316642
1761338271660263200,6.42826318359375,-0.6368202322006226,2.586471952462196,0.9583790215902029
1761338271670329000,6.4383291015625,-0.2909855180799961,2.3138236167140303,-0.2863063655541278
1761338271680394200,6.448394287109375,0.04549333867430687,1.5812690742462872,-0.804806635664776
1761338271690460000,6.4584599609375,0.18399755400121212,0.7074214163854717,-0.8354954231128096
1761338271700526000,6.468526123046875,-0.062304772743582724,0.06729397759931162,-1.0478908040806652
1761338271710591000,6.478591064453125,-0.494288076531887,-0.09370203725453466,-1.6925547355189918
1761338271720657200,6.4886572265625,-1.0095365235060454,-0.03201148741915822,-2.6197806400850414
1761338271730723000,6.49872314453125,-1.4969231500864029,0.2724483561966568,-3.588435702626407
1761338271740788000,6.5087880859375,-1.8193214590400457,0.8503697516396641,-3.8598490897521374
1761338271750854000,6.51885400390625,-1.8756804751217364,1.3820346420161425,-3.067138330876827
1761338271760919000,6.5289189453125,-1.6187532939881086,1.8411093663476406,-1.637467200677842
1761338271770985200,6.538985107421875,-1.1404635815769433,2.3371206134103235,-0.18933182770125567
1761338271781051100,6.549051025390625,-0.6914625074923038,2.4697441001355647,0.6789306504383683
1761338271791116000,6.559115966796875,-0.2512514735847711,2.438098815680295,1.0408708423160016
1761338271801182000,6.569181884765625,0.1972965960353613,2.293155068825185,1.0039929179042577
1761338271811247000,6.5792470703125,0.6947878525227308,1.894325554358959,0.6975427041888237
1761338271821313000,6.58931298828125,1.1400059009373187,1.4693518370717764,0.4449287100791931
1761338271831379200,6.599379150390625,1.4847791233062744,1.15809875311926,0.2989522957080975
1761338271841444000,6.609444091796875,1.7275573675781488,1.1482586193673312,0.40214346131980416
1761338271851510000,6.619510009765625,1.7712392729163169,1.2454871137149632,0.5524421593368053
1761338271861575200,6.6295751953125,1.6643863333940505,1.2297916780635714,0.460320596206747
1761338271871640800,6.639640869140625,1.3665192391067742,1.1901306988045572,0.2822323027819395
1761338271881707000,6.64970703125,0.9941858096390962,1.0009928593054414,0.173164390623942
1761338271891772000,6.65977197265625,0.6100438689559697,0.774080365750566,0.050825456949882206
1761338271901837800,6.669837890625,0.14455518592894076,0.6249192203961312,-0.03038189518963918
1761338271911903700,6.67990380859375,-0.40977322554588314,0.5504089730087668,0.1773148248342797
1761338271921969000,6.689968994140625,-0.906189546278119,0.6322274975828827,0.6613719051331282
1761338271932035000,6.70003515625,-1.2247072144061326,0.8272122364792972,1.14320930008851
1761338271942099700,6.710099609375,-1.5555664777129887,0.9967881010919809,1.4741415555663406
1761338271952166000,6.720165771484375,-1.7403484600901602,1.041693703006208,1.5377959893532096
1761338271962231800,6.730231689453125,-1.5103110394477843,0.8666328311111777,1.400102944278717
1761338271972297000,6.740296875,-0.9020452860802411,0.5118434243036434,1.1627453368160874
1761338271982363000,6.75036279296875,-0.10711246724128723,0.13901052088122814,0.9240824189085513
1761338271992428800,6.7604287109375,0.6424339804291724,-0.24651752213174477,0.7267534549735486
1761338272002494000,6.770493896484375,1.3216273734569548,-0.43844497408308086,0.5988031842237338
1761338272012560000,6.780559814453125,1.863674395507574,-0.5112503903139383,0.530085073839128
1761338272022625000,6.790625,2.2252976303905245,-0.5795391328379511,0.5213172454938292
1761338272032691000,6.80069091796875,2.379367663639784,-0.668019088062644,0.5381454845674336
1761338272042756900,6.8107568359375,2.352259291961789,-0.7624640891715884,0.5452758844366297
1761338272052821800,6.82082177734375,2.2397224615842104,-0.8460554686371237,0.48560237351208924
1761338272062888000,6.830887939453125,2.0655092194944618,-0.9077559918772429,0.35401301560755816
1761338272072953900,6.840953857421875,1.7785732690662144,-0.8947750028163194,0.320053462860547
1761338272083018800,6.851018798828125,1.4094471112072466,-0.8826134403795003,0.2789162553028203
1761338272093085000,6.8610849609375,1.139022735118866,-0.9520431696321815,0.21005227017411962
1761338272103149800,6.87114990234375,0.7852759326994418,-1.0723805907581,0.08713891587927937
1761338272113216000,6.881216064453125,0.2588432438880205,-1.1329838202808051,-0.04052875680318102
1761338272123282000,6.891281982421875,-0.109365799126029,-1.241601650583744,-0.2359497499587014
1761338272133346800,6.901346923828125,-0.4399906691551208,-1.2270334653966128,-0.30971411088220774
1761338272143412700,6.911412841796875,-0.651291825145483,-1.096560507768765,-0.22614899836909025
1761338272153478000,6.921477783203125,-0.7777028670966625,-0.9573397416703402,-0.058982642583549016
1761338272163544000,6.9315439453125,-0.7995014419287443,-0.8180467871185392,0.155159655116871
1761338272173610000,6.94160986328125,-0.8324690610289573,-0.826899882594496,0.25756319574853404
1761338272183675000,6.9516748046875,-0.9146545922845601,-0.8590196526937186,0.18490652207229286
1761338272193740800,6.96174072265625,-1.1291992602407932,-0.8988135376174002,-0.11245583756323903
1761338272203807000,6.971806884765625,-1.3551555490493774,-0.8754141765251755,-0.4506231588611379
1761338272213871900,6.981871826171875,-1.535263694396615,-0.6029219811867922,-0.6588133066914975
1761338272223938000,6.99193798828125,-1.6098872659653425,-0.39293329603448507,-0.7172396305665374
1761338272234003000,7.0020029296875,-1.494567526870966,-0.49118411916717886,-0.673960022418946
1761338272244068900,7.01206884765625,-1.279108666679263,-0.6957160002183169,-0.8297522763509303
1761338272254134800,7.022134765625,-1.025344918012619,-0.930771175957471,-1.367474640135467
1761338272264200000,7.032199951171875,-0.9249082752734422,-1.0832844812840223,-2.117035408592224
1761338272274266000,7.04226611328125,-0.9133201288104057,-0.8338302663795649,-2.914375288572907
1761338272284330800,7.052330810546875,-0.8179314171105623,-1.0814112347580491,-3.585017126354575
1761338272294397000,7.06239697265625,-0.497436311429739,-1.7670228242650627,-4.255431000599265
1761338272304462800,7.072462890625,-0.20803017149567604,-1.8883321591630577,-4.835998307441175
1761338272314528000,7.082528076171875,-0.2753384516149759,-1.6411375597536564,-4.803440438185632
1761338272324593700,7.09259375,-0.5158668711334466,-1.153400950691849,-3.955440338286757
1761338272334659800,7.102659912109375,-0.5878706155925989,-0.4822801337542012,-2.6921944266498086
1761338272344725000,7.11272509765625,-0.5378729512363672,0.37014198383800684,-1.296838238506764
1761338272354791000,7.122791015625,-0.7089595857381821,1.0933375271342693,0.21829035729058086
1761338272364856000,7.13285595703125,-1.0540648165404796,1.3655951099991797,1.577710358851403
1761338272374921700,7.142921630859375,-1.5316665466874837,1.4839417956992984,2.70478035197854
1761338272384988000,7.15298779296875,-2.068707723274827,1.5640402915477751,3.335855318525433
1761338272395052800,7.163052734375,-2.5730016455143687,1.6751619944304226,3.5449279848113653
1761338272405119000,7.173118896484375,-2.9419845955103634,1.766988337473571,3.625207682445645
1761338272415185000,7.183184814453125,-2.885292986473441,1.5988336647704242,3.7386312325298783
1761338272425249800,7.193249755859375,-2.5179560501188036,1.3169311784647404,3.7931656635329123
1761338272435316000,7.20331591796875,-1.9761977818816898,1.1835282317996025,3.5615132089093327
1761338272445380900,7.213380859375,-1.3570786260664462,1.2143500710427761,3.0915760220408437
1761338272455447000,7.223447021484375,-0.7509872941285372,1.2305274449922143,2.4646175509020685
1761338272465513000,7.233512939453125,-0.20443711543977258,1.24648620775491,1.8573576135762035
1761338272475577900,7.243577880859375,0.23702421078979968,1.3065822184078395,1.2986232222273946
1761338272485643800,7.253643798828125,0.8374918576270342,1.4277533138789236,0.7900187433123588
1761338272495709000,7.263708984375,1.6082938592940568,1.409986478780955,0.3341796033686027
1761338272505774800,7.27377490234375,2.511402390691638,1.2326134574860335,-0.12136712949983774
1761338272515841000,7.283841064453125,3.4772394732028244,0.8302588376335799,-0.6586752133950591
1761338272525906000,7.293906005859375,4.147348227021098,0.3702247667506337,-1.1073200213879346
1761338272535971800,7.303971923828125,4.2218975643098355,-0.008252864560484886,-1.3921490626648068
1761338272546038000,7.3140380859375,3.6244653396457434,-0.21203445696728304,-1.4749012878924608
1761338272556103000,7.32410302734375,2.698613061520457,-0.2807349768962711,-1.2827281723506747
1761338272566168800,7.3341689453125,1.6887404379278421,-0.29872372938292097,-0.9274763721957803
1761338272576234000,7.34423388671875,0.5561860220402479,-0.33458675939738747,-0.5598283971305936
1761338272586300000,7.3542998046875,-0.48794601402878757,-0.24199730476094408,-0.2279931283984333
1761338272596365800,7.36436572265625,-1.2652502371966838,-0.11074413827452807,0.07167137069962919
1761338272606431000,7.374430908203125,-1.7486323043107985,-0.07019159873696043,0.32294275456126775
1761338272616497000,7.384496826171875,-1.9673919596135616,-0.02513224016628228,0.4135634481417015
1761338272626561800,7.394561767578125,-2.0653671806752683,0.18807691400302573,0.34386085676439104
1761338272636628000,7.4046279296875,-1.9267361240983008,0.4580849095765501,0.23644743381515143
1761338272646694000,7.41469384765625,-1.4826245756208896,0.5713968525124713,0.2606613261606544
1761338272656758800,7.4247587890625,-0.948426513504982,0.6786448922995477,0.36466800940632815
1761338272666824700,7.43482470703125,-0.46574762622416016,1.0103586535438895,0.4764000627396628
1761338272676891000,7.444890869140625,0.042913259053230284,1.050663702860102,0.5739454775493592
1761338272686956000,7.4549560546875,0.5136386736899614,0.8929811782021075,0.5497223059188574
1761338272697022000,7.46502197265625,0.797137050884962,0.7742549916651099,0.4511687735125422
1761338272707086800,7.4750869140625,0.860448370322585,0.546495562424697,0.3572262420330196
1761338272717152800,7.48515283203125,0.764650493299961,0.35925983021985736,0.14965930413492023
1761338272727219000,7.495218994140625,0.6070224753081798,0.26007466711280863,-0.031266514270752666
1761338272737283800,7.505283935546875,0.45367549563646314,0.040101558066788126,-0.20964063889961687
1761338272747350000,7.51535009765625,0.4669330366164446,-0.2596682965353131,-0.45698874837029724
1761338272757415000,7.525414794921875,0.6785685391277074,-0.6294144129235297,-0.709376861302182
1761338272767480800,7.535480712890625,0.8775222547203302,-0.8557918497536331,-0.8847312362510711
1761338272777547000,7.545547119140625,1.1333861905366183,-1.027834031414613,-1.076906105358526
1761338272787612000,7.55561181640625,1.501602247813344,-0.974172949180007,-1.1510603789150715
1761338272797678000,7.565677978515625,1.9170751463055609,-0.8344609654985368,-1.029605717262253
1761338272807743700,7.57574365234375,2.0285791265040634,-0.9352385306298732,-0.797287126880139
1761338272817809000,7.585808837890625,1.8593740679651498,-1.3387987268798052,-0.7411822316899895
1761338272827874800,7.595874755859375,1.4477712889045475,-1.7784388290315865,-0.8974175532143562
1761338272837940000,7.60593994140625,0.8266103981286287,-2.063648832450062,-1.2982429907381534
1761338272848006000,7.616005859375,0.13978022661209105,-2.543942432029545,-1.6356284409433601
1761338272858071800,7.62607177734375,-0.485444260340929,-2.7331337552815675,-1.9627077473200856
1761338272868136200,7.63613623046875,-1.1478747346162794,-2.671065129381418,-2.0809265688568352
1761338272878202000,7.6462021484375,-1.746807426971197,-2.5221622696369885,-1.7763520858854054
1761338272888267300,7.656267333984375,-2.0852380023151635,-2.170788626089692,-1.0779441431693733
1761338272898333200,7.666333251953125,-2.256578903838992,-1.7301596590310333,-0.27686909524835646
1761338272908399000,7.676399169921875,-2.328974862486124,-1.2904380160756408,0.41921727265231307
1761338272918464300,7.68646435546875,-2.3564199187725783,-1.0660244997296482,0.8722925373733044
1761338272928530200,7.6965302734375,-2.1906319752007724,-1.0477825214006007,0.9630085810869932
1761338272938596400,7.706596435546875,-1.7342273468613623,-0.7743758415658026,0.781614122256264
1761338272948661000,7.716660888671875,-1.1197568936347961,-0.04869551398279145,0.8785127270624041
1761338272958727200,7.72672705078125,-0.6182856276005506,0.49365175138972694,1.5401654949635266
1761338272968792300,7.736792236328125,-0.25128596037626266,0.7626403225213289,2.3011003287412226
1761338272978858200,7.746858154296875,0.03989887966811657,1.013432946422696,2.5883663879066705
1761338272988924200,7.756924072265625,0.2378863805770874,1.2311103594467043,2.335425207669288
1761338272998989000,7.766989013671875,0.20665303792357442,1.2303307533763348,1.8657962099671364
1761338273009055200,7.77705517578125,0.1272656129539013,1.0559323639780283,1.3831344199515878
1761338273019120000,7.7871201171875,0.07944938428997993,0.7261519819490612,0.8651694074951112
1761338273029186300,7.797186279296875,-0.09670739308297634,0.5126270124293864,0.34371593186836685
1761338273039252200,7.807252197265625,-0.43774025987982745,0.3781462804649025,-0.17282149547040462
1761338273049317000,7.817317138671875,-0.8098650150328874,0.3187851599577814,-0.5745290130583569
1761338273059383000,7.827383056640625,-1.1974100421577691,0.3385151483548805,-0.6379226404845714
1761338273069449200,7.83744921875,-1.5596423488497733,0.5148633566467091,-0.20822423276305196
1761338273079514400,7.847514404296875,-1.6608540676146746,0.8238423947200179,0.42355994149912146
1761338273089580300,7.857580322265625,-1.5867267551302908,1.21903779046759,1.0284184071738272
1761338273099645200,7.867645263671875,-1.3999503840655088,1.5630463120743632,1.4415069678127765
1761338273109711000,7.877711181640625,-1.126827270412445,1.6620602285340427,1.52084251646474
1761338273119777300,7.88777734375,-0.8235358129888772,1.5950965240687132,1.3579160998038946
1761338273129842200,7.89784228515625,-0.48015316819548604,1.449433961419761,1.1998309856943785
1761338273139908000,7.907908203125,-0.09723229373991489,1.220458032529056,1.1251001543588937
1761338273149974000,7.91797412109375,0.31897184163630005,0.9840474235929548,0.9935619786523282
1761338273160039200,7.9280390625,0.7317635382205248,0.7991261788755655,0.7391171158537269
1761338273170105300,7.938105224609375,1.1443494830995797,0.6854400323323905,0.5080385155953466
1761338273180170200,7.948170166015625,1.5455395892173052,0.5748582084801047,0.3579400893907994
1761338273190236200,7.958236083984375,1.915937082186341,0.4894445089582354,0.3861218624539673
1761338273200302000,7.968302001953125,2.206276703578234,0.51747401406914,0.4957531075831502
1761338273210367200,7.9783671875,2.469797291627526,0.6399792807534337,0.5812987629216164
1761338273220433200,7.98843310546875,2.547476743635535,0.7192283201657235,0.627589827844873
1761338273230498000,7.998498046875,2.5709505582034584,0.635783436498791,0.6009064035806805
1761338273240564200,8.008564208984374,2.509886140909791,0.4385438313476741,0.5285288573730736
1761338273250630100,8.018630126953125,2.2283652012676,0.18868819603547451,0.45459706746079026
1761338273260695300,8.0286953125,1.8151731071889399,-0.07401281925924122,0.42427835543416437
1761338273270761200,8.03876123046875,1.338555711904168,-0.1876159636940807,0.3920734643347561
1761338273280827400,8.048827392578126,0.8137719593435525,-0.08988379414062947,0.4648437361869961
1761338273290892000,8.05889208984375,0.42634734372794625,0.0002762961907312274,0.6097730161253363
1761338273300958200,8.068958251953125,0.25008009171783924,0.08264105647075921,0.7758709024291485
1761338273311023400,8.0790234375,0.025939327898621557,0.145939479894191,1.031306602896005
1761338273321089300,8.08908935546875,-0.18366028487086294,0.23675591524243353,1.2483873652011155
1761338273331155200,8.0991552734375,-0.31386078223288055,0.2762009136632085,1.362804602497816
1761338273341220000,8.10922021484375,-0.49739773298501966,0.20462635440155863,1.4227591588534414
1761338273351286300,8.119286376953125,-0.675630147588253,0.06649402286065742,1.3778472733289002
1761338273361351200,8.12935107421875,-0.8197077791333198,-0.032994708036538214,1.2785963332429529
1761338273371417300,8.139417236328125,-0.8566057234197855,-0.05022628548033535,1.194770925825834
1761338273381483000,8.14948291015625,-0.7123375377386808,-0.10338409436792134,1.1724055108912288
1761338273391548200,8.159548095703125,-0.46916591023504733,-0.2537061732605099,1.1389542729925364
1761338273401614000,8.169614013671875,-0.20621698459386825,-0.3674082480251789,1.0459140971802174
1761338273411680300,8.17968017578125,-0.06204349145889282,-0.5707734964497387,0.905563961725682
1761338273421745400,8.189745361328125,-0.0002665419816970825,-0.7221393853068351,0.7437984055377542
1761338273431811000,8.19981103515625,0.13089783197641372,-0.7683955981124192,0.6580869651783258
1761338273441876200,8.209876220703125,0.21719313663840292,-0.7896623310901224,0.6630819969866424
1761338273451942100,8.219942138671875,0.33801147314906116,-0.6430649718090892,0.7642579137858003
1761338273462008300,8.23000830078125,0.44030631097555156,-0.49053215806446965,0.907729688392207
1761338273472073000,8.240072998046875,0.48223465064466,-0.4539372153125703,1.0036042839128523
1761338273482139100,8.25013916015625,0.43332361248135565,-0.4680289055617526,1.0028268697995693
1761338273492205000,8.260205078125,0.49951077961623663,-0.4730496928658336,0.9206654500719159
1761338273502270200,8.270270263671875,0.5806143608540296,-0.46088345425389704,0.8668017579372972
1761338273512336100,8.280336181640624,0.5223837056815623,-0.4969878004772588,0.8019387520782649
1761338273522401000,8.290401123046875,0.45782209392189976,-0.596046250198409,0.716023386644572
1761338273532467200,8.30046728515625,0.3518623038470745,-0.7431776432909071,0.6331841407205909
1761338273542533000,8.310533203125,-0.08315934472382068,-0.9403818848676979,0.48498351096138353
1761338273552598300,8.320598388671876,-0.48934594395458697,-1.0297590811930597,0.3002452946607023
1761338273562664200,8.330664306640625,-0.628529373717308,-1.0545242507457733,0.06225443079583347
1761338273572730400,8.34073046875,-0.5675637406229973,-1.152324553631991,-0.128179074537009
1761338273582795300,8.350795166015626,-0.46302784587144846,-1.236980128262937,-0.14949118102639913
1761338273592861200,8.360861083984375,-0.29172260018289087,-1.2564987754642962,-0.11688406580165028
1761338273602926300,8.37092626953125,-0.16607903547286987,-1.2989542077474294,-0.0817033006966114
1761338273612992300,8.3809921875,-0.1717366228431463,-1.3859583913311362,-0.09645473349615931
1761338273623058200,8.39105810546875,-0.35509646346271034,-1.4297135080359875,-0.10908742057606577
1761338273633123000,8.401123046875,-0.7729273232579231,-1.450782745680213,-0.11502382488772273
1761338273643189200,8.411189208984375,-1.2513988219767809,-1.636442095413804,-0.18459098984971642
1761338273653254100,8.421254150390626,-1.5259095905959605,-1.540421807812154,-0.30296222546920176
1761338273663320300,8.4313203125,-1.622825657993555,-1.280209029136598,-0.39783670403659344
1761338273673386000,8.441385986328125,-1.535192967247963,-1.1055492123231292,-0.30870705273151394
1761338273683451100,8.451451171875,-1.5082330641299486,-0.8786988242190331,-0.04106763118654489
1761338273693517300,8.461517333984375,-1.9016314934581517,-0.6661188073992729,0.3447475034058094
1761338273703583200,8.471583251953126,-2.5232775374025107,-0.4811607378028333,0.845049141138792
1761338273713648000,8.481648193359375,-3.0720021375209092,-0.1643294153265655,1.3225477031722663
1761338273723714000,8.491714111328125,-3.3059014942884444,0.3357526613716036,1.6273616939879954
1761338273733779200,8.501779296875,-3.2990877226203676,0.7138637243926524,1.903640641323477
1761338273743845000,8.51184521484375,-3.0205636267066,0.9697133394226432,2.247681019373238
1761338273753911300,8.521911376953126,-2.5249387486129997,1.1861654484353958,2.535598674315214
1761338273763976200,8.53197607421875,-1.9911293935537338,1.3770651830404996,2.6568770295530557
1761338273774042000,8.5420419921875,-1.4953776742100715,1.5655451431527734,2.4365125694021583
1761338273784108300,8.5521083984375,-1.008880689945817,1.706301521320641,1.9150230360813438
1761338273794173200,8.562173095703125,-0.3536813359677791,1.6216569064751267,1.3849641195967792
1761338273804239400,8.5722392578125,0.42270869496464725,1.4400614451795815,1.009412385669723
1761338273814304000,8.582303955078125,1.1215800174087285,1.251308805605769,0.7195314678307623
1761338273824370200,8.5923701171875,1.6925351540356874,1.1831830716237426,0.45910446188263593
1761338273834436000,8.60243603515625,2.093728767284751,1.215129092591256,0.16018851612955332
1761338273844501200,8.612501220703125,2.3141268374443054,1.248425943645835,-0.12785086549594998
1761338273854567200,8.622567138671876,2.2849749772399663,1.022778866916895,-0.2523022978119552
1761338273864632000,8.632632080078125,1.9287544781833885,0.764165267066285,-0.2773728800520301
1761338273874699000,8.642698974609376,1.4451765962362288,0.621474925161153,-0.20502470606938003
1761338273884765000,8.652764892578125,0.8944780656963587,0.5668024008616804,-0.09115494658760726
1761338273894830000,8.662830078125,0.3865221138179302,0.5981526113605127,0.05615560246407986
1761338273904896000,8.67289599609375,-0.12792144651412962,0.5974197305087,0.1511111834436655
1761338273914962200,8.682962158203125,-0.568004470127821,0.6645335109692067,0.13692059939727186
1761338273925027000,8.693027099609376,-0.9270406111270189,0.713590460409224,0.195557058891654
1761338273935093000,8.703093017578125,-1.2695862205743789,0.7287669867530465,0.34159064681008455
1761338273945158000,8.713157958984375,-1.4454191728204488,0.7395876559749245,0.4415884597405791
1761338273955224000,8.72322412109375,-1.5432827502012252,0.7122037552911787,0.41245194323584433
1761338273965290000,8.7332900390625,-1.3582991077721118,0.6543963670320808,0.32802930057793855
1761338273975355000,8.74335498046875,-0.8346528348088263,0.6326309638172388,0.1075591880954802
1761338273985421000,8.753421142578125,-0.16129238571822643,0.4722584328902885,-0.0030253391705453393
1761338273995487000,8.763487060546876,0.49860535520911214,0.18088081022016703,0.026777824549376963
1761338274005552000,8.77355224609375,1.059884900996089,0.04415465568276122,0.0075781801693141455
1761338274015618000,8.7836181640625,1.504602598673105,-0.032298505933303384,0.04165887507796287
1761338274025683000,8.793682861328126,1.8492770368427036,-0.12946747037973255,0.026568711843341586
1761338274035748900,8.803748779296875,2.0595406664788722,-0.27718585131363943,-0.18090879420563577
1761338274045815000,8.81381494140625,2.1265216143399477,-0.463657741272822,-0.33234804055988787
1761338274055880200,8.823880126953124,1.9175328269451855,-0.5990982581801713,-0.42822059025391934
1761338274065946000,8.833946044921875,1.5513298630565404,-0.7347356858991086,-0.4683867425560951
1761338274076011000,8.844010986328126,1.177001460379362,-0.925875512870401,-0.3995945074893534
1761338274086077000,8.854076904296875,0.862059897172451,-0.7030412285398692,-0.6097836105845869
1761338274096143000,8.86414306640625,0.5351783053249121,-0.8204064289219677,-0.6035143210567534
1761338274106208000,8.8742080078125,0.269403800868988,-1.1486907271742821,-0.45937516858279703
1761338274116274200,8.884274169921875,0.10451192935407161,-1.3036194230794906,-0.44153672955334183
1761338274126339800,8.89433984375,-0.13620295264720916,-1.2485858103826641,-0.5670398628793657
1761338274136405000,8.904405029296875,-0.32531273509562014,-1.226729952405393,-0.5846183357983827
1761338274146471000,8.914470947265626,-0.3782166422873735,-1.3684133822903037,-0.5111418884381651
1761338274156536000,8.9245361328125,-0.36806583515107627,-1.571994757683575,-0.43945013253763315
1761338274166602200,8.934602294921875,-0.29302959112823007,-1.684068646724522,-0.3897267550781369
1761338274176668000,8.94466796875,-0.5494365477800369,-1.782581920185685,-0.3581691489063203
1761338274186733000,8.954733154296875,-0.8914028960347176,-1.7423323273837565,-0.2117814868532121
1761338274196799000,8.964799072265626,-1.0046499205082655,-1.5326558499857783,-0.07703282466754317
1761338274206865200,8.974865234375,-0.9923281990736722,-1.3155445464119315,0.02778159476444125
1761338274216929800,8.9849296875,-0.9040770841687917,-1.029624056636542,0.28447876653447746
1761338274226996000,8.994995849609374,-0.7180231821596622,-0.6673783059410751,0.6264772634930909
1761338274237061000,9.00506103515625,-0.6708318073958158,-0.44053317853398616,0.9286319719716906
1761338274247127000,9.015126953125,-0.6146265205711126,-0.056168681141361594,1.0754439969167113
1761338274257193200,9.025193115234375,-0.5726344680160284,0.12006711628455669,1.1298397501014172
1761338274267257900,9.0352578125,-0.579921702414751,0.15937511738743632,1.0245233724966645
1761338274277324000,9.045323974609374,-0.5697311477899552,0.4172704494334757,0.7152806054532528
1761338274287389000,9.055388916015625,-0.566049828928709,0.6308468568794429,0.38716932568028567
1761338274297455000,9.065455078125,-0.7276853289961814,0.8647356191877276,0.36474268207773564
1761338274307521000,9.07552099609375,-0.845011731737852,1.2554730856783687,0.5034840671613812
1761338274317586000,9.0855859375,-0.8202373559653758,1.5464200253136455,0.6052592650279403
1761338274327652000,9.095652099609374,-1.0727671789228916,1.564474152920395,0.360367681863904
1761338274337718000,9.105718017578125,-1.3950176038384436,1.5144021081537007,0.0719745183646679
1761338274347783200,9.115783203125,-1.4803075308501719,1.234462007962167,0.05127002237960696
1761338274357849000,9.12584912109375,-1.3996809194743633,1.0766047843243927,0.30460064032599327
1761338274367914000,9.1359140625,-1.123582004880905,1.132605342357233,0.6021240357421338
1761338274377980000,9.14597998046875,-0.7569435721844434,1.2955641269177198,0.7913207658216357
1761338274388046000,9.156046142578125,-0.38297406594753264,1.438633312072605,1.0036850209988653
1761338274398111200,9.166111328125,-0.09675766196548938,1.4994801410928367,1.3113713523805142
1761338274408177200,9.17617724609375,-0.10889058282971381,1.5067200292184948,1.6911017602317033
1761338274418242800,9.186242919921876,-0.2575333303332329,1.6588362980514764,1.9893236593060195
1761338274428308000,9.196307861328124,-0.3587982405900955,1.7946911679133772,2.207128351971507
1761338274438374100,9.2063740234375,-0.44233343288898463,1.7402594666324556,2.3184240962468086
1761338274448439000,9.21643896484375,-0.3718956225723028,1.6921341720193623,2.2333542417265475
1761338274458505000,9.2265048828125,-0.027426936107873914,1.6196435208261013,2.0695723772801458
1761338274468571000,9.23657080078125,0.42745384366512296,1.4505128426976501,1.9063773728109894
1761338274478636000,9.246635986328124,0.9076707247465848,1.1669850202124565,1.6527578549206257
1761338274488702000,9.256701904296875,1.3783973084270953,0.9008511078596114,1.403208655209094
1761338274498767000,9.26676708984375,1.63132051461637,0.6806081551965326,1.2010256023064254
1761338274508833000,9.2768330078125,1.5364911903649567,0.5851479856956749,1.0027975706398486
1761338274518899000,9.28689892578125,1.2904676805615425,0.6670644176863133,0.9099337012425065
1761338274528964000,9.296964111328125,0.97422321806252,0.8082282076112925,0.858650673250854
1761338274539030000,9.307030029296875,0.6506991199493408,0.8283885137170552,0.7981839295893907
1761338274549096200,9.31709619140625,0.425225061699748,0.7934468911301344,0.6987168625347315
1761338274559160800,9.327160888671875,0.158139474645257,0.7371492498468607,0.6301634046599268
1761338274569227000,9.33722705078125,-0.11090367621779441,0.6753552761696279,0.6117269997373223
1761338274579292200,9.347292236328125,-0.2313631162881851,0.5299451904444024,0.5635825620323419
1761338274589358000,9.357358154296875,-0.25610358979105946,0.3687485567182302,0.5405760727152228
1761338274599424000,9.367424072265624,-0.18695815737247465,0.22727281476724892,0.5415624534040689
1761338274609489000,9.377489013671875,-0.003441664886474609,0.02584737529885024,0.5819518930681049
1761338274619555000,9.38755517578125,0.22740941022634506,-0.08783997682072221,0.6315506212346256
1761338274629620000,9.397619873046875,0.3305342691361904,-0.14072726167123764,0.5960077448189258
1761338274639686100,9.40768603515625,0.4220727351486683,-0.10312986387852578,0.4804350538767874
1761338274649752000,9.417751953125,0.23412381317317485,0.20590653040520845,0.6424388757999986
1761338274659817000,9.42781689453125,-0.24936346788108346,0.6108831327917054,1.1014036369509994
1761338274669883100,9.437883056640626,-0.50974341981709,0.5670835924232378,1.5280265827499329
1761338274679949000,9.447948974609375,0.16223288143873213,-0.37743583064060654,1.5665443833231925
1761338274690014200,9.45801416015625,0.7404816822052002,-0.4482258884610608,1.608096437025815
1761338274700079900,9.468079833984374,0.7639467289447784,0.11707823666688054,1.618975996828079
1761338274710145000,9.47814501953125,0.8083388283789157,-0.28296722946036607,1.0642167927205561
1761338274720211000,9.4882109375,0.8441454702973366,-0.7100770454607903,0.5613081142943352
1761338274730277000,9.498277099609375,0.36379940987825393,-0.967295610756427,0.4496616568852216
1761338274740342000,9.508342041015625,-0.16820727967321872,-0.9428768434885889,0.5580229551438242
1761338274750408000,9.518407958984374,-0.43579029485583304,-0.869414132392779,0.511711943411082
1761338274760473900,9.528473876953125,-0.5757166519403457,-1.0431913942180573,0.38657252883091564
1761338274770539000,9.5385390625,-0.46745209205448623,-1.0943233233012257,0.25877624306641517
