time,seconds_elapsed,z,y,x
1761338265318924800,0.0869248046875,-0.09032546728849411,-0.19810855388641357,0.27689874172210693
1761338265328990000,0.096989990234375,-0.11486104130744934,-0.18780042231082916,0.22933241724967957
1761338265339056000,0.10705615234375,-0.13444113731384277,-0.12763668596744537,0.21726110577583313
1761338265349122000,0.1171220703125,-0.1483338326215744,-0.10459940135478973,0.2182353436946869
1761338265359187200,0.127187255859375,-0.15040656924247742,-0.11234654486179352,0.22698462009429932
1761338265369252900,0.1372529296875,-0.11966554075479507,-0.11446595937013626,0.22084961831569672
1761338265379318000,0.147318115234375,-0.07826750725507736,-0.12537133693695068,0.1824931800365448
1761338265389384000,0.157384033203125,-0.089583620429039,-0.07251802086830139,0.12106664478778839
1761338265399450000,0.1674501953125,-0.10050950944423676,-0.02496408112347126,0.08653049916028976
1761338265409515000,0.177514892578125,-0.1193595826625824,0.016239475458860397,0.07241783291101456
1761338265419581000,0.187580810546875,-0.17460739612579346,-0.03273419290781021,0.13618429005146027
1761338265429646000,0.19764599609375,-0.21356627345085144,-0.15513983368873596,0.17797118425369263
1761338265439712000,0.2077119140625,-0.22693374752998352,-0.27137377858161926,0.15014301240444183
1761338265449778200,0.217778076171875,-0.22611960768699646,-0.34883633255958557,0.06453516334295273
1761338265459842800,0.2278427734375,-0.23282545804977417,-0.4066855311393738,-0.04141709953546524
1761338265469909000,0.237908935546875,-0.26471376419067383,-0.42107608914375305,-0.1605273336172104
1761338265479975000,0.247974853515625,-0.33631739020347595,-0.37697896361351013,-0.2565009891986847
1761338265490040000,0.2580400390625,-0.4270654022693634,-0.28886374831199646,-0.3075679540634155
1761338265500106000,0.26810595703125,-0.46619337797164917,-0.11876151710748672,-0.3108614683151245
1761338265510171000,0.2781708984375,-0.4069671630859375,0.06872433423995972,-0.27859553694725037
1761338265520237000,0.288237060546875,-0.25182846188545227,0.18182960152626038,-0.2238612174987793
1761338265530303000,0.298302978515625,-0.0436742790043354,0.16780371963977814,-0.1577201783657074
1761338265540368100,0.3083681640625,0.1671239733695984,0.0812603086233139,-0.11185281723737717
1761338265550434000,0.31843408203125,0.2980552017688751,-0.056831199675798416,-0.08186623454093933
1761338265560500000,0.3285,0.3531123101711273,-0.23624809086322784,-0.0577411912381649
1761338265570564900,0.33856494140625,0.35301673412323,-0.36566588282585144,-0.05434489995241165
1761338265580631000,0.348631103515625,0.2817590832710266,-0.3925933837890625,-0.047024402767419815
1761338265590696200,0.3586962890625,0.14552253484725952,-0.2873789668083191,-0.03159604221582413
1761338265600762000,0.36876220703125,0.07068530470132828,-0.20727244019508362,-0.011885722167789936
1761338265610828000,0.378828125,0.08593308925628662,-0.21003298461437225,-0.0045419055968523026
1761338265620893000,0.388892822265625,0.15247748792171478,-0.20096172392368317,-0.015044881030917168
1761338265630959000,0.398958984375,0.19291657209396362,-0.17950552701950073,-0.05966910719871521
1761338265641024000,0.40902392578125,0.19252829253673553,-0.16827097535133362,-0.15699192881584167
1761338265651090000,0.41908984375,0.15664042532444,-0.14114634692668915,-0.282722532749176
1761338265661155800,0.42915576171875,0.12858295440673828,-0.1321595013141632,-0.4130704402923584
1761338265671221000,0.439220947265625,0.13490702211856842,-0.1359935849905014,-0.5163098573684692
1761338265681287200,0.449287109375,0.16771210730075836,-0.09463149309158325,-0.5773518681526184
1761338265691353000,0.45935302734375,0.21128514409065247,-0.009733982384204865,-0.609646201133728
1761338265701418000,0.46941796875,0.2421671599149704,0.06545105576515198,-0.6326069235801697
1761338265711484000,0.47948388671875,0.26551464200019836,0.12337715923786163,-0.6560009717941284
1761338265721549000,0.489549072265625,0.29018136858940125,0.1787799596786499,-0.6555472016334534
1761338265731615000,0.499614990234375,0.34874600172042847,0.21910303831100464,-0.6424746513366699
1761338265741681200,0.50968115234375,0.4420525133609772,0.21626384556293488,-0.6121699810028076
1761338265751746000,0.51974609375,0.5039942264556885,0.12423258274793625,-0.5587813854217529
1761338265761812000,0.52981201171875,0.47609254717826843,-0.012286915443837643,-0.47912517189979553
1761338265771877000,0.539877197265625,0.3712470829486847,-0.1285352259874344,-0.4039404094219208
1761338265781943000,0.549943115234375,0.23348788917064667,-0.2182091921567917,-0.2882196605205536
1761338265792009200,0.56000927734375,0.09275931119918823,-0.21316851675510406,-0.1507558375597
1761338265802073900,0.570073974609375,-0.018387984484434128,-0.12318003177642822,-0.00916595384478569
1761338265812140000,0.58014013671875,-0.08453653752803802,-0.012550659477710724,0.11065621674060822
1761338265822206000,0.5902060546875,-0.08496104925870895,0.1308845430612564,0.2033265084028244
1761338265832271000,0.60027099609375,-0.04667426645755768,0.2598276734352112,0.2745720446109772
1761338265842337000,0.6103369140625,0.04089313745498657,0.34947872161865234,0.3396359980106354
1761338265852402000,0.62040185546875,0.19303762912750244,0.4064710736274719,0.4120141267776489
1761338265862467600,0.630467529296875,0.3821164667606354,0.4152826964855194,0.5052750706672668
1761338265872533500,0.640533447265625,0.5620911121368408,0.26820728182792664,0.588387668132782
1761338265882598700,0.6505986328125,0.6800172328948975,-0.039417117834091187,0.6355722546577454
1761338265892664600,0.66066455078125,0.6919269561767578,-0.3809123635292053,0.6164179444313049
1761338265902730500,0.67073046875,0.6231100559234619,-0.6231992840766907,0.5773571133613586
1761338265912795600,0.680795654296875,0.5148610472679138,-0.7539095282554626,0.5172848105430603
1761338265922861600,0.690861572265625,0.358289510011673,-0.7729966640472412,0.42055878043174744
1761338265932926700,0.7009267578125,0.12349500507116318,-0.723167896270752,0.27529358863830566
1761338265942992400,0.710992431640625,-0.14455480873584747,-0.6014785170555115,0.08691089600324631
1761338265953058600,0.72105859375,-0.3866078555583954,-0.38724759221076965,-0.07233820855617523
1761338265963123500,0.73112353515625,-0.5705249905586243,-0.10082247108221054,-0.19052398204803467
1761338265973189600,0.741189697265625,-0.6890395879745483,0.19788120687007904,-0.257948100566864
1761338265983254800,0.7512548828125,-0.727544903755188,0.45658600330352783,-0.24927528202533722
1761338265993320400,0.761320556640625,-0.6905129551887512,0.6103092432022095,-0.15670441091060638
1761338266003386600,0.77138671875,-0.5907291173934937,0.6140760183334351,-0.009562362916767597
1761338266013451500,0.781451416015625,-0.4480054974555969,0.47942692041397095,0.17446042597293854
1761338266023517700,0.791517578125,-0.2694847583770752,0.25368329882621765,0.37729504704475403
1761338266033583600,0.80158349609375,-0.08956867456436157,0.0304231196641922,0.6076729893684387
1761338266043648500,0.8116484375,0.0750943124294281,-0.11053160578012466,0.8451894521713257
1761338266053714400,0.82171435546875,0.2068938910961151,-0.20865923166275024,1.0331084728240967
1761338266063779600,0.831779541015625,0.3035898208618164,-0.3293944299221039,1.1349560022354126
1761338266073845500,0.841845458984375,0.3496830463409424,-0.4601799547672272,1.1549882888793945
1761338266083911700,0.85191162109375,0.34752774238586426,-0.5874468088150024,1.0797675848007202
1761338266093976600,0.8619765625,0.2968044877052307,-0.7343491315841675,0.9226736426353455
1761338266104042500,0.87204248046875,0.23747487366199493,-0.8503135442733765,0.7001526951789856
1761338266114108700,0.882108642578125,0.17078250646591187,-0.8528705835342407,0.45342960953712463
1761338266124173600,0.892173583984375,0.08549690246582031,-0.6862522959709167,0.20898659527301788
1761338266134239700,0.90223974609375,-0.029301337897777557,-0.3947121798992157,-0.0042700134217739105
1761338266144304600,0.9123046875,-0.16935670375823975,-0.06972584873437881,-0.14723196625709534
1761338266154370600,0.92237060546875,-0.3011140525341034,0.21736213564872742,-0.2234715223312378
1761338266164436500,0.9324365234375,-0.3887501657009125,0.4057730734348297,-0.24961230158805847
1761338266174501600,0.942501708984375,-0.43860772252082825,0.4796329140663147,-0.25874000787734985
1761338266184567600,0.952567626953125,-0.4554876387119293,0.47050705552101135,-0.27019134163856506
1761338266194632400,0.962632568359375,-0.45094266533851624,0.4522733688354492,-0.26149478554725647
1761338266204698600,0.97269873046875,-0.44145411252975464,0.4348195493221283,-0.2438955456018448
1761338266214764500,0.9827646484375,-0.4340215027332306,0.40436050295829773,-0.24406251311302185
1761338266224829700,0.99282958984375,-0.42288869619369507,0.3320505917072296,-0.2572004199028015
1761338266234895400,1.002895263671875,-0.3931966722011566,0.2319926619529724,-0.2649801969528198
1761338266244961500,1.01296142578125,-0.3444320559501648,0.14099642634391785,-0.27061837911605835
1761338266255026700,1.023026611328125,-0.29294613003730774,0.03190332651138306,-0.2753285765647888
1761338266265092600,1.033092529296875,-0.23075464367866516,-0.05751390755176544,-0.2884821891784668
1761338266275157500,1.043157470703125,-0.15076887607574463,-0.05459729954600334,-0.3144175410270691
1761338266285223400,1.053223388671875,-0.05103614926338196,-0.0008046431466937065,-0.33646637201309204
1761338266295289600,1.06328955078125,0.0572730116546154,0.05811060220003128,-0.373602032661438
1761338266305354500,1.0733544921875,0.1565127670764923,0.06824233382940292,-0.42798590660095215
1761338266315420700,1.083420654296875,0.22702357172966003,0.007122976705431938,-0.4882272779941559
1761338266325485600,1.093485595703125,0.27096253633499146,-0.06400392949581146,-0.5160112380981445
1761338266335551500,1.103551513671875,0.2831983268260956,-0.13825319707393646,-0.5071784853935242
1761338266345617400,1.113617431640625,0.2684348225593567,-0.1449795514345169,-0.447195827960968
1761338266355682600,1.1236826171875,0.2477228343486786,-0.130289226770401,-0.3486417829990387
1761338266365748700,1.133748779296875,0.25118333101272583,-0.14411050081253052,-0.21493618190288544
1761338266375814700,1.143814697265625,0.3219766914844513,-0.20426642894744873,-0.10240551829338074
1761338266385879600,1.153879638671875,0.4676140546798706,-0.3244897723197937,-0.02419620007276535
1761338266395945500,1.163945556640625,0.6756721138954163,-0.4382554888725281,0.05079151690006256
1761338266406010600,1.1740107421875,0.8714061975479126,-0.48303869366645813,0.14208947122097015
1761338266416076500,1.18407666015625,0.9674949645996094,-0.4875166714191437,0.2808840274810791
1761338266426142500,1.194142578125,0.8655843138694763,-0.45132508873939514,0.46426236629486084
1761338266436207600,1.20420751953125,0.6018639206886292,-0.3888479769229889,0.6572588682174683
1761338266446273500,1.2142734375,0.29135212302207947,-0.21645328402519226,0.8666408658027649
1761338266456339700,1.224339599609375,0.011890698224306107,0.07288658618927002,1.0655357837677002
1761338266466404600,1.234404541015625,-0.18462128937244415,0.44283348321914673,1.170149564743042
1761338266476470500,1.244470458984375,-0.289939284324646,0.8028407096862793,1.134034276008606
1761338266486535400,1.254535400390625,-0.3200223445892334,1.0478744506835938,0.90638267993927
1761338266496601600,1.2646015625,-0.24691806733608246,1.1447731256484985,0.5356829166412354
1761338266506667500,1.27466748046875,-0.0759149044752121,1.1160898208618164,0.10125799477100372
1761338266516732400,1.284732421875,0.09857825934886932,0.9606646299362183,-0.27578186988830566
1761338266526798600,1.294798583984375,0.1621612161397934,0.7005044221878052,-0.5054078698158264
1761338266536864500,1.304864501953125,0.1185799315571785,0.3897208571434021,-0.6003314852714539
1761338266546929700,1.3149296875,0.035450953990221024,0.09370706230401993,-0.5894540548324585
1761338266556995600,1.32499560546875,-0.052130963653326035,-0.11333490163087845,-0.5026726722717285
1761338266567060500,1.335060546875,-0.12666644155979156,-0.17640282213687897,-0.3504847288131714
1761338266577126400,1.34512646484375,-0.16555531322956085,-0.10699093341827393,-0.15930861234664917
1761338266587192600,1.355192626953125,-0.15134255588054657,0.07306991517543793,0.030135098844766617
1761338266597257700,1.3652578125,-0.07965278625488281,0.2741547226905823,0.18937948346138
1761338266607323600,1.37532373046875,0.043375398963689804,0.4202389717102051,0.28947117924690247
1761338266617388500,1.385388427734375,0.18836379051208496,0.4671964943408966,0.3499608337879181
1761338266627454500,1.395454345703125,0.31330013275146484,0.42173951864242554,0.3807525634765625
1761338266637520600,1.405520751953125,0.3777618706226349,0.33018726110458374,0.3764476776123047
1761338266647585500,1.41558544921875,0.38554254174232483,0.25080934166908264,0.34515899419784546
1761338266657651700,1.425651611328125,0.3628857731819153,0.23676086962223053,0.29348933696746826
1761338266667716600,1.435716552734375,0.3115386962890625,0.23852281272411346,0.20617705583572388
1761338266677782500,1.445782470703125,0.27856600284576416,0.27710840106010437,0.09745416790246964
1761338266687848400,1.455848388671875,0.27463117241859436,0.3421979248523712,-0.01985727809369564
1761338266697913600,1.46591357421875,0.3149176239967346,0.38367852568626404,-0.12383241206407547
1761338266707979800,1.475979736328125,0.37934985756874084,0.3361336290836334,-0.1982477903366089
1761338266718045400,1.48604541015625,0.45337244868278503,0.19890476763248444,-0.23410755395889282
1761338266728110600,1.496110595703125,0.5074809789657593,-0.0160373542457819,-0.23862481117248535
1761338266738176500,1.506176513671875,0.5314523577690125,-0.2684674859046936,-0.2327120453119278
1761338266748241700,1.51624169921875,0.5295013189315796,-0.5136175751686096,-0.2230261266231537
1761338266758307600,1.5263076171875,0.511860191822052,-0.6773592829704285,-0.22364765405654907
1761338266768373500,1.53637353515625,0.4821459949016571,-0.7671656012535095,-0.23898692429065704
1761338266778438700,1.546438720703125,0.42004871368408203,-0.7335808873176575,-0.2516683042049408
1761338266788504600,1.556504638671875,0.3100087642669678,-0.5708423256874084,-0.26346638798713684
1761338266798570800,1.56657080078125,0.17045670747756958,-0.31034401059150696,-0.29102927446365356
1761338266808635400,1.576635498046875,0.02460470050573349,0.0022682268172502518,-0.3193743824958801
1761338266818701600,1.58670166015625,-0.08855560421943665,0.26315996050834656,-0.3524322509765625
1761338266828766500,1.596766357421875,-0.1608031690120697,0.4253310263156891,-0.38490283489227295
1761338266838832600,1.60683251953125,-0.19012658298015594,0.49842673540115356,-0.39894741773605347
1761338266848898600,1.616898681640625,-0.17845287919044495,0.48111164569854736,-0.39884382486343384
1761338266858963700,1.626963623046875,-0.11872073262929916,0.391525000333786,-0.38321757316589355
1761338266869030000,1.63702978515625,-0.018428485840559006,0.25008800625801086,-0.3664740025997162
1761338266879094500,1.647094482421875,0.09016317129135132,0.056217972189188004,-0.3561522960662842
1761338266889160700,1.65716064453125,0.18699197471141815,-0.0696139931678772,-0.3315074145793915
1761338266899226600,1.6672265625,0.24058225750923157,-0.13196176290512085,-0.29335182905197144
1761338266909291800,1.677291748046875,0.245631605386734,-0.20204763114452362,-0.2778759300708771
1761338266919357400,1.687357421875,0.24609529972076416,-0.2301979511976242,-0.28443479537963867
1761338266929423600,1.697423583984375,0.25386613607406616,-0.21501685678958893,-0.323344886302948
1761338266939488800,1.70748876953125,0.28371936082839966,-0.19078564643859863,-0.3778722882270813
1761338266949554700,1.7175546875,0.3266258239746094,-0.14372918009757996,-0.4399886727333069
1761338266959619800,1.727619873046875,0.3440144658088684,-0.08320996910333633,-0.46708160638809204
1761338266969685500,1.737685546875,0.30782076716423035,-0.018589962273836136,-0.4529023766517639
1761338266979751700,1.747751708984375,0.23913314938545227,0.026488296687602997,-0.40876543521881104
1761338266989816600,1.757816650390625,0.15856772661209106,0.03741711005568504,-0.3489718735218048
1761338266999882800,1.7678828125,0.08144645392894745,0.007955869659781456,-0.28185874223709106
1761338267009947600,1.77794775390625,0.045015476644039154,-0.03711014240980148,-0.20775946974754333
1761338267020013600,1.788013671875,0.05672265589237213,-0.08349072933197021,-0.16373732686042786
1761338267030079500,1.79807958984375,0.06067638099193573,-0.14638499915599823,-0.13477332890033722
1761338267040144600,1.80814453125,0.030831146985292435,-0.2279849797487259,-0.09042450785636902
1761338267050210800,1.8182109375,-0.020361466333270073,-0.2760648727416992,-0.003941016737371683
1761338267060276700,1.82827685546875,-0.0804501548409462,-0.2889706790447235,0.10743722319602966
1761338267070341600,1.838341552734375,-0.18035463988780975,-0.2680369019508362,0.23637549579143524
1761338267080407600,1.848407470703125,-0.3157041072845459,-0.21407674252986908,0.36437463760375977
1761338267090472700,1.85847265625,-0.46092814207077026,-0.16074375808238983,0.4879647493362427
1761338267100538600,1.86853857421875,-0.5899553298950195,-0.0902290791273117,0.6009505987167358
1761338267110604800,1.878604736328125,-0.6717433929443359,-0.003368745557963848,0.6800605654716492
1761338267120669700,1.888669677734375,-0.6186420917510986,0.14284083247184753,0.6772333979606628
1761338267130735600,1.898735595703125,-0.4487539827823639,0.2682775855064392,0.547878086566925
1761338267140800800,1.90880078125,-0.24458876252174377,0.25267648696899414,0.32258203625679016
1761338267150866700,1.91886669921875,-0.08999413251876831,0.13022781908512115,0.07350535690784454
1761338267160932600,1.9289326171875,-0.008459636941552162,-0.0341750904917717,-0.13951365649700165
1761338267170997500,1.93899755859375,-0.04423680901527405,-0.13568812608718872,-0.2836921513080597
1761338267181063700,1.949063720703125,-0.18842987716197968,-0.14253659546375275,-0.33040112257003784
1761338267191129600,1.959129638671875,-0.3502073287963867,-0.036718808114528656,-0.25721612572669983
1761338267201194800,1.96919482421875,-0.43776896595954895,0.15298321843147278,-0.10938658565282822
1761338267211260700,1.9792607421875,-0.41854095458984375,0.34563174843788147,0.061999812722206116
1761338267221325600,1.98932568359375,-0.3179830312728882,0.4820244312286377,0.20574243366718292
1761338267231391700,1.999391845703125,-0.17549751698970795,0.5303817987442017,0.3033856451511383
1761338267241457700,2.009457763671875,-0.01669573038816452,0.4986048936843872,0.35659727454185486
1761338267251522600,2.0195224609375,0.14148858189582825,0.38533294200897217,0.381989449262619
1761338267261588500,2.02958837890625,0.28944963216781616,0.25473055243492126,0.4215511679649353
1761338267271654700,2.039654541015625,0.4222889244556427,0.17778435349464417,0.49634870886802673
1761338267281719800,2.0497197265625,0.5290871262550354,0.12561756372451782,0.6007958650588989
1761338267291785700,2.05978564453125,0.5903803110122681,0.04699518531560898,0.7193851470947266
1761338267301850600,2.0698505859375,0.6160877346992493,-0.051259614527225494,0.8214625716209412
1761338267311916500,2.07991650390625,0.6099579334259033,-0.1702515184879303,0.8763799071311951
1761338267321982700,2.089982666015625,0.5824775695800781,-0.3168613016605377,0.8631245493888855
1761338267332047600,2.100047607421875,0.5479073524475098,-0.4634195864200592,0.7763918042182922
1761338267342113800,2.11011376953125,0.50821453332901,-0.5689650774002075,0.6377321481704712
1761338267352178700,2.1201787109375,0.45339763164520264,-0.6412688493728638,0.44943785667419434
1761338267362244600,2.13024462890625,0.3555893898010254,-0.6549023389816284,0.2404528558254242
1761338267372310500,2.140310546875,0.207016721367836,-0.6027536988258362,0.014964066445827484
1761338267382375700,2.150375732421875,0.028793608769774437,-0.5016376972198486,-0.2192661464214325
1761338267392441900,2.16044189453125,-0.13678497076034546,-0.33706578612327576,-0.4143903851509094
1761338267402507500,2.170507568359375,-0.2595197260379791,-0.12013813853263855,-0.5556683540344238
1761338267412572700,2.18057275390625,-0.3152727484703064,0.07550859451293945,-0.619010865688324
1761338267422638600,2.190638671875,-0.30522510409355164,0.22910495102405548,-0.5766703486442566
1761338267432703700,2.200703857421875,-0.25444793701171875,0.3188425600528717,-0.43909013271331787
1761338267442769700,2.210769775390625,-0.20011387765407562,0.31114304065704346,-0.2518629729747772
1761338267452835600,2.220835693359375,-0.13672319054603577,0.23670078814029694,-0.0626901239156723
1761338267462900700,2.230900634765625,-0.05301514267921448,0.1395549476146698,0.08544329553842545
1761338267472966700,2.240966552734375,0.027561992406845093,0.044112853705883026,0.17292706668376923
1761338267483031800,2.25103173828125,0.09556090831756592,-0.022657010704278946,0.19085693359375
1761338267493097500,2.261097412109375,0.13585586845874786,-0.06941839307546616,0.14458982646465302
1761338267503163600,2.27116357421875,0.1508520096540451,-0.10894803702831268,0.04021667316555977
1761338267513228500,2.281228515625,0.12402066588401794,-0.12181589752435684,-0.09189502894878387
1761338267523294700,2.291294677734375,0.06125916168093681,-0.11780418455600739,-0.2439371645450592
1761338267533359900,2.30135986328125,0.003444331930950284,-0.12177842110395432,-0.4025811553001404
1761338267543425500,2.311425537109375,-0.019755391404032707,-0.09659113734960556,-0.517268180847168
1761338267553491700,2.32149169921875,-0.01941690407693386,-0.07306157797574997,-0.5901436805725098
1761338267563556600,2.331556640625,-0.014199931174516678,-0.06992544233798981,-0.6131356954574585
1761338267573622800,2.341622802734375,-0.009311964735388756,-0.07038617134094238,-0.5923774242401123
1761338267583688700,2.351688720703125,-0.013789190910756588,-0.08435368537902832,-0.5322715640068054
1761338267593753600,2.361753662109375,-0.009634659625589848,-0.11258266121149063,-0.44278720021247864
1761338267603819500,2.371819580078125,0.011836845427751541,-0.14322353899478912,-0.34715473651885986
1761338267613884700,2.381884765625,0.03993985429406166,-0.1692167967557907,-0.26891106367111206
1761338267623950600,2.39195068359375,0.07858937233686447,-0.20012634992599487,-0.22508780658245087
1761338267634016800,2.402016845703125,0.1206502690911293,-0.22586606442928314,-0.2335561364889145
1761338267644081700,2.41208154296875,0.17126710712909698,-0.24570688605308533,-0.2573930025100708
1761338267654147600,2.422147705078125,0.21311548352241516,-0.268554151058197,-0.2910023629665375
1761338267664213800,2.4322138671875,0.2304152101278305,-0.2853541970252991,-0.2749963402748108
1761338267674278700,2.442278564453125,0.21783603727817535,-0.2983381748199463,-0.21726351976394653
1761338267684344600,2.452344482421875,0.20401081442832947,-0.32891538739204407,-0.10244085639715195
1761338267694409700,2.46240966796875,0.18974079191684723,-0.33965805172920227,0.05698129162192345
1761338267704475600,2.4724755859375,0.16760143637657166,-0.38279980421066284,0.21049490571022034
1761338267714541600,2.48254150390625,0.11985229700803757,-0.39279118180274963,0.3784644901752472
1761338267724606700,2.492606689453125,0.04539256915450096,-0.2791380286216736,0.5727195739746094
1761338267734672600,2.502672607421875,-0.1026991605758667,-0.03533283248543739,0.7442300915718079
1761338267744737500,2.512737548828125,-0.30023208260536194,0.22561395168304443,0.8140636682510376
1761338267754803700,2.5228037109375,-0.387384831905365,0.35113993287086487,0.7442459464073181
1761338267764869600,2.53286962890625,-0.3151000142097473,0.2696368992328644,0.5803089737892151
1761338267774934500,2.5429345703125,-0.1762515902519226,0.10309211909770966,0.38856375217437744
1761338267785000400,2.55300048828125,-0.08383575081825256,-0.08547121286392212,0.2038305252790451
1761338267795066600,2.563066650390625,-0.0631650984287262,-0.30358490347862244,0.0578906275331974
1761338267805131800,2.5731318359375,-0.1053389459848404,-0.4957785904407501,-0.05095113441348076
1761338267815197700,2.58319775390625,-0.18326303362846375,-0.5588952898979187,-0.08824444562196732
1761338267825262600,2.5932626953125,-0.27187737822532654,-0.5092788338661194,-0.05528992414474487
1761338267835328500,2.60332861328125,-0.3766173720359802,-0.29541313648223877,0.04142782837152481
1761338267845394700,2.613394775390625,-0.45554253458976746,0.006426083855330944,0.15636613965034485
1761338267855459600,2.62345947265625,-0.49717387557029724,0.3281966745853424,0.22863739728927612
1761338267865526300,2.6335263671875,-0.4729796350002289,0.6506160497665405,0.25787150859832764
1761338267875591200,2.643591064453125,-0.3707936108112335,0.8825267553329468,0.2430528849363327
1761338267885657300,2.6536572265625,-0.21922387182712555,0.9513492584228516,0.22507181763648987
1761338267895723300,2.66372314453125,-0.06409819424152374,0.8897503614425659,0.254343718290329
1761338267905788400,2.673788330078125,0.07599974423646927,0.7372065186500549,0.3341296315193176
1761338267915854300,2.683854248046875,0.19525131583213806,0.5330496430397034,0.4440034031867981
1761338267925920300,2.693920166015625,0.28466731309890747,0.3301113545894623,0.5517928600311279
1761338267935985400,2.7039853515625,0.3544735610485077,0.1386905312538147,0.6033961176872253
1761338267946051300,2.71405126953125,0.3951752483844757,-0.03726973012089729,0.5850934982299805
1761338267956116200,2.7241162109375,0.4113089442253113,-0.1697460114955902,0.49834319949150085
1761338267966182100,2.73418212890625,0.4118153750896454,-0.26366668939590454,0.3812960386276245
1761338267976248300,2.744248291015625,0.38773560523986816,-0.3035145103931427,0.2661777138710022
1761338267986313200,2.754313232421875,0.3538898527622223,-0.31117185950279236,0.16355986893177032
1761338267996379400,2.76437939453125,0.3061481714248657,-0.30848047137260437,0.05301845073699951
1761338268006444300,2.7744443359375,0.2548840641975403,-0.2973722517490387,-0.07994534075260162
1761338268016510200,2.78451025390625,0.2120436429977417,-0.2574631869792938,-0.22040711343288422
1761338268026576400,2.794576416015625,0.1529780477285385,-0.1997103989124298,-0.3536526560783386
1761338268036641300,2.804641357421875,0.08989015966653824,-0.13362005352973938,-0.45293450355529785
1761338268046707500,2.81470751953125,0.03467830270528793,-0.06836427748203278,-0.5002034306526184
1761338268056773400,2.8247734375,-0.0035686856135725975,-0.016196949407458305,-0.49541616439819336
1761338268066838300,2.83483837890625,-0.01952088065445423,0.002887899987399578,-0.4580098092556
1761338268076904200,2.844904296875,-0.02072249911725521,-0.023095764219760895,-0.3873899579048157
1761338268086969300,2.85496923828125,-0.024617986753582954,-0.02250025048851967,-0.2970142066478729
1761338268097035500,2.865035400390625,-0.02410346269607544,0.002654106356203556,-0.18727490305900574
1761338268107101200,2.87510107421875,-0.018411558121442795,0.0021188566461205482,-0.10573470592498779
1761338268117166300,2.885166259765625,-0.005259270314127207,-0.002394668757915497,-0.06623177230358124
1761338268127232300,2.895232177734375,0.011175107210874557,-0.00043050292879343033,-0.06962224841117859
1761338268137298400,2.90529833984375,0.02400488406419754,-0.021540846675634384,-0.11668163537979126
1761338268147363300,2.91536328125,0.02090291678905487,-0.02852342277765274,-0.18253663182258606
1761338268157429200,2.92542919921875,0.009691008366644382,-0.024539068341255188,-0.2616056203842163
1761338268167494400,2.935494384765625,0.0033181796316057444,-0.014237616211175919,-0.34425532817840576
1761338268177560300,2.945560302734375,0.008055676706135273,-0.010293475352227688,-0.4170256555080414
1761338268187626200,2.955626220703125,0.013325376436114311,-0.031327053904533386,-0.48123860359191895
1761338268197691100,2.965691162109375,0.013998623937368393,-0.06444772332906723,-0.5227029323577881
1761338268207757300,2.97575732421875,0.01635528914630413,-0.12439003586769104,-0.5470445156097412
1761338268217822200,2.985822265625,0.012935790233314037,-0.1872454434633255,-0.5620349049568176
1761338268227888400,2.995888427734375,0.024688251316547394,-0.1997036635875702,-0.5446460247039795
1761338268237954300,3.005954345703125,0.040054693818092346,-0.189220130443573,-0.4991168975830078
1761338268248019200,3.016019287109375,0.052529264241456985,-0.17559872567653656,-0.44722020626068115
1761338268258085400,3.02608544921875,0.06645147502422333,-0.12371501326560974,-0.37731170654296875
1761338268268151300,3.0361513671875,0.07941456884145737,-0.06623813509941101,-0.2756805419921875
1761338268278216400,3.046216552734375,0.06746736168861389,-0.07475971430540085,-0.17187879979610443
1761338268288282400,3.056282470703125,0.04243974760174751,-0.11991450935602188,-0.07806946337223053
1761338268298347300,3.06634716796875,0.01787315309047699,-0.18422585725784302,0.005371374543756247
1761338268308413200,3.0764130859375,0.00028389040380716324,-0.22790029644966125,0.08641950786113739
1761338268318479400,3.086479248046875,-0.0037718373350799084,-0.26330381631851196,0.16279177367687225
1761338268328544300,3.096544189453125,0.007931874133646488,-0.28764399886131287,0.2273506075143814
1761338268338610400,3.1066103515625,0.031170085072517395,-0.27393510937690735,0.27142512798309326
1761338268348675300,3.11667529296875,0.057297203689813614,-0.244077667593956,0.3063003718852997
1761338268358741200,3.1267412109375,0.061453063040971756,-0.22064532339572906,0.3379826843738556
1761338268368807400,3.136807373046875,0.03237112611532211,-0.2055642455816269,0.3705804944038391
1761338268378872300,3.146872314453125,-0.005462804809212685,-0.17172105610370636,0.4241560995578766
1761338268388938500,3.1569384765625,-0.03556552529335022,-0.15282359719276428,0.49401184916496277
1761338268399004200,3.167004150390625,-0.05781703069806099,-0.17146334052085876,0.5559410452842712
1761338268409069300,3.1770693359375,-0.09560202062129974,-0.2350853830575943,0.5625683069229126
1761338268419135200,3.18713525390625,-0.15072865784168243,-0.3284502327442169,0.4979296922683716
1761338268429200400,3.197200439453125,-0.2216106802225113,-0.39720940589904785,0.3551764190196991
1761338268439266300,3.207266357421875,-0.30508455634117126,-0.4028252065181732,0.1448788195848465
1761338268449332200,3.217332275390625,-0.41555309295654297,-0.307057648897171,-0.07493974268436432
1761338268459397400,3.2273974609375,-0.55430006980896,-0.1084929034113884,-0.25520431995391846
1761338268469463300,3.23746337890625,-0.714341938495636,0.10553089529275894,-0.34994733333587646
1761338268479528400,3.247528564453125,-0.8467848896980286,0.33980172872543335,-0.3476168215274811
1761338268489594000,3.257593994140625,-0.8973336815834045,0.5248445272445679,-0.28663936257362366
1761338268499660300,3.267660400390625,-0.8606787323951721,0.6204179525375366,-0.20978185534477234
1761338268509725400,3.277725341796875,-0.7417009472846985,0.6759166121482849,-0.11745647341012955
1761338268519791400,3.287791259765625,-0.5584091544151306,0.6675196886062622,-0.005190919619053602
1761338268529857300,3.297857177734375,-0.3511486053466797,0.5873420834541321,0.13505777716636658
1761338268539922200,3.307922119140625,-0.16693748533725739,0.4906083643436432,0.31668829917907715
1761338268549988400,3.31798828125,-0.03625677525997162,0.42063120007514954,0.5263126492500305
1761338268560053200,3.32805322265625,0.0547274574637413,0.35623621940612793,0.7511452436447144
1761338268570119400,3.338119384765625,0.1432853490114212,0.27995145320892334,0.9593623280525208
1761338268580185300,3.348185302734375,0.22721673548221588,0.17760565876960754,1.10458505153656
1761338268590250200,3.358250244140625,0.2988307476043701,0.021448366343975067,1.1522876024246216
1761338268600316200,3.368316162109375,0.3604203462600708,-0.18161073327064514,1.1013168096542358
1761338268610381300,3.37838134765625,0.4035551846027374,-0.37097808718681335,0.9652799367904663
1761338268620447500,3.388447509765625,0.41280698776245117,-0.5232989192008972,0.7656962871551514
1761338268630513400,3.398513427734375,0.38187581300735474,-0.6180973649024963,0.537924587726593
1761338268640578300,3.408578369140625,0.3068409860134125,-0.6311295628547668,0.31993523240089417
1761338268650644200,3.418644287109375,0.18591608107089996,-0.5784884095191956,0.12192849069833755
1761338268660710400,3.42871044921875,0.03301626816391945,-0.4724668860435486,-0.07206973433494568
1761338268670775300,3.438775390625,-0.14013254642486572,-0.3116477131843567,-0.28211891651153564
1761338268680841200,3.44884130859375,-0.3116408884525299,-0.08610112220048904,-0.4691029191017151
1761338268690906400,3.45890625,-0.44797542691230774,0.18320006132125854,-0.5883570313453674
1761338268700972300,3.46897216796875,-0.5312052965164185,0.4170418381690979,-0.6132134199142456
1761338268711038500,3.47903857421875,-0.5491745471954346,0.5859465003013611,-0.5430940985679626
1761338268721103400,3.489103271484375,-0.5213935375213623,0.6583617925643921,-0.41111424565315247
1761338268731169300,3.499169189453125,-0.459663450717926,0.6413069367408752,-0.25240781903266907
1761338268741234200,3.509234130859375,-0.37405669689178467,0.5550082325935364,-0.10544047504663467
1761338268751300400,3.51930029296875,-0.2708622217178345,0.4198012948036194,0.0013020392507314682
1761338268761366300,3.5293662109375,-0.16129736602306366,0.248044952750206,0.07701757550239563
1761338268771431200,3.53943115234375,-0.051052965223789215,0.0684659332036972,0.11338097602128983
1761338268781497300,3.549497314453125,0.028606710955500603,-0.1000535786151886,0.12137472629547119
1761338268791563300,3.559563232421875,0.062398310750722885,-0.2563723921775818,0.08487682044506073
1761338268801628400,3.56962841796875,0.039893269538879395,-0.3779619038105011,0.012827657163143158
1761338268811694300,3.5796943359375,-0.02491755597293377,-0.430324912071228,-0.085106760263443
1761338268821759200,3.58975927734375,-0.0879599004983902,-0.43842703104019165,-0.1971142441034317
1761338268831825200,3.5998251953125,-0.15019138157367706,-0.3850780129432678,-0.29068487882614136
1761338268841891300,3.609891357421875,-0.20731885731220245,-0.295511394739151,-0.36548641324043274
1761338268851956500,3.61995654296875,-0.26742565631866455,-0.21805986762046814,-0.42349669337272644
1761338268862022000,3.63002197265625,-0.3459108769893646,-0.1396731734275818,-0.44307011365890503
1761338268872087000,3.640087158203125,-0.4461824893951416,-0.08393925428390503,-0.437173992395401
1761338268882153000,3.650153076171875,-0.5454124212265015,-0.06495996564626694,-0.39732325077056885
1761338268892219100,3.66021923828125,-0.6182975769042969,-0.06499284505844116,-0.32563865184783936
1761338268902284000,3.670283935546875,-0.660961925983429,-0.08536602556705475,-0.23538491129875183
1761338268912350000,3.680349853515625,-0.6792505383491516,-0.1075306236743927,-0.1487167328596115
1761338268922415900,3.690415771484375,-0.6990814805030823,-0.11997690796852112,-0.08063460886478424
1761338268932481000,3.70048095703125,-0.7607935070991516,-0.09948421269655228,-0.025539716705679893
1761338268942547200,3.710547119140625,-0.8555165529251099,-0.03251423314213753,0.027937358245253563
1761338268952611800,3.72061181640625,-0.939483642578125,0.008457166142761707,0.049840789288282394
1761338268962678000,3.730677978515625,-0.9743175506591797,0.027788519859313965,0.048184834420681
1761338268972744000,3.740743896484375,-0.9784082174301147,0.03369566425681114,0.03222878649830818
1761338268982809000,3.75080908203125,-0.9657711982727051,0.036007288843393326,0.006984948180615902
1761338268992875000,3.760875,-0.94988614320755,0.03812313824892044,-0.01130811870098114
1761338269002941200,3.770941162109375,-0.9271856546401978,0.08944252133369446,-0.010282003320753574
1761338269013006000,3.781006103515625,-0.9037678837776184,0.1597081422805786,0.0032030828297138214
1761338269023072000,3.791072021484375,-0.884979784488678,0.23675605654716492,0.02672092616558075
1761338269033137200,3.80113720703125,-0.8507291078567505,0.3505493104457855,0.08396685868501663
1761338269043203000,3.811203125,-0.8109936714172363,0.490123987197876,0.17082105576992035
1761338269053269000,3.82126904296875,-0.7734133005142212,0.6028280258178711,0.27523595094680786
1761338269063334000,3.831333984375,-0.7622014284133911,0.609259843826294,0.3757859766483307
1761338269073400000,3.841400146484375,-0.7696555852890015,0.49605095386505127,0.4308423101902008
1761338269083465200,3.85146533203125,-0.7645719051361084,0.27959829568862915,0.4124681055545807
1761338269093531100,3.86153125,-0.7105196118354797,0.014471038244664669,0.3199935555458069
1761338269103596800,3.8715966796875,-0.6362629532814026,-0.2770867943763733,0.13193604350090027
1761338269113662000,3.881661865234375,-0.600317120552063,-0.5951106548309326,-0.1413104385137558
1761338269123728100,3.89172802734375,-0.6389694809913635,-0.7623465657234192,-0.4404555857181549
1761338269133794000,3.9017939453125,-0.7544860243797302,-0.5935699939727783,-0.6769140958786011
1761338269143859000,3.91185888671875,-0.8707178235054016,-0.20138467848300934,-0.8324001431465149
1761338269153924900,3.9219248046875,-0.9539627432823181,0.27420753240585327,-0.8100406527519226
1761338269163990000,3.931989990234375,-0.9783464074134827,0.6419395208358765,-0.5620308518409729
1761338269174056000,3.942055908203125,-0.9231501221656799,0.8421462774276733,-0.1497853696346283
1761338269184122000,3.9521220703125,-0.787225067615509,0.8281462788581848,0.33720773458480835
1761338269194187000,3.96218701171875,-0.6516294479370117,0.5937684774398804,0.7744700312614441
1761338269204253000,3.9722529296875,-0.5437167882919312,0.26028376817703247,1.0818140506744385
1761338269214318000,3.982318115234375,-0.48116663098335266,-0.09290846437215805,1.2101951837539673
1761338269224384000,3.992384033203125,-0.44335639476776123,-0.4110882878303528,1.1448992490768433
1761338269234450200,4.0024501953125,-0.42502477765083313,-0.6554194092750549,0.9081075191497803
1761338269244514800,4.012514892578125,-0.44045087695121765,-0.7869124412536621,0.5618888139724731
1761338269254581000,4.0225810546875,-0.560398519039154,-0.8267123699188232,0.2167297601699829
1761338269264646100,4.032646240234375,-0.792466402053833,-0.765839159488678,-0.03823833912611008
1761338269274712000,4.042712158203125,-1.0948655605316162,-0.6033998727798462,-0.17161327600479126
1761338269284777000,4.05277685546875,-1.4134366512298584,-0.4028957784175873,-0.2135082632303238
1761338269294843000,4.0628427734375,-1.7060575485229492,-0.1924850046634674,-0.21859997510910034
1761338269304909000,4.072908935546875,-1.9128423929214478,-0.031745392829179764,-0.23902961611747742
1761338269314974000,4.082973876953125,-2.010356903076172,0.08153612911701202,-0.28310686349868774
1761338269325040000,4.0930400390625,-2.0226852893829346,0.21230052411556244,-0.29988452792167664
1761338269335105000,4.10310498046875,-1.9927514791488647,0.2962891161441803,-0.282537043094635
1761338269345171000,4.1131708984375,-1.9437224864959717,0.2976699769496918,-0.2414226233959198
1761338269355237000,4.123237060546875,-1.8878074884414673,0.23293593525886536,-0.17561383545398712
1761338269365302000,4.133302001953125,-1.8426439762115479,0.13910478353500366,-0.09515068680047989
1761338269375368200,4.1433681640625,-1.8105486631393433,0.05773891136050224,-0.012590277940034866
1761338269385433900,4.153433837890625,-1.7960644960403442,0.026141569018363953,0.04883473366498947
1761338269395499000,4.1634990234375,-1.7994458675384521,0.030575312674045563,0.08423157036304474
1761338269405565000,4.17356494140625,-1.8167446851730347,0.06129540875554085,0.07986745238304138
1761338269415630000,4.183630126953125,-1.8257707357406616,0.09530080109834671,0.026197396218776703
1761338269425696300,4.1936962890625,-1.8088487386703491,0.07302132248878479,-0.06555569171905518
1761338269435762000,4.203761962890625,-1.7563517093658447,0.028771191835403442,-0.1692640632390976
1761338269445827000,4.2138271484375,-1.6854095458984375,-0.023209985345602036,-0.2731233537197113
1761338269455893000,4.22389306640625,-1.60110342502594,-0.09296412020921707,-0.36396458745002747
1761338269465958100,4.233958251953125,-1.5133740901947021,-0.1524793803691864,-0.44584691524505615
1761338269476023800,4.24402392578125,-1.4161192178726196,-0.24391311407089233,-0.5119726061820984
1761338269486090000,4.254090087890625,-1.3107600212097168,-0.3763936758041382,-0.5592468976974487
1761338269496155100,4.264155029296875,-1.215163230895996,-0.5277371406555176,-0.5634722709655762
1761338269506221000,4.274220947265625,-1.159406304359436,-0.6358215808868408,-0.5063511729240417
1761338269516287000,4.284286865234375,-1.1843159198760986,-0.6656755208969116,-0.4069601893424988
1761338269526352000,4.294351806640625,-1.2706130743026733,-0.6260040402412415,-0.3081984519958496
1761338269536418000,4.30441796875,-1.3689717054367065,-0.4792812168598175,-0.21834209561347961
1761338269546483000,4.31448291015625,-1.4137277603149414,-0.27737313508987427,-0.16009077429771423
1761338269556549000,4.324549072265625,-1.4125330448150635,-0.12846478819847107,-0.14217357337474823
1761338269566615000,4.334614990234375,-1.402245044708252,-0.06335209310054779,-0.1528986543416977
1761338269576680000,4.344679931640625,-1.414265513420105,-0.05483667552471161,-0.16330838203430176
1761338269586745900,4.354745849609375,-1.4419198036193848,-0.06639399379491806,-0.16610974073410034
1761338269596812000,4.36481201171875,-1.4840883016586304,-0.1103258728981018,-0.17088823020458221
1761338269606877200,4.374877197265625,-1.5410511493682861,-0.17011597752571106,-0.1766345351934433
1761338269616943000,4.384943115234375,-1.5925841331481934,-0.23415672779083252,-0.19538532197475433
1761338269627008000,4.395008056640625,-1.611075758934021,-0.3005695641040802,-0.24904322624206543
1761338269637074000,4.405073974609375,-1.5992028713226318,-0.32271072268486023,-0.321242094039917
1761338269647140000,4.41514013671875,-1.5970497131347656,-0.24323029816150665,-0.3755362331867218
1761338269657205000,4.425205078125,-1.5923612117767334,-0.11970366537570953,-0.3769512176513672
1761338269667271200,4.435271240234375,-1.57364821434021,-0.0478057786822319,-0.343112051486969
1761338269677336000,4.445336181640625,-1.5117357969284058,-0.03092271462082863,-0.28716468811035156
1761338269687402000,4.455402099609375,-1.455593466758728,-0.12751583755016327,-0.19507256150245667
1761338269697468200,4.46546826171875,-1.473888635635376,-0.3330997824668884,-0.08293753117322922
1761338269707533000,4.475532958984375,-1.5600507259368896,-0.5149529576301575,0.0166481826454401
1761338269717599000,4.485598876953125,-1.7474199533462524,-0.6208314895629883,0.10021989047527313
1761338269727665000,4.495664794921875,-1.9775309562683105,-0.6904305219650269,0.15279363095760345
1761338269737730000,4.50572998046875,-2.132333517074585,-0.6682968735694885,-0.024283403530716896
1761338269747796000,4.5157958984375,-2.2410895824432373,-0.42508554458618164,-0.4324655532836914
1761338269757861000,4.525861083984375,-2.374384641647339,-0.16655439138412476,-0.9044485688209534
1761338269767927000,4.535927001953125,-2.4962961673736572,-0.07689161598682404,-1.2284841537475586
1761338269777993000,4.545992919921875,-2.5277936458587646,-0.14655624330043793,-1.2912170886993408
1761338269788058000,4.55605810546875,-2.5185015201568604,-0.23474468290805817,-1.0966877937316895
1761338269798124000,4.5661240234375,-2.5170180797576904,-0.2700197696685791,-0.7360565662384033
1761338269808189000,4.57618896484375,-2.523364305496216,-0.1852838397026062,-0.28684839606285095
1761338269818254800,4.5862548828125,-2.514855146408081,-0.06181980296969414,0.12217726558446884
1761338269828321000,4.596321044921875,-2.463700532913208,0.004289177246391773,0.4265584647655487
1761338269838386200,4.60638623046875,-2.388319969177246,0.04867127165198326,0.671233594417572
1761338269848452000,4.6164521484375,-2.2688982486724854,0.017901375889778137,0.8572426438331604
1761338269858518000,4.62651806640625,-2.117994546890259,-0.09806495904922485,0.9169048070907593
1761338269868582100,4.63658203125,-1.9846317768096924,-0.2574594020843506,0.8810168504714966
1761338269878648300,4.6466484375,-1.84065842628479,-0.3288065195083618,0.7683652639389038
1761338269888713500,4.65671337890625,-1.7222776412963867,-0.38627514243125916,0.6746014952659607
1761338269898779100,4.666779052734375,-1.6334939002990723,-0.4817468822002411,0.6134621500968933
1761338269908845300,4.67684521484375,-1.6071158647537231,-0.5999778509140015,0.5840757489204407
1761338269918910200,4.68691015625,-1.6786879301071167,-0.7472380995750427,0.5489744544029236
1761338269928976400,4.696976318359375,-1.7947900295257568,-0.8941183090209961,0.40038445591926575
1761338269939042300,4.707042236328125,-1.9115926027297974,-0.8890213370323181,0.08376896381378174
1761338269949107200,4.717107177734375,-2.0072240829467773,-0.7237125039100647,-0.3669707775115967
1761338269959173000,4.727173095703125,-2.150473117828369,-0.5162554979324341,-0.8640349507331848
1761338269969238300,4.73723828125,-2.3494057655334473,-0.3313159942626953,-1.325722575187683
1761338269979304200,4.74730419921875,-2.545304536819458,-0.1539383828639984,-1.7268285751342773
1761338269989370400,4.757370361328125,-2.6791458129882812,-0.021387001499533653,-2.0565977096557617
1761338269999435300,4.767435302734375,-2.7226312160491943,0.13841378688812256,-2.2707197666168213
1761338270009501200,4.777501220703125,-2.639453887939453,0.3285914659500122,-2.2664575576782227
1761338270019566300,4.78756640625,-2.500180721282959,0.4388240575790405,-2.0289204120635986
1761338270029632300,4.79763232421875,-2.3061065673828125,0.5159010291099548,-1.5868110656738281
1761338270039698400,4.807698486328125,-2.048891067504883,0.6243304014205933,-0.9482417702674866
1761338270049763300,4.817763427734375,-1.7884283065795898,0.7073203921318054,-0.23811650276184082
1761338270059829200,4.827829345703125,-1.558502435684204,0.6371204257011414,0.394690603017807
1761338270069895200,4.837895263671875,-1.3500655889511108,0.527086615562439,0.8225626349449158
1761338270079960300,4.847960205078125,-1.2021998167037964,0.39336198568344116,1.0618823766708374
1761338270090026500,4.858026611328125,-1.1522456407546997,0.2023129165172577,1.0843770503997803
1761338270100091100,4.868091064453125,-1.0984947681427002,0.045254308730363846,0.8918408751487732
1761338270110157300,4.8781572265625,-1.0000118017196655,-0.025492563843727112,0.5291220545768738
1761338270120223200,4.88822314453125,-0.8301147222518921,-0.07806379348039627,0.10192358493804932
1761338270130288400,4.898288330078125,-0.6451398134231567,-0.11888127028942108,-0.27652785181999207
1761338270140354000,4.90835400390625,-0.49422991275787354,-0.13437074422836304,-0.5492448210716248
1761338270150420200,4.918420166015625,-0.3525952994823456,-0.17452536523342133,-0.6862778067588806
1761338270160485400,4.9284853515625,-0.2009628415107727,-0.24494491517543793,-0.6970112323760986
1761338270170551300,4.93855126953125,-0.08195123076438904,-0.34933149814605713,-0.6082947254180908
1761338270180616400,4.948616455078125,-0.020770099014043808,-0.46496111154556274,-0.4695959687232971
1761338270190682000,4.95868212890625,0.01767023466527462,-0.5227413177490234,-0.3337411880493164
1761338270200748300,4.968748291015625,0.01508532278239727,-0.4742506146430969,-0.24367941915988922
1761338270210813200,4.978813232421875,-0.024475403130054474,-0.3589647710323334,-0.23541802167892456
1761338270220879400,4.98887939453125,-0.06217792630195618,-0.21370095014572144,-0.2904563546180725
1761338270230945300,4.9989453125,-0.0523921400308609,-0.02738114818930626,-0.4043051600456238
1761338270241010200,5.00901025390625,-0.0013259905390441418,0.24204903841018677,-0.5667144060134888
1761338270251076000,5.019076171875,0.09959237277507782,0.5068241953849792,-0.7642956376075745
1761338270261141200,5.029141357421875,0.19900578260421753,0.6280726790428162,-0.9102179408073425
1761338270271207400,5.03920751953125,0.2772499620914459,0.5425082445144653,-0.9639229774475098
1761338270281273300,5.0492734375,0.3582140803337097,0.34519654512405396,-0.9128235578536987
1761338270291338200,5.059338134765625,0.43396449089050293,0.2579535245895386,-0.7175635099411011
1761338270301404200,5.069404052734375,0.47984427213668823,0.27517181634902954,-0.4387781322002411
1761338270311469300,5.07946923828125,0.5124847888946533,0.2929380536079407,-0.1244116723537445
1761338270321535200,5.08953515625,0.5354817509651184,0.357028603553772,0.15949000418186188
1761338270331601400,5.099601318359375,0.5422297120094299,0.5264261364936829,0.36485910415649414
1761338270341666300,5.109666259765625,0.5269461870193481,0.8149675130844116,0.45734235644340515
1761338270351732200,5.119732177734375,0.4935120940208435,1.1719653606414795,0.38949698209762573
1761338270361798400,5.12979833984375,0.41279834508895874,1.3884910345077515,0.17545419931411743
1761338270371863300,5.13986328125,0.23516574501991272,1.4231829643249512,-0.11366016417741776
1761338270381929200,5.14992919921875,-0.01896696910262108,1.2481353282928467,-0.34841033816337585
1761338270391994000,5.159994140625,-0.14316588640213013,0.9974557161331177,-0.5664899349212646
1761338270402060300,5.170060302734375,-0.16777528822422028,0.552879273891449,-0.6494109630584717
1761338270412126200,5.180126220703125,-0.19476696848869324,0.022985287010669708,-0.5515477657318115
1761338270422191400,5.19019140625,-0.20405033230781555,-0.356026828289032,-0.2747115194797516
1761338270432257300,5.20025732421875,-0.19737112522125244,-0.6776579022407532,0.13426637649536133
1761338270442322200,5.210322265625,-0.17087586224079132,-0.8835974335670471,0.7047538161277771
1761338270452388400,5.220388427734375,-0.16236521303653717,-0.9720317125320435,1.311076283454895
1761338270462454300,5.230454345703125,-0.13432231545448303,-1.0198041200637817,1.7112177610397339
1761338270472519200,5.240519287109375,-0.06864237785339355,-0.8674517869949341,1.7643557786941528
1761338270482585000,5.250585205078125,0.04097966477274895,-0.5700557827949524,1.583061933517456
1761338270492651300,5.2606513671875,0.18704180419445038,-0.19724462926387787,1.2832707166671753
1761338270502716400,5.27071630859375,0.3230375647544861,0.01645502820611,0.9381512403488159
1761338270512782300,5.2807822265625,0.4050581455230713,0.1949230432510376,0.5996560454368591
1761338270522847200,5.29084716796875,0.39403051137924194,0.3385632336139679,0.274336040019989
1761338270532913200,5.3009130859375,0.3006385266780853,0.3743968605995178,0.006939996965229511
1761338270542979300,5.310979248046875,0.1623934656381607,0.39063626527786255,-0.22912463545799255
1761338270553044200,5.321044189453125,0.004337255377322435,0.337811678647995,-0.44952866435050964
1761338270563110400,5.3311103515625,-0.14058640599250793,0.19110283255577087,-0.6224793791770935
1761338270573175300,5.34117529296875,-0.2750464975833893,0.07260973751544952,-0.7279970049858093
1761338270583241200,5.3512412109375,-0.3556370735168457,-0.02688666433095932,-0.7434216141700745
1761338270593307100,5.36130712890625,-0.3882938325405121,-0.07748672366142273,-0.6873045563697815
1761338270603372300,5.371372314453125,-0.3830653727054596,-0.11894886195659637,-0.5736579895019531
1761338270613438500,5.3814384765625,-0.3475859463214874,-0.14906682074069977,-0.4102855622768402
1761338270623504100,5.391504150390625,-0.28337594866752625,-0.14856313169002533,-0.21876314282417297
1761338270633569300,5.4015693359375,-0.22193975746631622,-0.17670182883739471,-0.06457144021987915
1761338270643635200,5.41163525390625,-0.16495876014232635,-0.2513371706008911,0.03541399911046028
1761338270653700400,5.421700439453125,-0.11170033365488052,-0.28042900562286377,0.0935305655002594
1761338270663766300,5.431766357421875,-0.09312812983989716,-0.19695714116096497,0.11894446611404419
1761338270673832200,5.441832275390625,-0.06911706924438477,-0.060356952250003815,0.102744460105896
1761338270683897300,5.4518974609375,-0.038668811321258545,0.08787421137094498,0.05048411339521408
1761338270693963300,5.46196337890625,-0.03148520365357399,0.23958143591880798,-0.030732979997992516
1761338270704029400,5.472029541015625,-0.06400153040885925,0.37893158197402954,-0.1559831202030182
1761338270714094000,5.482093994140625,-0.14469823241233826,0.4596826136112213,-0.3059813976287842
1761338270724160300,5.49216015625,-0.24941664934158325,0.49679675698280334,-0.44961899518966675
1761338270734225200,5.50222509765625,-0.3377137780189514,0.5110989809036255,-0.5726074576377869
1761338270744291300,5.512291259765625,-0.4004199504852295,0.4806658923625946,-0.6670323610305786
1761338270754357200,5.522357177734375,-0.4544837176799774,0.39911672472953796,-0.736857533454895
1761338270764422100,5.532422119140625,-0.4836859107017517,0.28892967104911804,-0.7893869280815125
1761338270774488300,5.54248828125,-0.4920426607131958,0.1501065492630005,-0.807421088218689
1761338270784553200,5.55255322265625,-0.522423505783081,-0.024121329188346863,-0.7743107080459595
1761338270794619400,5.562619384765625,-0.518623948097229,-0.19974854588508606,-0.6774174571037292
1761338270804685300,5.572685302734375,-0.4811030924320221,-0.31097447872161865,-0.5206729769706726
1761338270814750200,5.582750244140625,-0.43251317739486694,-0.3690742552280426,-0.3353992700576782
1761338270824816000,5.592816162109375,-0.32236769795417786,-0.3633122146129608,-0.1601761430501938
1761338270834882300,5.60288232421875,-0.2295551896095276,-0.3447776734828949,-0.034520212560892105
1761338270844947500,5.612947509765625,-0.1995304673910141,-0.3083934783935547,0.07631205767393112
1761338270855013400,5.623013427734375,-0.2044019252061844,-0.2762472629547119,0.16439345479011536
1761338270865079000,5.6330791015625,-0.2596967816352844,-0.2780999541282654,0.209092915058136
1761338270875145000,5.64314501953125,-0.3348671495914459,-0.2985338568687439,0.20339109003543854
1761338270885211000,5.6532109375,-0.42037996649742126,-0.3458080291748047,0.1669558435678482
1761338270895276000,5.663276123046875,-0.5003898739814758,-0.4263670742511749,0.11645058542490005
1761338270905342200,5.67334228515625,-0.5635640025138855,-0.5226131677627563,0.07749790698289871
1761338270915407000,5.683406982421875,-0.5991731286048889,-0.6342962980270386,0.05371560901403427
1761338270925473000,5.69347314453125,-0.6088485717773438,-0.7099906802177429,0.09982652217149734
1761338270935539000,5.7035390625,-0.6107453107833862,-0.7209157347679138,0.20074568688869476
1761338270945604000,5.71360400390625,-0.5924641489982605,-0.6988639235496521,0.29571759700775146
1761338270955670000,5.723669921875,-0.5290588140487671,-0.6576799750328064,0.3723042607307434
1761338270965736200,5.733736083984375,-0.4186175763607025,-0.6340687870979309,0.4624249041080475
1761338270975801000,5.743801025390625,-0.3867693543434143,-0.6082073450088501,0.5447807908058167
1761338270985867000,5.753866943359375,-0.4041230082511902,-0.4695034325122833,0.5150332450866699
1761338270995932200,5.76393212890625,-0.409850150346756,-0.3262022137641907,0.35278651118278503
1761338271005998000,5.773998046875,-0.4186776876449585,-0.282950758934021,0.12299802154302597
1761338271016064300,5.784064208984375,-0.4503706395626068,-0.269955575466156,-0.1535254567861557
1761338271026129000,5.79412890625,-0.4968908131122589,-0.3460933268070221,-0.41819828748703003
1761338271036195000,5.804195068359375,-0.5556191205978394,-0.4985659420490265,-0.5994548797607422
1761338271046260200,5.81426025390625,-0.6106010675430298,-0.5935941934585571,-0.673927903175354
1761338271056326100,5.824326171875,-0.6791393756866455,-0.5745885372161865,-0.6620568633079529
1761338271066392000,5.83439208984375,-0.7267315983772278,-0.3940575122833252,-0.5937473773956299
1761338271076457000,5.84445703125,-0.6852052211761475,-0.15412721037864685,-0.49064016342163086
1761338271086523100,5.854523193359375,-0.5637332797050476,-0.14206403493881226,-0.22277095913887024
1761338271096589000,5.864589111328125,-0.42056652903556824,-0.2754495143890381,0.17945876717567444
1761338271106654200,5.874654296875,-0.39525458216667175,-0.405513733625412,0.6092272400856018
1761338271116719900,5.884719970703125,-0.4777126908302307,-0.4742986559867859,0.9118728637695312
1761338271126785000,5.894784912109375,-0.5489159822463989,-0.5450387001037598,1.0771409273147583
1761338271136851200,5.904851318359375,-0.5800414085388184,-0.5613420605659485,1.1334021091461182
1761338271146917000,5.914917236328125,-0.5669364929199219,-0.5068503618240356,1.0808279514312744
1761338271156982000,5.92498193359375,-0.5284298658370972,-0.40982258319854736,0.9378519058227539
1761338271167048000,5.9350478515625,-0.4820806086063385,-0.20951834321022034,0.7075075507164001
1761338271177113000,5.945113037109375,-0.4548282325267792,-0.04422738403081894,0.47578319907188416
1761338271187179000,5.955178955078125,-0.445662260055542,0.051925256848335266,0.25506800413131714
1761338271197245200,5.9652451171875,-0.4717961251735687,0.11204639077186584,0.03984170779585838
1761338271207310000,5.97531005859375,-0.522121787071228,0.17720240354537964,-0.18724161386489868
1761338271217376000,5.9853759765625,-0.567700982093811,0.2494363784790039,-0.4465400278568268
1761338271227442000,5.99544189453125,-0.6060147285461426,0.3589514493942261,-0.7520227432250977
1761338271237507000,6.005507080078125,-0.5883902311325073,0.43763506412506104,-1.0604878664016724
1761338271247573200,6.0155732421875,-0.4987071752548218,0.5286776423454285,-1.3402968645095825
1761338271257638000,6.025637939453125,-0.39052000641822815,0.5477844476699829,-1.4828863143920898
1761338271267704000,6.0357041015625,-0.31276607513427734,0.5143439769744873,-1.413830041885376
1761338271277770000,6.04577001953125,-0.2264128029346466,0.48642340302467346,-1.1635648012161255
1761338271287835100,6.055835205078125,-0.13162773847579956,0.6395484209060669,-0.9344359636306763
1761338271297901000,6.065901123046875,-0.08916417509317398,0.7228302359580994,-0.6405808925628662
1761338271307967000,6.075967041015625,-0.08895114064216614,0.722343921661377,-0.2884005010128021
1761338271318032100,6.0860322265625,-0.11944939196109772,0.6512250304222107,0.05710657685995102
1761338271328098000,6.09609814453125,-0.20307841897010803,0.5301159024238586,0.3309950530529022
1761338271338163200,6.1061630859375,-0.3054756224155426,0.40999534726142883,0.46633610129356384
1761338271348229000,6.11622900390625,-0.3992423415184021,0.25245124101638794,0.5123680233955383
1761338271358295000,6.126294921875,-0.46251532435417175,0.08294130116701126,0.5115286111831665
1761338271368360000,6.13635986328125,-0.501061737537384,0.09815651923418045,0.39389631152153015
1761338271378426000,6.146426025390625,-0.5063385367393494,0.08633474260568619,0.23507416248321533
1761338271388491300,6.1564912109375,-0.463780015707016,-0.003016906790435314,0.11241312325000763
1761338271398557000,6.166556884765625,-0.3453894555568695,0.022993920370936394,-0.00885577779263258
1761338271408623000,6.176623046875,-0.23107442259788513,0.1202496737241745,-0.11154958605766296
1761338271418688000,6.18668798828125,-0.15072712302207947,0.1026935800909996,-0.1438012719154358
1761338271428754200,6.196754150390625,-0.11458177119493484,0.024799931794404984,-0.14148549735546112
1761338271438820000,6.206820068359375,-0.11584676802158356,-0.03340424969792366,-0.13136975467205048
1761338271448885000,6.216885009765625,-0.14352811872959137,-0.09943736344575882,-0.11184434592723846
1761338271458951000,6.226950927734375,-0.2031211405992508,-0.16914239525794983,-0.07016080617904663
1761338271469016000,6.23701611328125,-0.2679821252822876,-0.25571635365486145,-0.04260190576314926
1761338271479082000,6.24708203125,-0.3371340334415436,-0.3554365336894989,-0.004633486270904541
1761338271489148200,6.257148193359375,-0.38275372982025146,-0.4126533269882202,0.048472627997398376
1761338271499213000,6.267213134765625,-0.42357707023620605,-0.4298059642314911,0.111749067902565
1761338271509279000,6.277279052734375,-0.4539119005203247,-0.386837363243103,0.1813463419675827
1761338271519344000,6.28734423828125,-0.46900349855422974,-0.2960547208786011,0.21629661321640015
1761338271529410000,6.29741015625,-0.47940340638160706,-0.19662326574325562,0.2175767868757248
1761338271539476200,6.307476318359375,-0.49339377880096436,-0.12089867889881134,0.206841841340065
1761338271549541000,6.317541015625,-0.535243034362793,-0.07607648521661758,0.20780862867832184
1761338271559607000,6.32760693359375,-0.625858724117279,-0.06832322478294373,0.2084461897611618
1761338271569673000,6.3376728515625,-0.8023903369903564,-0.11243273317813873,0.22167494893074036
1761338271579738000,6.347738037109375,-1.0741456747055054,-0.21216198801994324,0.2629062831401825
1761338271589804300,6.35780419921875,-1.4303383827209473,-0.28065624833106995,0.3400771915912628
1761338271599869000,6.367868896484375,-1.6838270425796509,-0.14220543205738068,0.37473079562187195
1761338271609935000,6.37793505859375,-1.7601853609085083,0.10559849441051483,0.33758556842803955
1761338271620001000,6.3880009765625,-1.5234284400939941,0.35415852069854736,0.27222439646720886
1761338271630066200,6.398066162109375,-1.061002492904663,0.7173479199409485,0.14042194187641144
1761338271640131800,6.4081318359375,-0.6646237373352051,1.0594589710235596,0.03848093003034592
1761338271650198000,6.418197998046875,-0.5180274248123169,1.2587130069732666,-0.039405811578035355
1761338271660263200,6.42826318359375,-0.5266289114952087,1.3949583768844604,-0.14648805558681488
1761338271670329000,6.4383291015625,-0.56216961145401,1.319680094718933,-0.3142815828323364
1761338271680394200,6.448394287109375,-0.5807435512542725,1.033902883529663,-0.5301550030708313
1761338271690460000,6.4584599609375,-0.6246852278709412,0.697319507598877,-0.691578209400177
1761338271700526000,6.468526123046875,-0.6785833239555359,0.3660523295402527,-0.697706937789917
1761338271710591000,6.478591064453125,-0.8436948657035828,0.07444795966148376,-0.5617362856864929
1761338271720657200,6.4886572265625,-1.1447227001190186,-0.1861354261636734,-0.28605008125305176
1761338271730723000,6.49872314453125,-1.5042842626571655,-0.37546825408935547,0.041486769914627075
1761338271740788000,6.5087880859375,-1.8293371200561523,-0.3675650656223297,0.27750223875045776
1761338271750854000,6.51885400390625,-1.9914166927337646,-0.283957302570343,0.39778265357017517
1761338271760919000,6.5289189453125,-1.989362120628357,-0.2058800905942917,0.4358179271221161
1761338271770985200,6.538985107421875,-1.902924656867981,-0.056840915232896805,0.452811062335968
1761338271781051100,6.549051025390625,-1.7391271591186523,0.06507673859596252,0.46648478507995605
1761338271791116000,6.559115966796875,-1.5850498676300049,0.15976561605930328,0.4673333764076233
1761338271801182000,6.569181884765625,-1.5190815925598145,0.27527916431427,0.4351770579814911
1761338271811247000,6.5792470703125,-1.5452375411987305,0.37562334537506104,0.359783798456192
1761338271821313000,6.58931298828125,-1.6229392290115356,0.4557293653488159,0.2294345647096634
1761338271831379200,6.599379150390625,-1.6438740491867065,0.4894718527793884,0.06688524037599564
1761338271841444000,6.609444091796875,-1.608654260635376,0.4597533643245697,-0.11146745085716248
1761338271851510000,6.619510009765625,-1.5860649347305298,0.366252601146698,-0.26909637451171875
1761338271861575200,6.6295751953125,-1.599287509918213,0.2216043472290039,-0.38192543387413025
1761338271871640800,6.639640869140625,-1.6333767175674438,0.07982193678617477,-0.4754367470741272
1761338271881707000,6.64970703125,-1.6941487789154053,-0.06092825531959534,-0.5426927804946899
1761338271891772000,6.65977197265625,-1.7625921964645386,-0.19904103875160217,-0.565065324306488
1761338271901837800,6.669837890625,-1.8393135070800781,-0.32169532775878906,-0.5251724720001221
1761338271911903700,6.67990380859375,-1.8774741888046265,-0.43230679631233215,-0.4148811101913452
1761338271921969000,6.689968994140625,-1.8436107635498047,-0.5352076292037964,-0.24326860904693604
1761338271932035000,6.70003515625,-1.7545123100280762,-0.5808584690093994,-0.008258847519755363
1761338271942099700,6.710099609375,-1.6416038274765015,-0.5066273808479309,0.25027069449424744
1761338271952166000,6.720165771484375,-1.5677578449249268,-0.37560680508613586,0.4866672456264496
1761338271962231800,6.730231689453125,-1.5262770652770996,-0.24707573652267456,0.6362815499305725
1761338271972297000,6.740296875,-1.5134055614471436,-0.13722015917301178,0.6834833025932312
1761338271982363000,6.75036279296875,-1.5192927122116089,-0.027347993105649948,0.6553456783294678
1761338271992428800,6.7604287109375,-1.544103980064392,0.07040689885616302,0.5680311322212219
1761338272002494000,6.770493896484375,-1.5646071434020996,0.12311724573373795,0.4364807903766632
1761338272012560000,6.780559814453125,-1.5780887603759766,0.12701155245304108,0.2866523563861847
1761338272022625000,6.790625,-1.564903974533081,0.12024818360805511,0.12977004051208496
1761338272032691000,6.80069091796875,-1.5374364852905273,0.1197056844830513,-0.014233564957976341
1761338272042756900,6.8107568359375,-1.5091392993927002,0.1064135879278183,-0.14280831813812256
1761338272052821800,6.82082177734375,-1.4830937385559082,0.06753699481487274,-0.25915780663490295
1761338272062888000,6.830887939453125,-1.4465171098709106,0.013005846180021763,-0.3382241129875183
1761338272072953900,6.840953857421875,-1.3891299962997437,-0.06164460629224777,-0.374481737613678
1761338272083018800,6.851018798828125,-1.317813754081726,-0.1690371036529541,-0.376267671585083
1761338272093085000,6.8610849609375,-1.2404037714004517,-0.2672635018825531,-0.37668073177337646
1761338272103149800,6.87114990234375,-1.1812824010849,-0.21323837339878082,-0.42310041189193726
1761338272113216000,6.881216064453125,-1.1773290634155273,-0.2650587260723114,-0.42683491110801697
1761338272123282000,6.891281982421875,-1.1985129117965698,-0.3073369562625885,-0.3845175504684448
1761338272133346800,6.901346923828125,-1.2183712720870972,-0.3173538148403168,-0.3446097671985626
1761338272143412700,6.911412841796875,-1.1920640468597412,-0.2969968914985657,-0.3240741491317749
1761338272153478000,6.921477783203125,-1.1362223625183105,-0.26262301206588745,-0.32577750086784363
1761338272163544000,6.9315439453125,-1.0479878187179565,-0.21455536782741547,-0.34624895453453064
1761338272173610000,6.94160986328125,-0.9555453062057495,-0.15504483878612518,-0.36003580689430237
1761338272183675000,6.9516748046875,-0.8943264484405518,-0.100161612033844,-0.3467698097229004
1761338272193740800,6.96174072265625,-0.8645232915878296,-0.023174438625574112,-0.3083212077617645
1761338272203807000,6.971806884765625,-0.8349459767341614,0.08444123715162277,-0.23180299997329712
1761338272213871900,6.981871826171875,-0.7770801186561584,0.17870841920375824,-0.1418047696352005
1761338272223938000,6.99193798828125,-0.6787673830986023,0.22414061427116394,-0.049582432955503464
1761338272234003000,7.0020029296875,-0.5717058181762695,0.1803543120622635,0.022351041436195374
1761338272244068900,7.01206884765625,-0.5095817446708679,0.07337912917137146,0.09339139610528946
1761338272254134800,7.022134765625,-0.5032324194908142,-0.012289201840758324,0.17679965496063232
1761338272264200000,7.032199951171875,-0.5569151043891907,-0.07361993938684464,0.28615063428878784
1761338272274266000,7.04226611328125,-0.6404589414596558,-0.055304914712905884,0.33719781041145325
1761338272284330800,7.052330810546875,-0.7845953702926636,0.04648483172059059,0.25193431973457336
1761338272294397000,7.06239697265625,-1.0681277513504028,0.0065727801993489265,0.1881231963634491
1761338272304462800,7.072462890625,-1.4323621988296509,-0.045095209032297134,0.1658751517534256
1761338272314528000,7.082528076171875,-1.755859136581421,0.0802190750837326,0.09550997614860535
1761338272324593700,7.09259375,-1.9310532808303833,0.3920366168022156,-0.13514454662799835
1761338272334659800,7.102659912109375,-1.9525648355484009,0.6568119525909424,-0.4136480391025543
1761338272344725000,7.11272509765625,-1.8690179586410522,0.7020244598388672,-0.6014677286148071
1761338272354791000,7.122791015625,-1.7151970863342285,0.4747770130634308,-0.6301705837249756
1761338272364856000,7.13285595703125,-1.5161596536636353,0.11315862089395523,-0.5143329501152039
1761338272374921700,7.142921630859375,-1.31117582321167,-0.25843361020088196,-0.3162068724632263
1761338272384988000,7.15298779296875,-1.1620614528656006,-0.5406855344772339,-0.04324406385421753
1761338272395052800,7.163052734375,-1.0597801208496094,-0.6965685486793518,0.2500600218772888
1761338272405119000,7.173118896484375,-0.9509609341621399,-0.7437208890914917,0.49226707220077515
1761338272415185000,7.183184814453125,-0.8213687539100647,-0.642156183719635,0.6451930999755859
1761338272425249800,7.193249755859375,-0.6947609782218933,-0.42894989252090454,0.7115313410758972
1761338272435316000,7.20331591796875,-0.5853887796401978,-0.17083469033241272,0.7569034099578857
1761338272445380900,7.213380859375,-0.511925458908081,0.0904160887002945,0.8081200122833252
1761338272455447000,7.223447021484375,-0.4793502688407898,0.2981344759464264,0.8752477169036865
1761338272465513000,7.233512939453125,-0.4518752098083496,0.41938498616218567,0.9785424470901489
1761338272475577900,7.243577880859375,-0.40533146262168884,0.4300614893436432,1.1107228994369507
1761338272485643800,7.253643798828125,-0.3452572226524353,0.318452924489975,1.2082034349441528
1761338272495709000,7.263708984375,-0.2980881929397583,0.16718503832817078,1.1547844409942627
1761338272505774800,7.27377490234375,-0.2773429751396179,0.061716143041849136,0.8798583149909973
1761338272515841000,7.283841064453125,-0.286521852016449,0.03739764168858528,0.45508843660354614
1761338272525906000,7.293906005859375,-0.3410913646221161,0.021886859089136124,-0.002462342381477356
1761338272535971800,7.303971923828125,-0.4236886501312256,-0.02503315359354019,-0.3977072536945343
1761338272546038000,7.3140380859375,-0.5029221773147583,-0.1426551342010498,-0.6919562220573425
1761338272556103000,7.32410302734375,-0.549869179725647,-0.31069841980934143,-0.8462151288986206
1761338272566168800,7.3341689453125,-0.5775103569030762,-0.4324735999107361,-0.8633714914321899
1761338272576234000,7.34423388671875,-0.6146921515464783,-0.45593324303627014,-0.7796772718429565
1761338272586300000,7.3542998046875,-0.6472644209861755,-0.46106061339378357,-0.6205480694770813
1761338272596365800,7.36436572265625,-0.6658535003662109,-0.4515153467655182,-0.43478041887283325
1761338272606431000,7.374430908203125,-0.6768581867218018,-0.3978007435798645,-0.2455740123987198
1761338272616497000,7.384496826171875,-0.6765233278274536,-0.30198755860328674,-0.0752306580543518
1761338272626561800,7.394561767578125,-0.6690846085548401,-0.1626826524734497,0.06523405015468597
1761338272636628000,7.4046279296875,-0.6579594612121582,-0.031904544681310654,0.15605710446834564
1761338272646694000,7.41469384765625,-0.6231599450111389,0.09031137824058533,0.18164077401161194
1761338272656758800,7.4247587890625,-0.5278124809265137,0.21328453719615936,0.15439137816429138
1761338272666824700,7.43482470703125,-0.41529789566993713,0.28285935521125793,0.11036720126867294
1761338272676891000,7.444890869140625,-0.3249185383319855,0.27565789222717285,0.06286391615867615
1761338272686956000,7.4549560546875,-0.24668867886066437,0.18319852650165558,0.04496347904205322
1761338272697022000,7.46502197265625,-0.20445814728736877,0.07019536197185516,0.03862622007727623
1761338272707086800,7.4750869140625,-0.20228953659534454,0.000971553847193718,0.04330752417445183
1761338272717152800,7.48515283203125,-0.19631099700927734,-0.00568075617775321,0.08519771695137024
1761338272727219000,7.495218994140625,-0.18506793677806854,-0.003245028667151928,0.1487007886171341
1761338272737283800,7.505283935546875,-0.1881052702665329,-0.014486314728856087,0.2111247479915619
1761338272747350000,7.51535009765625,-0.20376358926296234,-0.06260217726230621,0.2771780788898468
1761338272757415000,7.525414794921875,-0.22548294067382812,-0.1419074535369873,0.3352296054363251
1761338272767480800,7.535480712890625,-0.25781798362731934,-0.19739174842834473,0.3398584723472595
1761338272777547000,7.545547119140625,-0.2954530119895935,-0.20432236790657043,0.22093313932418823
1761338272787612000,7.55561181640625,-0.28854900598526,-0.1362818032503128,-0.011783725582063198
1761338272797678000,7.565677978515625,-0.23091371357440948,-0.07657543569803238,-0.28317791223526
1761338272807743700,7.57574365234375,-0.17256225645542145,-0.08667734265327454,-0.5247697234153748
1761338272817809000,7.585808837890625,-0.16374826431274414,-0.1618265062570572,-0.6682795286178589
1761338272827874800,7.595874755859375,-0.20182427763938904,-0.2418571561574936,-0.7025730609893799
1761338272837940000,7.60593994140625,-0.2695790231227875,-0.29478317499160767,-0.6631197333335876
1761338272848006000,7.616005859375,-0.39297980070114136,-0.3222084045410156,-0.5782980918884277
1761338272858071800,7.62607177734375,-0.5514596700668335,-0.2525874078273773,-0.4594329595565796
1761338272868136200,7.63613623046875,-0.6778284907341003,-0.06831902265548706,-0.30596059560775757
1761338272878202000,7.6462021484375,-0.7398382425308228,0.12364658713340759,-0.15139855444431305
1761338272888267300,7.656267333984375,-0.721602737903595,0.23816703259944916,0.009871293790638447
1761338272898333200,7.666333251953125,-0.6274648308753967,0.2654808759689331,0.2042652666568756
1761338272908399000,7.676399169921875,-0.4744217097759247,0.2028166949748993,0.4475642144680023
1761338272918464300,7.68646435546875,-0.32833564281463623,0.07026253640651703,0.7073116302490234
1761338272928530200,7.6965302734375,-0.25246140360832214,-0.0836455374956131,0.8727839589118958
1761338272938596400,7.706596435546875,-0.2000218778848648,-0.135258287191391,0.9054515957832336
1761338272948661000,7.716660888671875,-0.028562229126691818,0.02588559314608574,0.792076051235199
1761338272958727200,7.72672705078125,0.2495347112417221,0.2778134047985077,0.6203734874725342
1761338272968792300,7.736792236328125,0.5466310977935791,0.42539194226264954,0.4203852713108063
1761338272978858200,7.746858154296875,0.7772572040557861,0.4229010343551636,0.2501676380634308
1761338272988924200,7.756924072265625,0.9162611365318298,0.323233038187027,0.14186781644821167
1761338272998989000,7.766989013671875,0.9795866012573242,0.17142897844314575,0.05210351198911667
1761338273009055200,7.77705517578125,0.9693121314048767,0.009257647208869457,-0.07764063030481339
1761338273019120000,7.7871201171875,0.8902900815010071,-0.08596284687519073,-0.22451692819595337
1761338273029186300,7.797186279296875,0.7396520972251892,-0.08297451585531235,-0.3324756324291229
1761338273039252200,7.807252197265625,0.5514652132987976,-0.016947636380791664,-0.3952794075012207
1761338273049317000,7.817317138671875,0.3869284391403198,0.07235507667064667,-0.3439594805240631
1761338273059383000,7.827383056640625,0.29515352845191956,0.08452894538640976,-0.1783292591571808
1761338273069449200,7.83744921875,0.2872135639190674,-0.011749916709959507,0.02810193970799446
1761338273079514400,7.847514404296875,0.3670003414154053,-0.15391886234283447,0.20623010396957397
1761338273089580300,7.857580322265625,0.5153290629386902,-0.22799469530582428,0.34502288699150085
1761338273099645200,7.867645263671875,0.6576003432273865,-0.25125056505203247,0.42894160747528076
1761338273109711000,7.877711181640625,0.7578633427619934,-0.25173792243003845,0.4881013333797455
1761338273119777300,7.88777734375,0.8206403851509094,-0.23507636785507202,0.5374662280082703
1761338273129842200,7.89784228515625,0.8736357092857361,-0.2073480784893036,0.5812070369720459
1761338273139908000,7.907908203125,0.9003384709358215,-0.16386808454990387,0.6221106648445129
1761338273149974000,7.91797412109375,0.8988971710205078,-0.09789412468671799,0.6349591016769409
1761338273160039200,7.9280390625,0.8637105822563171,-0.01536552980542183,0.6293972730636597
1761338273170105300,7.938105224609375,0.8091496229171753,0.06751177459955215,0.5885465145111084
1761338273180170200,7.948170166015625,0.7503429055213928,0.09670020639896393,0.5260792374610901
1761338273190236200,7.958236083984375,0.7015956044197083,0.10286089777946472,0.43298017978668213
1761338273200302000,7.968302001953125,0.6859844923019409,0.09715290367603302,0.29953792691230774
1761338273210367200,7.9783671875,0.6940315365791321,0.08122746646404266,0.14070510864257812
1761338273220433200,7.98843310546875,0.6895501017570496,0.07380437105894089,-0.024255506694316864
1761338273230498000,7.998498046875,0.6688283085823059,0.042072273790836334,-0.1825532615184784
1761338273240564200,8.008564208984374,0.6162312626838684,-0.04928700998425484,-0.29801878333091736
1761338273250630100,8.018630126953125,0.5201992988586426,-0.1857234239578247,-0.35554543137550354
1761338273260695300,8.0286953125,0.4221135675907135,-0.3196468651294708,-0.3504794239997864
1761338273270761200,8.03876123046875,0.34552186727523804,-0.4247450530529022,-0.2972542643547058
1761338273280827400,8.048827392578126,0.28172507882118225,-0.5426058173179626,-0.2546756863594055
1761338273290892000,8.05889208984375,0.2366662323474884,-0.6079089641571045,-0.24011245369911194
1761338273300958200,8.068958251953125,0.2444285750389099,-0.5384960174560547,-0.23239941895008087
1761338273311023400,8.0790234375,0.2979285418987274,-0.43115490674972534,-0.2601037323474884
1761338273321089300,8.08908935546875,0.3776949644088745,-0.30644717812538147,-0.30512335896492004
1761338273331155200,8.0991552734375,0.4528389871120453,-0.16297872364521027,-0.3536698520183563
1761338273341220000,8.10922021484375,0.4924006760120392,-0.0398416593670845,-0.3769090473651886
1761338273351286300,8.119286376953125,0.4990138113498688,0.06783659756183624,-0.3559528887271881
1761338273361351200,8.12935107421875,0.4901265501976013,0.14350149035453796,-0.3182355463504791
1761338273371417300,8.139417236328125,0.47826191782951355,0.1787004917860031,-0.26198506355285645
1761338273381483000,8.14948291015625,0.4758244454860687,0.14842230081558228,-0.21456123888492584
1761338273391548200,8.159548095703125,0.47034046053886414,0.06341154128313065,-0.19039571285247803
1761338273401614000,8.169614013671875,0.4456704556941986,-0.022545944899320602,-0.17151807248592377
1761338273411680300,8.17968017578125,0.40577682852745056,-0.09275832027196884,-0.1859113872051239
1761338273421745400,8.189745361328125,0.3443357050418854,-0.1435774564743042,-0.22893944382667542
1761338273431811000,8.19981103515625,0.28673553466796875,-0.12753111124038696,-0.29081985354423523
1761338273441876200,8.209876220703125,0.26442110538482666,-0.07823002338409424,-0.38412415981292725
1761338273451942100,8.219942138671875,0.28601402044296265,-0.027136480435729027,-0.4701476991176605
1761338273462008300,8.23000830078125,0.33754244446754456,0.024220716208219528,-0.5398498773574829
1761338273472073000,8.240072998046875,0.4032335877418518,0.04630791023373604,-0.5801533460617065
1761338273482139100,8.25013916015625,0.46453726291656494,0.048283953219652176,-0.6111371517181396
1761338273492205000,8.260205078125,0.5263199210166931,0.04887597635388374,-0.6220625042915344
1761338273502270200,8.270270263671875,0.5898863673210144,0.027491245418787003,-0.604091227054596
1761338273512336100,8.280336181640624,0.6289677023887634,-0.025459853932261467,-0.542079508304596
1761338273522401000,8.290401123046875,0.6431959867477417,-0.1760232150554657,-0.4484785497188568
1761338273532467200,8.30046728515625,0.641215443611145,-0.34913721680641174,-0.29395821690559387
1761338273542533000,8.310533203125,0.6240277290344238,-0.4296475350856781,-0.1082206442952156
1761338273552598300,8.320598388671876,0.574195146560669,-0.45060768723487854,0.026682574301958084
1761338273562664200,8.330664306640625,0.5096045136451721,-0.42118576169013977,0.08314501494169235
1761338273572730400,8.34073046875,0.45511916279792786,-0.3630976974964142,0.08006001263856888
1761338273582795300,8.350795166015626,0.41941243410110474,-0.31445780396461487,0.036380574107170105
1761338273592861200,8.360861083984375,0.39702242612838745,-0.28975963592529297,-0.04561096429824829
1761338273602926300,8.37092626953125,0.3809202313423157,-0.277458131313324,-0.13693052530288696
1761338273612992300,8.3809921875,0.3567195534706116,-0.2620019316673279,-0.2090129852294922
1761338273623058200,8.39105810546875,0.31929492950439453,-0.22826582193374634,-0.25072821974754333
1761338273633123000,8.401123046875,0.2484937459230423,-0.17452110350131989,-0.2633236348628998
1761338273643189200,8.411189208984375,0.14895322918891907,-0.05820004642009735,-0.2639424800872803
1761338273653254100,8.421254150390626,0.07928705960512161,0.12921220064163208,-0.3130066692829132
1761338273663320300,8.4313203125,0.042302899062633514,0.2998085916042328,-0.4367016851902008
1761338273673386000,8.441385986328125,-0.00797065906226635,0.33750268816947937,-0.5417415499687195
1761338273683451100,8.451451171875,-0.07132415473461151,0.23424948751926422,-0.5436349511146545
1761338273693517300,8.461517333984375,-0.10561847686767578,0.08900360763072968,-0.4476759433746338
1761338273703583200,8.471583251953126,-0.0987260490655899,-0.03041943721473217,-0.28654101490974426
1761338273713648000,8.481648193359375,-0.08131616562604904,-0.11958393454551697,-0.0829940214753151
1761338273723714000,8.491714111328125,-0.045360978692770004,-0.16673192381858826,0.13552196323871613
1761338273733779200,8.501779296875,0.028232816606760025,-0.16093182563781738,0.337583988904953
1761338273743845000,8.51184521484375,0.14400263130664825,-0.09603728353977203,0.4868442118167877
1761338273753911300,8.521911376953126,0.28287529945373535,0.056802865117788315,0.5771751999855042
1761338273763976200,8.53197607421875,0.42385315895080566,0.2578794062137604,0.6319793462753296
1761338273774042000,8.5420419921875,0.5474435687065125,0.47315654158592224,0.6500981450080872
1761338273784108300,8.5521083984375,0.6408308148384094,0.681258499622345,0.6426039934158325
1761338273794173200,8.562173095703125,0.6973404288291931,0.7931000590324402,0.615520179271698
1761338273804239400,8.5722392578125,0.7326024770736694,0.7655675411224365,0.5805497169494629
1761338273814304000,8.582303955078125,0.7627776861190796,0.6368710994720459,0.551705539226532
1761338273824370200,8.5923701171875,0.7855201363563538,0.42268282175064087,0.5143359899520874
1761338273834436000,8.60243603515625,0.7966399192810059,0.1391429752111435,0.44083747267723083
1761338273844501200,8.612501220703125,0.7863130569458008,-0.1841641664505005,0.3638550043106079
1761338273854567200,8.622567138671876,0.7525116801261902,-0.49699851870536804,0.2984909117221832
1761338273864632000,8.632632080078125,0.7106280326843262,-0.7457548975944519,0.22450415790081024
1761338273874699000,8.642698974609376,0.6742188930511475,-0.8978448510169983,0.12566199898719788
1761338273884765000,8.652764892578125,0.6580184698104858,-0.9172333478927612,0.014473026618361473
1761338273894830000,8.662830078125,0.6573454737663269,-0.8034420609474182,-0.08495848625898361
1761338273904896000,8.67289599609375,0.6471067070960999,-0.6202871203422546,-0.17063692212104797
1761338273914962200,8.682962158203125,0.6235294342041016,-0.4437669515609741,-0.21967823803424835
1761338273925027000,8.693027099609376,0.6269852519035339,-0.25725212693214417,-0.20821252465248108
1761338273935093000,8.703093017578125,0.6397750377655029,-0.08711422979831696,-0.1423237919807434
1761338273945158000,8.713157958984375,0.6764330863952637,0.06413862109184265,-0.009851950220763683
1761338273955224000,8.72322412109375,0.7205595374107361,0.18387140333652496,0.1467997133731842
1761338273965290000,8.7332900390625,0.7389656901359558,0.24833188951015472,0.28772807121276855
1761338273975355000,8.74335498046875,0.7392943501472473,0.21485461294651031,0.39265021681785583
1761338273985421000,8.753421142578125,0.7171312570571899,0.14510473608970642,0.45932647585868835
1761338273995487000,8.763487060546876,0.7017637491226196,0.039864324033260345,0.48133376240730286
1761338274005552000,8.77355224609375,0.6904803514480591,-0.06756579130887985,0.44368210434913635
1761338274015618000,8.7836181640625,0.6678879261016846,-0.1799040585756302,0.34320664405822754
1761338274025683000,8.793682861328126,0.6283032894134521,-0.28820258378982544,0.18368545174598694
1761338274035748900,8.803748779296875,0.5932052135467529,-0.3276141583919525,0.01018981821835041
1761338274045815000,8.81381494140625,0.5703336000442505,-0.3139895498752594,-0.13938204944133759
1761338274055880200,8.823880126953124,0.5773206949234009,-0.29098543524742126,-0.23933473229408264
1761338274065946000,8.833946044921875,0.5472096800804138,-0.3270721435546875,-0.282748281955719
1761338274076011000,8.844010986328126,0.4844924807548523,-0.3906574845314026,-0.29090046882629395
1761338274086077000,8.854076904296875,0.43220362067222595,-0.4278826415538788,-0.2830706834793091
1761338274096143000,8.86414306640625,0.3990435302257538,-0.4031091034412384,-0.2836509943008423
1761338274106208000,8.8742080078125,0.3741379976272583,-0.3600495457649231,-0.3132973611354828
1761338274116274200,8.884274169921875,0.340006947517395,-0.2752379775047302,-0.3411303162574768
1761338274126339800,8.89433984375,0.3131648004055023,-0.1446470469236374,-0.34623149037361145
1761338274136405000,8.904405029296875,0.29424384236335754,-0.02071179449558258,-0.33181604743003845
1761338274146471000,8.914470947265626,0.26645854115486145,0.014921821653842926,-0.3074726164340973
1761338274156536000,8.9245361328125,0.2372782826423645,-0.012021911330521107,-0.2732534110546112
1761338274166602200,8.934602294921875,0.2023470252752304,-0.018290212377905846,-0.1941613256931305
1761338274176668000,8.94466796875,0.16352984309196472,0.014818471856415272,-0.07338432222604752
1761338274186733000,8.954733154296875,0.10415695607662201,0.0365375392138958,0.060358677059412
1761338274196799000,8.964799072265626,0.03133761137723923,0.028629016131162643,0.17607781291007996
1761338274206865200,8.974865234375,-0.006984535604715347,0.025952327996492386,0.2705202102661133
1761338274216929800,8.9849296875,0.024169921875,0.036606304347515106,0.3341212868690491
1761338274226996000,8.994995849609374,0.10594642162322998,0.01441311277449131,0.36573341488838196
1761338274237061000,9.00506103515625,0.232216477394104,-0.06470061838626862,0.35116273164749146
1761338274247127000,9.015126953125,0.3738211393356323,-0.045175813138484955,0.3203820288181305
1761338274257193200,9.025193115234375,0.48719537258148193,0.11262340098619461,0.2509419620037079
1761338274267257900,9.0352578125,0.5163049697875977,0.3102192282676697,0.1475917398929596
1761338274277324000,9.045323974609374,0.5019934177398682,0.44200682640075684,0.09113485366106033
1761338274287389000,9.055388916015625,0.5299001932144165,0.41340479254722595,0.05829319730401039
1761338274297455000,9.065455078125,0.6417900323867798,0.3241793215274811,-0.04069623351097107
1761338274307521000,9.07552099609375,0.7350493669509888,0.35018622875213623,-0.1586364358663559
1761338274317586000,9.0855859375,0.7417426705360413,0.414796382188797,-0.14600639045238495
1761338274327652000,9.095652099609374,0.6864333152770996,0.3473907709121704,-0.013248614966869354
1761338274337718000,9.105718017578125,0.590172290802002,0.16509315371513367,0.20807552337646484
1761338274347783200,9.115783203125,0.5160081386566162,-0.03716316074132919,0.43110907077789307
1761338274357849000,9.12584912109375,0.4598577618598938,-0.21741893887519836,0.5883849859237671
1761338274367914000,9.1359140625,0.4111858010292053,-0.30222955346107483,0.6435484290122986
1761338274377980000,9.14597998046875,0.38613396883010864,-0.31409552693367004,0.593315064907074
1761338274388046000,9.156046142578125,0.38934993743896484,-0.2736697793006897,0.45109593868255615
1761338274398111200,9.166111328125,0.4387124180793762,-0.14005659520626068,0.31585824489593506
1761338274408177200,9.17617724609375,0.5184879899024963,-0.015320086851716042,0.19607047736644745
1761338274418242800,9.186242919921876,0.6268792152404785,0.10833181440830231,0.1319468915462494
1761338274428308000,9.196307861328124,0.7312132120132446,0.23123347759246826,0.1396816521883011
1761338274438374100,9.2063740234375,0.8230214715003967,0.3197851777076721,0.18675222992897034
1761338274448439000,9.21643896484375,0.901308536529541,0.34753039479255676,0.25290483236312866
1761338274458505000,9.2265048828125,0.9605649709701538,0.3082285225391388,0.2944149971008301
1761338274468571000,9.23657080078125,1.001377820968628,0.21623899042606354,0.3002489507198334
1761338274478636000,9.246635986328124,1.0065912008285522,0.06560847163200378,0.2560916244983673
1761338274488702000,9.256701904296875,0.9811127781867981,-0.1065310686826706,0.1837466061115265
1761338274498767000,9.26676708984375,0.9594253301620483,-0.22893235087394714,0.10754237323999405
1761338274508833000,9.2768330078125,0.946277379989624,-0.2856701612472534,0.050891533493995667
1761338274518899000,9.28689892578125,0.9409060478210449,-0.2931177020072937,-0.010323352180421352
1761338274528964000,9.296964111328125,0.942839503288269,-0.23888511955738068,-0.0760217234492302
1761338274539030000,9.307030029296875,0.9427425861358643,-0.12217739969491959,-0.1494125872850418
1761338274549096200,9.31709619140625,0.9330857992172241,0.008831367827951908,-0.19984017312526703
1761338274559160800,9.327160888671875,0.9137099981307983,0.1360716074705124,-0.20956364274024963
1761338274569227000,9.33722705078125,0.8778856992721558,0.25199270248413086,-0.19922953844070435
1761338274579292200,9.347292236328125,0.8494306206703186,0.33833053708076477,-0.16808412969112396
1761338274589358000,9.357358154296875,0.8312885761260986,0.404877632856369,-0.12115062028169632
1761338274599424000,9.367424072265624,0.8117129802703857,0.4462040364742279,-0.08720304071903229
1761338274609489000,9.377489013671875,0.8077165484428406,0.48532792925834656,-0.07797294855117798
1761338274619555000,9.38755517578125,0.8082840442657471,0.5695946216583252,-0.12244401127099991
1761338274629620000,9.397619873046875,0.8187770843505859,0.6964696645736694,-0.20935562252998352
1761338274639686100,9.40768603515625,0.8747048377990723,0.8552587628364563,-0.2750132083892822
1761338274649752000,9.417751953125,0.887554943561554,1.0753514766693115,-0.0061166007071733475
1761338274659817000,9.42781689453125,0.7740912437438965,0.7144676446914673,0.24479950964450836
1761338274669883100,9.437883056640626,0.6928990483283997,0.21684515476226807,0.2920939326286316
1761338274679949000,9.447948974609375,0.7644773721694946,-0.11320466548204422,0.23582987487316132
1761338274690014200,9.45801416015625,0.8509539365768433,-0.20063531398773193,0.15010879933834076
1761338274700079900,9.468079833984374,0.8411564230918884,-0.15995420515537262,0.018267937004566193
1761338274710145000,9.47814501953125,0.7480118274688721,-0.18287552893161774,-0.11216939240694046
1761338274720211000,9.4882109375,0.6954881548881531,-0.13976401090621948,-0.16444218158721924
1761338274730277000,9.498277099609375,0.6845619082450867,-0.07735181599855423,-0.1685449779033661
1761338274740342000,9.508342041015625,0.6175551414489746,-0.08072337508201599,-0.09975845366716385
1761338274750408000,9.518407958984374,0.5454904437065125,-0.1164720356464386,0.026311971247196198
1761338274760473900,9.528473876953125,0.5009815692901611,-0.09560830891132355,0.13795381784439087
1761338274770539000,9.5385390625,0.4572206139564514,-0.23543086647987366,0.1626787632703781
