time,seconds_elapsed,z,y,x
1761338322521883600,0.076883544921875,-1.0320452924340964,-1.50879011349082,-0.9630879299335181
1761338322531948800,0.08694873046875,-0.877459126356244,-1.48002199190706,-1.0227711220018565
1761338322542014700,0.0970146484375,-0.7900976537674665,-1.4626425486914814,-1.0896934715434907
1761338322552081000,0.107080810546875,-0.7964870625436306,-1.4538997086569665,-1.2028391545344144
1761338322562145800,0.117145751953125,-0.7441799522012472,-1.4037540141321718,-1.3463273688189685
1761338322572211700,0.127211669921875,-0.6786579709768294,-1.3346416072003542,-1.4171094625286758
1761338322582276900,0.13727685546875,-0.6807797854363918,-1.239126784902811,-1.2869050196439027
1761338322592342800,0.1473427734375,-0.9066869744062424,-1.0916729549229145,-1.019258437705785
1761338322602409000,0.157408935546875,-1.0790151334017515,-0.8118862917274237,-0.8157616718560456
1761338322612473600,0.1674736328125,-0.9960825831711292,-0.5208440750241279,-0.6940943903658539
1761338322622539800,0.177539794921875,-0.6722849288135767,-0.305083674602583,-0.6465548597514629
1761338322632605000,0.18760498046875,-0.17356150018274782,-0.12224117238800972,-0.7301378367148339
1761338322642670800,0.1976708984375,0.39530806234180926,0.13718688565064222,-0.9171492586445062
1761338322652736800,0.20773681640625,0.8978998568385839,0.38120745813380924,-1.0973167329635471
1761338322662801700,0.2178017578125,1.1112275502204894,0.5160975380841643,-1.2492523114673793
1761338322672867800,0.227867919921875,1.1194330685079097,0.6701270201273262,-1.376836196590215
1761338322682932700,0.2379326171875,0.8280296172767877,0.7472973535694182,-1.5534740354783831
1761338322692999000,0.2479990234375,0.358851432082057,0.7680693618327379,-1.7249322797715663
1761338322703064600,0.258064697265625,-0.13657470856904982,0.8133714157186448,-1.8925509459018706
1761338322713129700,0.268129638671875,-0.6534089634299278,0.9287838745977729,-2.0949191461130976
1761338322723196000,0.27819580078125,-1.0915379303663968,1.1231346995048224,-2.2520576270222663
1761338322733261800,0.28826171875,-1.2953238884210585,1.3406775263637303,-2.2516404245235027
1761338322743326700,0.29832666015625,-1.211549042147398,1.5392777523435652,-2.021117704582214
1761338322753392600,0.308392578125,-1.0402841284692286,1.678443061927706,-1.5790386848457156
1761338322763457800,0.318457763671875,-0.7597720736086369,1.8137205702930688,-1.0439875130318104
1761338322773523700,0.328523681640625,-0.34752456690371036,2.131733503769338,-0.5645700021671131
1761338322783590000,0.33858984375,0.015290508112311363,2.484335227806866,-0.17046769888587296
1761338322793654800,0.34865478515625,0.005713116949796676,2.635939747725427,0.13665526299197225
1761338322803720700,0.358720703125,-0.03668693188428879,2.817885922154784,0.3732202587721869
1761338322813785900,0.368785888671875,0.21180618290305137,2.904249031355977,0.656635962652415
1761338322823851800,0.378851806640625,0.5889058038592339,2.6261110121503473,0.8530354637175798
1761338322833918000,0.38891796875,0.8363163841068744,2.184596786689758,0.930330665648356
1761338322843982600,0.398982666015625,0.7919044109284877,1.904999216325581,0.8513555478066206
1761338322854048800,0.409048828125,0.3616887013345957,1.835930356274545,0.7368529703140259
1761338322864114000,0.419114013671875,-0.18425766624212264,1.7184657141059636,0.7632664185304194
1761338322874179800,0.429179931640625,-0.7507815424233675,1.4740344419300555,0.9264151727050542
1761338322884245800,0.439245849609375,-1.201783434936404,1.217090017400682,1.17241975861229
1761338322894310700,0.449310546875,-1.4743652813196182,1.0590246309049427,1.4130129869952797
1761338322904376800,0.459376953125,-1.5098551123738289,1.0395254190564156,1.6133461742475628
1761338322914442800,0.46944287109375,-1.3452186769247054,1.1724674702115356,1.8676807085394858
1761338322924508000,0.4795078125,-0.9687883335322142,1.2398749729216099,2.093629983085394
1761338322934573800,0.48957373046875,-0.4362140732258558,1.2375747331552207,2.2209690996669234
1761338322944638700,0.499638671875,0.09144435798823833,1.0337522424824535,2.1556894027657805
1761338322954704600,0.50970458984375,0.711678781569004,0.6347888725034893,1.8489657789364455
1761338322964770800,0.519770751953125,1.0933867731034754,0.22139765738984568,1.4076893077544868
1761338322974836000,0.5298359375,1.0719394959270954,-0.19796733490377663,1.0084162873044609
1761338322984901600,0.539901611328125,0.9509487254589796,-0.4722244940880686,0.9889574074663221
1761338322994966800,0.549966796875,0.9772621473670006,-0.5258549985213204,1.1029589766342192
1761338323005032700,0.56003271484375,1.17446872703135,-0.49764348790701474,1.2404663629435002
1761338323015099000,0.570098876953125,1.4306097262233495,-0.5552161906274036,1.5011270315170286
1761338323025163800,0.580163818359375,1.4770090738266706,-0.7272269177041948,1.7487297733359037
1761338323035229700,0.590229736328125,1.227048809096217,-1.13518271856457,1.9710497514687477
1761338323045295600,0.600295654296875,0.894585617724061,-1.4584941968403755,2.083631882292777
1761338323055360800,0.61036083984375,0.526334489133954,-1.4926733836874364,2.0220411030374468
1761338323065427000,0.620427001953125,0.29218612604141236,-1.3610006218157709,1.8474980444714426
1761338323075491600,0.63049169921875,0.25973230168223377,-1.3021714162282645,1.6056576655715702
1761338323085557800,0.640557861328125,0.36371523872613903,-1.439400350922346,1.4558675015985965
1761338323095623700,0.650623779296875,0.35905367665588855,-1.6659674651056526,1.4321110706970095
1761338323105688800,0.660688720703125,0.11974515432119369,-1.7364651889160274,1.285106445789337
1761338323115754800,0.670754638671875,-0.2143102746784687,-1.823389293000847,1.0662508558314292
1761338323125819600,0.680819580078125,-0.7114420502036809,-2.0878528609886766,0.8838617599401623
1761338323135885800,0.6908857421875,-1.1559908210545777,-2.228883672183752,0.538430877380073
1761338323145951700,0.70095166015625,-1.3788532355010508,-2.1952532052606344,0.07810801615100353
1761338323156017000,0.711016845703125,-1.5141864195764063,-2.166859616077691,-0.30876959657371045
1761338323166082800,0.721082763671875,-1.4700339741170405,-2.1056939303666353,-0.6840007933095097
1761338323176149000,0.73114892578125,-1.3251689915865659,-2.152863677820563,-1.1792986314058302
1761338323186213600,0.741213623046875,-1.146506953394413,-2.46408242111206,-2.2646254321724175
1761338323196279800,0.75127978515625,-0.7186345920562743,-2.695522986550629,-3.577804710757732
1761338323206345000,0.761344970703125,-0.16158055500984192,-2.9376766691833733,-5.001149998936056
1761338323216411000,0.771410888671875,0.11326456013023853,-3.280327200309932,-6.409836647164822
1761338323226476500,0.7814765625,-0.04093348341286182,-3.388439492243528,-7.494121829923987
1761338323236541700,0.791541748046875,-0.2861316483080387,-2.9077734060898424,-7.767327945685386
1761338323246608000,0.80160791015625,-0.42638884478211403,-2.0246315579220653,-7.057975561237335
1761338323256672800,0.8116728515625,-0.631906741195917,-1.1673407017823307,-5.605289027762413
1761338323266739000,0.821739013671875,-0.7253139236897229,-0.450764941952005,-3.9645612178534266
1761338323276804600,0.8318046875,-0.6554612197846174,0.2012716371461749,-2.3462013070970773
1761338323286869800,0.841869873046875,-0.6490285563886166,0.6714395640306174,-0.9288460531137883
1761338323296935700,0.851935791015625,-0.8372299918204545,0.9045996467381715,0.0576721445068717
1761338323307000800,0.862000732421875,-1.010061424162984,0.9751144678138196,0.63805108916983
1761338323317066800,0.872066650390625,-0.9997826067328452,0.8783243648834526,0.663403118699789
1761338323327132700,0.882132568359375,-0.9084662590384482,0.4228978608611971,-0.07741663635335862
1761338323337197800,0.89219775390625,-0.7680676082670688,-0.2450998190872371,-1.4489062842838465
1761338323347263700,0.902263671875,-0.6747773301512002,-0.6749594087198376,-2.6731884051457047
1761338323357330000,0.912329833984375,-0.8261457032263279,-0.6251968682937323,-3.0552649377316237
1761338323367394600,0.92239453125,-0.9996703785300254,-0.5316376370433717,-2.506131172290444
1761338323377460700,0.932460693359375,-0.9859703544795513,-0.4513100086141377,-1.2069481972884386
1761338323387526000,0.94252587890625,-1.0825076516926289,-0.2961182778585702,0.23285346444379537
1761338323397591800,0.952591796875,-1.4558540575951338,-0.14659312149733303,1.4803276968553662
1761338323407658000,0.962657958984375,-2.010556563079357,0.0690581925265491,2.5878821115210653
1761338323417722600,0.97272265625,-2.5543635805398224,0.44965617699250576,3.487159978714585
1761338323427788800,0.982788818359375,-2.816742597338557,0.865496155231446,4.105687306116521
1761338323437853700,0.992853759765625,-2.8282132549017667,1.3526803911074996,4.5756189400270575
1761338323447919900,1.002919921875,-2.665239199706912,1.9020174240358172,4.941121354430914
1761338323457985800,1.01298583984375,-2.183720588377118,2.2067595186591147,4.750348314945399
1761338323468050700,1.02305078125,-1.424924081802368,2.4543127222478387,3.9861560868069525
1761338323478116900,1.033116943359375,-0.4531552711546421,2.4347576885588467,2.87136266079843
1761338323488182800,1.043182861328125,0.746354958152771,2.1721303960874674,1.4665747735738754
1761338323498248000,1.053248046875,2.1289754372328518,1.7944050444483757,-0.0818815068077296
1761338323508313900,1.06331396484375,3.396681250888109,1.3265731592960655,-1.4231044651597737
1761338323518378800,1.073378662109375,4.313865069389343,0.9204835906989872,-2.43519900258556
1761338323528444700,1.083444580078125,4.825519875785708,0.47760333758220075,-3.015081103642285
1761338323538510800,1.0935107421875,4.745947157377004,0.3997180608037859,-2.8231574328169224
1761338323548576000,1.103575927734375,4.280791067305207,0.4071514622075483,-2.0241301842711863
1761338323558641700,1.1136416015625,3.5522125888615843,0.3358301470546052,-0.8449277067162096
1761338323568706800,1.123706787109375,2.5327795252412555,0.27856941462652757,0.38189193326663223
1761338323578772700,1.133772705078125,1.3178998773664234,0.3158803418943658,1.5269500395596027
1761338323588839000,1.1438388671875,-0.1823380963563919,0.41264096300192177,2.4507855710349977
1761338323598903800,1.15390380859375,-1.5543962648898362,0.4392574595097452,3.1931820008203387
1761338323608969700,1.1639697265625,-2.5751006636202334,0.4326373107176274,3.6099592599093913
1761338323619035600,1.17403564453125,-3.193957369107008,0.381071520261839,3.5102906789332624
1761338323629100800,1.184100830078125,-3.37097982339859,0.4208886764632538,3.0202304492294787
1761338323639166700,1.194166748046875,-3.1473364877074954,0.17376743455100804,2.1082177497558297
1761338323649231600,1.204231689453125,-2.6101275533378123,-0.09434559585507958,1.0175793255124241
1761338323659297800,1.2142978515625,-1.868790131086111,-0.39394963347017764,-0.24633317854078485
1761338323669363700,1.22436376953125,-1.0551695629119873,-0.7206232816554605,-1.5450510750479995
1761338323679428900,1.234428955078125,-0.2251812127828598,-0.7898422177016735,-2.4717104317724705
1761338323689494800,1.244494873046875,0.5996890636801719,-0.8859489414777606,-2.7292630513280627
1761338323699559700,1.2545595703125,1.267000880256295,-0.8052952228993177,-2.2819462770685552
1761338323709625600,1.26462548828125,1.7304145105749367,-0.6152627726480364,-1.5531203997351228
1761338323719691800,1.27469189453125,1.7671721696078777,-0.3260524475470185,-0.7958988873921334
1761338323729757000,1.2847568359375,1.5754033970832824,-0.09652831932217813,-0.22918398215081542
1761338323739822800,1.29482275390625,1.4771815077841282,-0.015806394345732406,0.15944208167642354
1761338323749887700,1.3048876953125,1.5161030668526887,-0.14012050968343392,0.39993564907722173
1761338323759953700,1.31495361328125,1.5673749889284372,-0.41234862899184227,0.5222091162996366
1761338323770019800,1.325019775390625,1.6040104828864334,-0.7237185442570596,0.48836160909235476
1761338323780084700,1.335084716796875,1.601542046946287,-0.9557107522290199,0.35002843948341905
1761338323790151000,1.34515087890625,1.5121411774843931,-1.0981314103472977,0.24394681312721223
1761338323800215800,1.3552158203125,1.3775813158690928,-1.190277559929341,0.19621892033386976
1761338323810281700,1.36528173828125,1.16754974142313,-1.2443183621965348,0.23783938136389476
1761338323820348000,1.375347900390625,0.8551561091333627,-1.276417527899146,0.3270432121500373
1761338323830412800,1.385412841796875,0.4127040183007717,-1.2594289836972952,0.27958303038217125
1761338323840479000,1.39547900390625,-0.09659633392393588,-1.2553534048214554,0.09707916727112606
1761338323850544600,1.405544677734375,-0.4672574462652206,-1.3432093829289078,-0.15764261277271432
1761338323860609800,1.41560986328125,-0.7300427057772875,-1.4859117805980144,-0.5772147084783762
1761338323870675700,1.42567578125,-0.9534136542677879,-1.7209752127088604,-1.1329727874301374
1761338323880740900,1.435740966796875,-1.1964876666158437,-1.9843632604196666,-1.8193536077439785
1761338323890806800,1.445806884765625,-1.4850024106681345,-2.055928028939664,-2.44921919850111
1761338323900872700,1.455872802734375,-1.8001573243647813,-2.037796744443476,-2.7137393189817667
1761338323910937900,1.465937744140625,-2.0930729337245224,-1.9613311982698738,-2.588759478877485
1761338323921003800,1.476003662109375,-2.268925175192952,-1.5306727133445441,-2.2542327791042625
1761338323931069000,1.48606884765625,-2.2619968372344967,-0.9822951730981468,-1.7592343623459339
1761338323941134800,1.496134765625,-2.089569894039631,-0.6742546214513481,-1.1080477511405944
1761338323951201000,1.506200927734375,-1.898786625421047,-0.581565487566404,-0.6077775679918006
1761338323961266000,1.516265869140625,-1.6973223883122204,-0.5923123608997092,-0.4771443783009425
1761338323971331800,1.526331787109375,-1.456562498125434,-0.49624216974172736,-0.5404545652274042
1761338323981397000,1.53639697265625,-1.1822165646791458,-0.0914712094625458,-0.3785320283794775
1761338323991463000,1.546462890625,-0.8385013269305228,0.46036586012057956,0.2046300807286054
1761338324001529000,1.556529052734375,-0.49418520067930216,0.9322518429692834,0.9650880177095532
1761338324011593700,1.56659375,-0.06540215423703193,1.4000646580949425,1.6048217992693186
1761338324021660000,1.576659912109375,0.5165969389736652,1.6045466355897484,2.0374884091466665
1761338324031725800,1.586725830078125,1.110111113411188,1.4890772588916121,2.1950646969512104
1761338324041791000,1.596791015625,1.2952923242390155,1.0610079136766493,2.201884752229601
1761338324051857000,1.60685693359375,0.9803238730251789,0.5075293239641935,2.150087491105497
1761338324061921800,1.616921875,0.6343424439102411,0.083171930210758,1.8844883432164787
1761338324071988000,1.626988037109375,0.30737434282302856,0.0469088862943463,1.4863555788427592
1761338324082054000,1.637053955078125,-0.23743922133147716,0.3614267624627799,1.1295087645813822
1761338324092119000,1.647119140625,-1.1744371628493069,0.9238766672033816,1.1336094778984784
1761338324102185000,1.65718505859375,-2.366312367233634,0.9992133554775268,0.9829219266943633
1761338324112249900,1.667249755859375,-3.008204495871067,0.7966044783782213,-0.3022008126426488
1761338324122315800,1.677315673828125,-2.9854987430661915,1.0211645635880529,-1.954962978412211
1761338324132382000,1.6873818359375,-2.489924133855104,0.8287411265470087,-2.6218524779230354
1761338324142447000,1.697447021484375,-1.4523668000012635,0.44146077824030067,-2.4308638959906994
1761338324152512800,1.7075126953125,-0.25709786152541636,0.5385739391125738,-2.5460423269182444
1761338324162579000,1.717578857421875,0.8429922086089849,0.9796179167129099,-2.8239237410143017
1761338324172643800,1.727643798828125,1.8859703984677791,1.1240779717043041,-2.5515768724307417
1761338324182710000,1.7377099609375,2.59521172375679,1.1384912585906684,-1.5910064782761035
1761338324192775000,1.74777490234375,3.0268291168421504,0.9752801067043095,-0.34074214022196825
1761338324202840800,1.7578408203125,3.2835458700954914,0.8632108207732438,0.6311261852774769
1761338324212906800,1.76790673828125,3.269886762577295,0.8668644479099661,1.2264306771978735
1761338324222972000,1.777971923828125,3.0852953343361613,0.8392740648686885,1.6104492837622761
1761338324233037800,1.788037841796875,2.8811335287064312,0.9047789488278328,1.9289272044017909
1761338324243102700,1.798102783203125,2.6486007841169834,1.0182891542822121,2.165070540703833
1761338324253169000,1.8081689453125,2.2632786937385796,0.9253542654752731,2.242939670065045
1761338324263234800,1.81823486328125,1.876238693526387,0.6190991359405219,2.181332378066331
1761338324273300000,1.828300048828125,1.6202894175142049,0.3355608651265502,2.1132145351298153
1761338324283366000,1.838365966796875,1.334361767345667,0.13814488049522042,2.0012709944702682
1761338324293430800,1.8484306640625,0.9525134905576705,0.012404157287348061,1.9640565315805374
1761338324303497000,1.8584970703125,0.470772176387906,0.04796268792990595,1.8602210401833057
1761338324313563000,1.86856298828125,-0.035326164925098415,0.2530552350711077,1.639023782470077
1761338324323628000,1.8786279296875,-0.5546089819818735,0.5064464240983129,1.3887959528446197
1761338324333694000,1.88869384765625,-1.0806675767838954,0.6488683243256061,1.141164204126969
1761338324343760100,1.898760009765625,-1.5147136583209038,0.6666150664836168,0.9044305737815796
1761338324353824800,1.90882470703125,-1.8194138134986162,0.6246304665826261,0.640122561681643
1761338324363891000,1.918890869140625,-2.2028081506848336,0.6254965818926692,0.29425365303047
1761338324373955800,1.928955810546875,-2.4156126969754697,0.6321585239998996,-0.03237579068690538
1761338324384022000,1.93902197265625,-2.2355367003321645,0.7410910462751984,-0.3493007097307592
1761338324394087700,1.949087646484375,-1.7702695511013269,0.7495181714240461,-0.8530194624308496
1761338324404152800,1.95915283203125,-1.1091875688254833,0.4010311526963487,-1.5258888400688766
1761338324414219000,1.969218994140625,-0.3687631697654724,-0.006931772024556994,-2.1579846740961073
1761338324424284000,1.979283935546875,0.15641630411446095,-0.1628759285826236,-2.4165661983080207
1761338324434350000,1.98935009765625,0.5060106630295514,-0.2486305139640346,-2.3159993533179164
1761338324444415700,1.999415771484375,0.8605214355587959,-0.3325902883505448,-2.171275240562856
1761338324454481000,2.00948095703125,1.2212415841221809,-0.5094042875232174,-2.139739261700958
1761338324464546800,2.019546875,1.5580758301854132,-0.7779673632517456,-2.1521113981485365
1761338324474612000,2.029612060546875,1.829165976706147,-0.95119495530501,-2.101382789169252
1761338324484678000,2.039677978515625,1.9964128869146107,-0.8824610262967646,-1.6685712178632617
1761338324494743800,2.049743896484375,1.9863743079811333,-0.9268455269463359,-0.9665494685642421
1761338324504809000,2.05980908203125,1.8180255740106104,-0.955966553620994,-0.2630448602963239
1761338324514875000,2.069875,1.4579916541457176,-0.9104588941603898,0.3416319286685437
1761338324524940000,2.07993994140625,0.8967454261064529,-0.9635936874985694,0.6523916030809283
1761338324535005700,2.090005615234375,0.37381110080480573,-1.0252312285050749,0.8376447831664234
1761338324545071900,2.10007177734375,-0.09407236840426922,-1.1403762686196715,0.901245002548024
1761338324555137000,2.110136962890625,-0.5165513462662696,-1.2485855181217194,0.8789282490607351
1761338324565203000,2.120202880859375,-0.9315110345393419,-1.373795075328648,0.7768110328234732
1761338324575268900,2.130268798828125,-1.2342612246930598,-1.593811744955182,0.5158106839668005
1761338324585333800,2.140333740234375,-1.450629600945115,-1.7507748692974447,0.0836461783926934
1761338324595400000,2.15039990234375,-1.684350094014406,-1.81935068513453,-0.4193788198895752
1761338324605464800,2.16046484375,-1.820102380284667,-1.5522078149348497,-0.7448212457794696
1761338324615531000,2.170531005859375,-1.9021242454111575,-0.8294937715452164,-0.4883206925600767
1761338324625597000,2.180596923828125,-2.0718717402637004,-0.7532045317865907,-0.37258908472917973
1761338324635661800,2.190661865234375,-2.1132377698749303,-0.8005812730547041,-1.1872173686411231
1761338324645728000,2.20072802734375,-2.18047181571424,-0.8577177763149142,-2.350522239036113
1761338324655793000,2.21079296875,-2.098286868980527,-1.1151562679715454,-3.2580911108434196
1761338324665859000,2.220859130859375,-1.8063474111765623,-1.1270630519296974,-3.3616888479620215
1761338324675925000,2.230925048828125,-1.5768080031841993,-0.6820958364710211,-2.065950533521175
1761338324685990000,2.240989990234375,-1.4558482123762368,-1.1649225347246974,-0.9199019183535129
1761338324696055800,2.251055908203125,-1.1154846231430768,-1.7381451048269867,-0.2985690320115536
1761338324706122000,2.2611220703125,-0.9969833314031362,-1.8098210786364972,0.4098498709786683
1761338324716187000,2.271186767578125,-0.9384060547500849,-1.9072852814361452,1.1732456880424171
1761338324726252800,2.281252685546875,-0.9325339478462934,-1.5267555399008095,2.0982756169341505
1761338324736318000,2.29131787109375,-0.9724638071745634,-0.5581619252230972,3.211113086569309
1761338324746384000,2.3013837890625,-1.130643029308319,0.45319143844656645,4.245364949136972
1761338324756450000,2.311449951171875,-1.5641063425213098,1.296785193145275,4.910861240723729
1761338324766515000,2.321514892578125,-2.093284530648589,1.6018582732886075,5.0907402534902095
1761338324776580900,2.331580810546875,-2.329925295078754,1.241623862415552,4.482923412933945
1761338324786646000,2.34164599609375,-2.0012638340771196,1.0668751252096145,2.85471810772866
1761338324796712000,2.3517119140625,-0.9885323139220475,0.9194796743534505,0.7263372023228556
1761338324806777900,2.36177783203125,0.44180093344748017,0.4757681580442935,-1.3739051115743814
1761338324816842800,2.3718427734375,1.9185048868477343,0.11205540353618562,-2.943020368298888
1761338324826909000,2.381908935546875,3.146598236560821,0.08164620021451265,-3.6225723655059934
1761338324836973800,2.391973876953125,3.9069519094496963,0.1575450706823729,-3.358934873078763
1761338324847040000,2.4020400390625,4.1864913198858495,0.26887851661955936,-2.511596159698069
1761338324857106000,2.41210595703125,3.936432855477929,0.5329772516166791,-1.465932091756165
1761338324867170800,2.4221708984375,3.3436189382642505,0.8640730636257677,-0.39526349254772064
1761338324877236700,2.43223681640625,2.712731603243947,1.1577967744980007,0.6416132386308163
1761338324887303000,2.442302978515625,2.2184780135035513,1.111437101317942,1.7287535916253924
1761338324897368000,2.4523681640625,1.4963105711460112,0.8376743015218525,2.8127055969074366
1761338324907434000,2.46243408203125,0.6618266631633043,0.4512049773370847,3.7793537035405635
1761338324917498000,2.472498046875,-0.34300270556509493,0.04168079464882612,4.381127756801248
1761338324927564000,2.48256396484375,-1.4365046294808388,-0.41732364092543717,4.3795197370827195
1761338324937630000,2.4926298828125,-2.4142022456556558,-0.698891342318803,3.5779455805331466
1761338324947695000,2.502695068359375,-3.2583617444783446,-0.520924885175377,1.92398682539016
1761338324957761000,2.512760986328125,-4.247307315376401,-0.5269722025156021,-0.1415289699755609
1761338324967826200,2.522826171875,-5.313359506830572,-0.9691867582652717,-1.1544461488958448
1761338324977891800,2.532891845703125,-5.835314757966995,-1.0887542179320007,-1.5752261408202348
1761338324987958000,2.5429580078125,-5.34934092079401,-0.5427296705525368,-1.8222262405708431
1761338324998023000,2.55302294921875,-3.8933617755144834,0.31106377192549406,-1.2784721223413944
1761338325008089000,2.563089111328125,-2.1446324405699966,0.6374965970922261,0.05402849077489227
1761338325018154200,2.573154296875,-0.6303747093230485,0.8165774452183395,1.1876380052059887
1761338325028220000,2.583219970703125,0.47232349748313424,0.978915102205798,1.5599644204109906
1761338325038286000,2.5932861328125,1.239794308900833,0.9177866066999733,1.5176251618534327
1761338325048351000,2.60335107421875,1.9060352813750505,0.7543149772465229,1.2550978226251899
1761338325058417200,2.613417236328125,2.6373563365250825,0.6906136355780065,1.0523724795393645
1761338325068482000,2.62348193359375,3.329504488193989,0.5140198184946552,0.9035621203839779
1761338325078548000,2.6335478515625,3.7928263485759492,0.24802067497000096,0.7892420598514378
1761338325088614000,2.64361376953125,4.051643288978934,0.03718004916347563,0.6803580528929829
1761338325098679000,2.653678955078125,4.019577002632618,-0.0057655047241598366,0.6189714179076254
1761338325108745200,2.6637451171875,3.7246822021543977,0.030395832383446394,0.5218259987335652
1761338325118811100,2.67381103515625,3.183059542995691,0.1566678677227348,0.4127032145831734
1761338325128876000,2.6838759765625,2.475145082396269,0.20068733445219694,0.2919771594658494
1761338325138942000,2.69394189453125,1.860671706560254,0.2574655075277202,0.27236988413296637
1761338325149007000,2.704007080078125,1.2622475482493638,0.3540362868852913,0.22219090839307754
1761338325159073000,2.714072998046875,0.6134516315728425,0.2887886656228453,-0.09496538998754694
1761338325169139200,2.72413916015625,-0.014297405421733855,-0.06687675683423876,-0.7188203238867222
1761338325179204000,2.7342041015625,-0.6771119105786084,-0.6070296357013285,-1.6786325931504367
1761338325189270000,2.74427001953125,-1.2691525053322315,-1.2205598124030976,-2.826133526018262
1761338325199335200,2.754335205078125,-1.7757354152917861,-1.4370742460623382,-3.776521694985032
1761338325209401000,2.764401123046875,-2.3031676365345715,-1.359212715485692,-4.110943034687638
1761338325219467000,2.774467041015625,-2.5962936737746,-1.4405455754347145,-3.9764901405781505
1761338325229532000,2.784531982421875,-2.611647894772887,-1.602864235460758,-3.4138872372329234
1761338325239598000,2.79459814453125,-2.3904069440484044,-1.6140243657700717,-2.622003869092464
1761338325249663200,2.804663330078125,-2.070395822492242,-1.3270716103374958,-1.98743857621178
1761338325259729200,2.814729248046875,-1.6577642849057912,-0.8926527499653398,-1.682148346186429
1761338325269794800,2.824794921875,-1.153041908121109,-0.44651064550839364,-1.3737110503070056
1761338325279860000,2.83485986328125,-0.6446335363000631,-0.20761702411752192,-0.9309493820685892
1761338325289926100,2.844926025390625,-0.26159634198844434,-0.1719696461477317,-0.6106268564756959
1761338325299992000,2.854991943359375,-0.05188508553802967,-0.03706711314118001,-0.14676199352452532
1761338325310057000,2.865056884765625,-0.03102466833889484,0.05911877225176431,0.715615828756988
1761338325320123000,2.875122802734375,-0.17313246111571787,-0.1219001038653776,1.530150443036109
1761338325330188000,2.88518798828125,-0.195723063108325,0.3919855668555945,2.099972922371328
1761338325340254000,2.89525390625,-0.029593174231052396,1.487247266985476,3.061775050278008
1761338325350320000,2.905320068359375,0.16359189483225345,1.9735235942363738,4.100855940437317
1761338325360385000,2.915385009765625,0.15938567531406878,1.2558787438698111,4.279245299167931
1761338325370451000,2.925450927734375,0.02897299650609493,0.5726006753442808,4.105504643025994
1761338325380516000,2.93551611328125,-0.11225099917352199,0.2165465640968643,3.9849274217948314
1761338325390582000,2.94558203125,-0.20794658486545084,0.23154813573257996,3.7588495524331926
1761338325400648200,2.955648193359375,-0.8195616486608982,0.7787976035308093,3.323101635414362
1761338325410712800,2.965712890625,-2.0845833377987146,1.3291288351282478,2.621334591528773
1761338325420779000,2.975779052734375,-3.650405252066254,0.9324735959611833,1.1792989967320113
1761338325430845000,2.985844970703125,-4.647206212639809,0.46900896610766646,-1.4885399371445178
1761338325440910000,2.99591015625,-4.453192291536927,0.3795854464225471,-4.409281838139892
1761338325450976300,3.005976318359375,-2.888444728502631,0.12645685385428368,-5.401893530330062
1761338325461041000,3.016041015625,-0.568172227910161,-0.13204552244050427,-3.8060865199044343
1761338325471107000,3.026107177734375,1.2952636826664208,-0.0015660802729427813,-1.1947579202137886
1761338325481173000,3.036173095703125,2.4575784460455177,-0.1838193478900939,0.4105031837882474
1761338325491238100,3.046238037109375,3.0487615471869707,-0.1769033762228675,1.2999373735658823
1761338325501303800,3.0563037109375,3.2394676589161158,0.21487561694364993,1.9173694530770182
1761338325511369000,3.066368896484375,3.2574013750135897,0.39582514501847327,2.5086431551113724
1761338325521435100,3.07643505859375,3.251962398830056,0.6157479258164763,3.279756414684653
1761338325531501000,3.0865009765625,3.233507873728871,0.6024560441754758,3.8296190789222715
1761338325541566200,3.096566162109375,3.174907800722122,0.5001805321039632,3.9902851494356986
1761338325551632000,3.1066318359375,2.838238974353671,0.3021266879605129,3.792739547075331
1761338325561697000,3.116697021484375,2.3095015157312155,-0.026610030234418807,3.377113796108961
1761338325571763000,3.126762939453125,1.8665350456357002,-0.39744017899967726,2.7714968036845327
1761338325581829000,3.1368291015625,1.3789736470103262,-0.6711008335955441,2.319252217634022
1761338325591894000,3.14689404296875,0.7590455128997564,-0.9593480127528309,2.017985397905856
1761338325601960000,3.1569599609375,0.021738369077444076,-1.1600368815749882,1.5803791396692395
1761338325612025000,3.167025146484375,-0.7392489255398511,-1.035642220947519,0.8565018246538937
1761338325622091000,3.177091064453125,-1.592276790472865,-0.7427613175749779,0.11074183671958744
1761338325632157200,3.1871572265625,-2.542286189255118,-0.7773539075285196,-0.5180149890780449
1761338325642221800,3.197221923828125,-3.2513182557076212,-0.7941214293908327,-0.8206178066503256
1761338325652288000,3.2072880859375,-3.4912943020403384,-0.5656488103797659,-0.6840637755431235
1761338325662354000,3.21735400390625,-3.0439860033482313,-0.4226065132318064,-0.3006757584998384
1761338325672419000,3.227419189453125,-2.1080583214104176,-0.43560733950436115,0.11438313409769907
1761338325682485000,3.237485107421875,-0.99636081559062,-0.4282107264470309,0.35178627946879715
1761338325692550000,3.2475498046875,0.11646657104194164,-0.4377819801297039,0.5499992231640964
1761338325702616000,3.257615966796875,0.9155120858967304,-0.4412150963835418,0.8272050030209124
1761338325712682000,3.267681884765625,1.485225698029995,-0.42678463916666803,1.2491172869108615
1761338325722747100,3.2777470703125,1.9730781885564326,-0.4474736818542704,1.6261634241141378
1761338325732813000,3.28781298828125,2.3541759392380714,-0.5583803902793675,1.8948774891532956
1761338325742878000,3.2978779296875,2.530227502670884,-0.6712034902524203,1.9642628678075968
1761338325752943900,3.30794384765625,2.29433083460629,-0.6899469883628189,1.6163965017288922
1761338325763010000,3.318010009765625,1.8237112184315918,-0.707799602048099,0.9996186483427881
1761338325773075200,3.3280751953125,1.3162328209370373,-0.737503543177247,0.28063728867545723
1761338325783141000,3.33814111328125,0.7260586045771836,-0.8400796821631491,-0.3697489293998107
1761338325793207000,3.34820703125,0.2066805104523897,-0.987837974982336,-0.7046369002334774
1761338325803272000,3.35827197265625,-0.24814473974108694,-1.1152949457898735,-0.6798092599038035
1761338325813338000,3.368338134765625,-0.5831424180269241,-1.153056521168351,-0.47976658003069456
1761338325823403000,3.378403076171875,-0.8347218083918094,-1.1889352054096758,-0.18772073924280702
1761338325833469000,3.388468994140625,-1.1133183850198984,-1.3128040155321359,0.08293543630745262
1761338325843534800,3.398534912109375,-1.4229308621585368,-1.425385269573331,0.19840265758112072
1761338325853600000,3.40860009765625,-1.6282441759109496,-1.574329630371928,0.07399937525577843
1761338325863666200,3.418666259765625,-1.7372352965056894,-1.7868655888542533,-0.20638174670152365
1761338325873731000,3.42873095703125,-1.7905261571884155,-2.018089881193638,-0.4697347596315667
1761338325883797000,3.438796875,-1.8353046255916357,-2.017714910401404,-0.5794336997020989
1761338325893863000,3.44886279296875,-1.8324159184128046,-1.8554045798122882,-0.557211931021884
1761338325903928000,3.458927978515625,-1.7956062369316814,-1.539616336648166,-0.3897144801184535
1761338325913994000,3.468993896484375,-1.6904384740173817,-1.1306207444112748,-0.1644387939851731
1761338325924060000,3.479059814453125,-1.2516057427257299,-0.8579610835514963,0.10625340272653848
1761338325934125600,3.48912548828125,-0.5625415285468102,-0.5928972115829587,0.46885775760132814
1761338325944191700,3.499191650390625,0.0920247882246971,-0.28279669519905,1.1473816904023288
1761338325954257000,3.5092568359375,0.646069706583023,-0.28360918062571433,1.7177416376151144
1761338325964322800,3.51932275390625,0.8212363038748502,-0.5247025770831852,2.0569671627290544
1761338325974388700,3.529388671875,0.6586532938241958,-0.6667183807276189,2.2371967424988743
1761338325984453600,3.53945361328125,0.36646132256388664,-0.6733962510563433,2.3153860437251628
1761338325994519800,3.549519775390625,0.008258125257492066,-0.8499578098379075,2.578037009333074
1761338326004584700,3.559584716796875,-0.3078326079845428,-1.276269205469638,2.802331502409279
1761338326014651000,3.56965087890625,-0.673242960190773,-1.9138406944289803,2.717811390726268
1761338326024716800,3.579716796875,-1.3745774578779935,-2.6797540472716093,2.307437276677787
1761338326034781700,3.58978173828125,-2.161105436465144,-3.113345955300331,2.0391661331005393
1761338326044847600,3.59984765625,-2.6871687074422836,-2.7913252474874257,2.1838839622452855
1761338326054912800,3.609912841796875,-3.022318361419439,-1.9361900350116192,2.566699038238823
1761338326064979000,3.61997900390625,-2.4866315220504998,-1.0319975077696144,3.0992405653193593
1761338326075044900,3.630044921875,-1.578908190333843,-0.3094163700446486,3.7290690389364958
1761338326085109800,3.64010986328125,-0.7422299871772527,0.29900808101594445,3.916850787651539
1761338326095175700,3.65017578125,0.2347527587264776,0.8620739256978035,3.6823882440432905
1761338326105240800,3.66024072265625,1.2615221565842627,1.179078485849127,3.549641861590743
1761338326115306800,3.670306640625,2.2111177138686178,1.1097498058181254,3.3131630097240206
1761338326125373000,3.680373046875,3.215560713627934,1.1284487341344356,2.8814281277388334
1761338326135437800,3.690437744140625,4.4277761107295746,1.4459078331202269,2.5764064855217934
1761338326145503700,3.700503662109375,5.312094016939401,1.290230803065747,2.256192827130854
1761338326155569000,3.71056884765625,5.532967303395271,0.5624487356968224,1.9568606287270782
1761338326165634800,3.720634765625,5.11261423164606,-0.18243034121710805,1.984375827640295
1761338326175700700,3.73070068359375,4.117062394350767,-0.822819700608775,2.261267353916168
1761338326185765600,3.740765625,2.534365917649865,-1.3874990449018776,2.6427587800905106
1761338326195831800,3.750831787109375,0.6497159541308879,-2.2412429491497576,2.6630519187957047
1761338326205897700,3.760897705078125,-1.693901181691885,-2.187996950522065,2.97489873085767
1761338326215963000,3.770962890625,-4.069539011153578,-1.7982655192688106,3.391190836778283
1761338326226028800,3.78102880859375,-6.105008481693267,-0.7811611908569932,3.9129438433408734
1761338326236093700,3.79109375,-7.412797299411892,0.7550020827278494,4.107912580950558
1761338326246160000,3.801159912109375,-8.030166981211304,2.0445511871397493,3.3269574340596795
1761338326256225800,3.811225830078125,-7.220248190164566,1.9712559415653348,1.3064455864161253
1761338326266290700,3.821290771484375,-4.50150945546031,1.2489020367249846,-1.0877618458937852
1761338326276356600,3.831356689453125,-1.636583549711108,0.6148132753148675,-2.928389200878143
1761338326286421800,3.841421875,0.5198521413773298,-0.6465372510295361,-3.8421144033581016
1761338326296488000,3.851488037109375,1.6572428913801907,-1.6157070581600068,-3.642972471717
1761338326306553900,3.861553955078125,1.834171822169423,-1.4179524892240762,-2.424350276312977
1761338326316618800,3.87161865234375,1.5992033748656511,-0.7057184118598699,-0.5874696335762739
1761338326326684700,3.8816845703125,1.1710369990170002,-0.03279500247966498,1.0927043437972663
1761338326336749800,3.891749755859375,0.533350505375862,1.0454099470503628,2.6325688099876046
1761338326346815700,3.901815673828125,-0.22236966249346732,2.0026427212148903,3.856798177748918
1761338326356882000,3.9118818359375,-0.7944348061889409,2.7367162899434563,4.885869422808289
1761338326366946800,3.92194677734375,-0.8963999736696481,2.826763640615344,5.467453505477309
1761338326377012700,3.9320126953125,-0.8558212950438261,2.311752947919816,5.421477936244011
1761338326387078700,3.94207861328125,-0.8040010914355517,1.5846180924132465,4.84993973903209
1761338326397143800,3.952143798828125,-0.7093629058420657,0.9623493134606629,3.8609161344617604
1761338326407210000,3.9622099609375,-0.5849024134367704,0.5028776987660676,2.5709809533417225
1761338326417274600,3.972274658203125,-0.34262685799002646,0.039643662798032164,1.099016303423047
1761338326427340800,3.9823408203125,-0.032055764952301974,-0.4395310157541185,-0.25841771195232865
1761338326437406700,3.99240673828125,0.2612532276391983,-0.86917674344033,-1.4199512618258594
1761338326447471900,4.002471923828125,0.2647036603540182,-0.8891356086898594,-1.462559984974563
1761338326457537800,4.012537841796875,0.6165408297598362,-1.4733889836333691,-2.0183020626395938
1761338326467602700,4.022602783203125,0.9381003498017787,-2.224114850346744,-2.03897367926836
1761338326477668900,4.0326689453125,1.1916244444936512,-2.6222499528080223,-1.6683397471949457
1761338326487733800,4.042733642578125,1.268150050291419,-2.6190479418963193,-0.8304627627078444
1761338326497800000,4.052800048828125,1.2380144397467374,-2.510398182085156,0.2919344893679023
1761338326507865600,4.062865478515625,1.240654140600562,-2.4017799864560363,1.221957331176102
1761338326517930800,4.0729306640625,1.2571458411961793,-2.201025943443179,1.8955520274139939
1761338326527996700,4.08299658203125,1.144865615928173,-1.0922650025319307,3.2027553003296254
1761338326538062800,4.093062744140625,0.9392290615707636,-0.8037672096144407,4.433004659032822
1761338326548128000,4.1031279296875,0.8287970945179461,-1.2442770072728395,4.759927751934528
1761338326558193700,4.113193603515625,0.8127408627301455,-1.1132048416428266,4.577067093008757
1761338326568258800,4.1232587890625,0.8534463826060295,-0.7868357293620705,4.011644456067681
1761338326578324700,4.13332470703125,0.8277256658941506,-0.3910352073282003,3.0932939318746326
1761338326588391000,4.143390869140625,0.6058423256129026,0.009049714026600122,2.034789525451511
1761338326598455600,4.15345556640625,0.3504804940998554,0.3304176570191979,0.861365046776086
1761338326608521700,4.163521728515625,0.2059440128713846,0.5644762960016727,-0.4143819979829714
1761338326618587000,4.1735869140625,0.07765490208864212,0.10479308438301085,-1.930163468198478
1761338326628652800,4.18365283203125,0.001499298647046089,-0.8675744228102267,-4.0515158632069825
1761338326638718700,4.19371875,-0.08825345299243927,-1.554807914430648,-6.224243348404765
1761338326648783600,4.20378369140625,-0.4497130217462778,-2.0708228157326576,-7.414198982903361
1761338326658849800,4.213849853515625,-1.0920125621408223,-2.4627818599075075,-6.892916516461968
1761338326668914700,4.223914794921875,-1.7966022622317075,-2.5184809507757424,-4.874287413825094
1761338326678980900,4.23398095703125,-2.263600765299797,-2.4665946961939333,-2.748774392005801
1761338326689046800,4.244046875,-2.60015385633409,-2.143282341135293,-1.1421379445299507
1761338326699111700,4.254111572265625,-2.707505393028259,-1.4628922856688498,-0.04900047001242638
1761338326709177900,4.264177734375,-2.662058816105127,-0.791032888790965,0.9361889632225036
1761338326719243800,4.274243896484375,-2.71129017226398,-0.18406879260651765,2.508584410661459
1761338326729309000,4.284308837890625,-2.7514456570416685,0.33408151328898966,4.003008729669451
1761338326739374800,4.294374755859375,-2.4933698903948067,0.5080893689997494,4.19197355068922
1761338326749439700,4.304439697265625,-1.6868670452713965,0.09610840427652001,3.5534319015234708
1761338326759505700,4.314505615234375,-0.9288181421935557,-0.46266880330070853,2.884036264410615
1761338326769571800,4.32457177734375,-0.6164677645236253,-0.7991049899570644,2.235414096865803
1761338326779636700,4.33463671875,-0.6898766996055841,-0.7416594938129186,2.0420583474107086
1761338326789703000,4.344702880859375,-1.153569731387496,-0.37230438603628424,2.081341579398513
1761338326799767800,4.354767822265625,-1.5197551596194505,0.11230042780581861,1.9930185683012007
1761338326809833700,4.364833740234375,-1.6244588121533392,0.4150417040007189,1.53879289143607
1761338326819900000,4.37489990234375,-1.6328022776067257,0.8582568516276776,0.6553815056119113
1761338326829964800,4.38496484375,-1.0853501816421747,0.7428055951081216,-0.4142756515316665
1761338326840030700,4.39503076171875,-0.379189286711812,0.605316036716476,-1.085975473933667
1761338326850095900,4.405095947265625,0.6963198843955993,0.37463352310359477,-0.9744025201521813
1761338326860161800,4.415161865234375,1.7820096732556818,0.2943795444324612,-0.2146390682414174
1761338326870227700,4.425227783203125,2.9764608656078577,0.9564588671825826,1.4390022915154694
1761338326880294000,4.4352939453125,3.2509669580519196,1.3030527291074394,2.1876862771376966
1761338326890358800,4.44535888671875,3.4348142899274823,1.4316469603165984,2.640990893635154
1761338326900424700,4.4554248046875,3.6395039188236,1.6636904600843787,3.03264861677587
1761338326910489900,4.46548974609375,3.5717274366706606,1.4588240133166313,3.3729207283332943
1761338326920555800,4.4755556640625,3.125076140582561,0.7721244824424386,3.2328660686939954
1761338326930622000,4.4856220703125,2.5443244170844554,0.4135724716983735,2.8747487961053846
1761338326940686600,4.4956865234375,1.8251719386339187,0.1636955378698185,2.3253366521142422
1761338326950752800,4.505752685546875,1.0510562823742629,-0.1617971203699708,1.7729843630179762
1761338326960818000,4.51581787109375,0.3095341512054205,-0.582091959125921,1.1336470334298907
1761338326970883800,4.5258837890625,-0.34410803645849225,-0.8929711682647467,0.4091759903050959
1761338326980949800,4.53594970703125,-1.0024439348965883,-0.632750936935097,0.0668778436796274
1761338326991014700,4.5460146484375,-1.5862567995309829,-0.5165134984739125,0.051866878594481386
1761338327001080800,4.556080810546875,-1.9737392828136682,-0.4525871158778667,0.325236783782579
1761338327011145700,4.566145751953125,-2.0909312455207107,-0.2971716593690216,0.5475590634703635
1761338327021212000,4.5762119140625,-1.948617701038718,-0.15100501052229665,0.6498094045680016
1761338327031277800,4.58627783203125,-1.6665683536082505,-0.08927098687137476,0.7827529900930822
1761338327041342700,4.5963427734375,-1.1651689837664365,0.05239136825946625,0.8539055245503783
1761338327051408600,4.60640869140625,-0.583864302560687,0.11644067854885942,0.7998380534719676
1761338327061473800,4.616473876953125,-0.22023265046477317,-0.03841393377340864,0.6305331147551536
1761338327071540000,4.6265400390625,0.03045183688700199,-0.3427963693380356,0.4818865313267335
1761338327081605600,4.636605712890625,0.20026129105985163,-0.6138295249745249,0.5005742441292852
1761338327091670800,4.6466708984375,0.334983065238595,-0.6407160705953836,0.5299283123748376
1761338327101736700,4.65673681640625,0.5783318028748035,-0.47895584816969927,0.397685458997637
1761338327111803000,4.666802978515625,0.8417004152327775,-0.38756278197728095,0.20012893338445573
1761338327121867800,4.67686767578125,1.0036065489351749,-0.4640562390711158,0.0022777539399452505
1761338327131933700,4.68693359375,1.0524375075995922,-0.6149800101839006,-0.2050534207072109
1761338327141998800,4.696998779296875,0.9819599497944116,-0.7153150922447442,-0.32896365881860257
1761338327152064800,4.707064697265625,0.8111457024931907,-0.48928252332955596,-0.3308361381595954
1761338327162131000,4.717130859375,0.6936211468309164,-0.37077998948059976,-0.23854183054482564
1761338327172195600,4.727195556640625,0.38589784443974495,-0.45926009083576497,-0.3218107913892716
1761338327182261800,4.73726171875,0.17169979796409607,-0.3518148845087737,-0.6032245443299412
1761338327192327000,4.747326904296875,0.1511976926833391,-0.11032196733970194,-0.9331091904509812
1761338327202392800,4.757392822265625,0.3733586808621883,0.07360847624205052,-1.2103775141499935
1761338327212458800,4.767458740234375,0.4222755642443895,0.060221646326594054,-1.2429384521454572
1761338327222523600,4.777523681640625,0.5707523075312376,0.019883133132196962,-1.5996490728065371
1761338327232589800,4.78758984375,0.6051455755203962,-0.07774415127467364,-1.8861146292440591
1761338327242655700,4.79765576171875,0.5796674353927374,-0.13614284735727122,-1.7819832236401736
1761338327252721000,4.807720947265625,0.2805219917327165,-0.12538247522157617,-1.4129643255479634
1761338327262786800,4.817786865234375,-0.1694540648639202,-0.016474448066717013,-1.0138223110664635
1761338327272851700,4.827851806640625,-0.6251216111004352,0.365557943983376,-0.5409207214344293
1761338327282917600,4.837917724609375,-1.1079530585944652,0.3972188278665766,-0.43491687302216886
1761338327292983800,4.84798388671875,-1.5869553031891583,-0.2577803090979345,-0.9244038328826427
1761338327303049000,4.858049072265625,-2.340744210734963,-0.5620743494264782,-1.5659696521751583
1761338327313115000,4.868114990234375,-3.0020167471468446,-0.6350421166121959,-2.2049059997469187
1761338327323179800,4.8781796875,-3.3191888458847996,-0.8734155500538646,-2.4714026809975502
1761338327333245700,4.88824560546875,-3.0261890653729435,-1.2503829229325056,-2.1474413605108857
1761338327343312000,4.898311767578125,-2.3845991345524786,-1.3926732326693831,-1.69076302979663
1761338327353376800,4.908376708984375,-1.5609253743976355,-1.1395437633182852,-1.3435826001554727
1761338327363442700,4.918442626953125,-0.8436538873881101,-0.6814793850731105,-0.8112561771303415
1761338327373508600,4.928508544921875,-0.46272798614203925,-0.15784640998281538,0.07359784525018184
1761338327383573800,4.93857373046875,-0.23869418982863425,0.19256182259842752,1.0962295953139662
1761338327393639700,4.9486396484375,-0.2286480121105909,0.4951513057650998,2.337299477108568
1761338327403704800,4.958704833984375,-0.45160862623453135,0.5853588154347613,3.502414538730681
1761338327413770800,4.968770751953125,-0.7844143474340438,0.32496381206009534,4.136790300388634
1761338327423836700,4.978836669921875,-1.1069634630352259,-0.03078910601735115,4.1236312513470645
1761338327433901800,4.98890185546875,-1.3072358600109815,-0.2545191701438278,3.5575013429194686
1761338327443967700,4.9989677734375,-1.4493588503569363,-0.3022397381472401,2.687486395089328
1761338327454032600,5.00903271484375,-1.579598510685563,-0.41775852521136403,1.7864409337013958
1761338327464098800,5.019098876953125,-1.7378981443285941,-0.5035954551139846,1.1942363074924796
1761338327474164700,5.029164794921875,-1.6994646610379218,-0.10545282693337649,0.8674084916587919
1761338327484230000,5.03922998046875,-1.3405074304938316,0.7218298809662461,0.8332209023095667
1761338327494295800,5.0492958984375,-0.6840747353285551,1.2033177318315953,0.7575166958972811
1761338327504360700,5.059360595703125,0.15167816967666148,1.3175639234103262,0.5499455567480996
1761338327514426600,5.069426513671875,1.0191676906824112,1.2141446115985512,0.2760771411530673
1761338327524492800,5.079492919921875,1.8049299455940722,0.959476607568562,-0.05410102628814056
1761338327534557700,5.0895576171875,2.2646365380883218,0.47085057538636027,-0.38676534798927603
1761338327544623900,5.099623779296875,2.476996263220906,-0.021466091474704442,-0.7957061412990093
1761338327554689800,5.109689697265625,2.5340333246946334,-0.15726685652919112,-1.1417691112175583
1761338327564754700,5.119754638671875,2.249323818144202,0.11945610824674367,-1.1502128221750259
1761338327574820900,5.12982080078125,1.5957137791842222,0.1249859045188874,-1.0974787185922263
1761338327584885800,5.1398857421875,0.8591676828622817,0.4317780635397881,-0.6191704476110637
1761338327594952000,5.149951904296875,0.15858721841275691,0.8441388213608414,0.15143288967870175
1761338327605017600,5.160017578125,-0.576879850500822,0.7282021194119006,0.5920373798832297
1761338327615082800,5.170082763671875,-1.3018418920129537,0.45102640589978543,0.6961249463453888
1761338327625148700,5.180148681640625,-1.863784285622835,0.13191384061854333,0.29658775853384284
1761338327635213800,5.1902138671875,-2.152313642722368,0.35175402116701004,-0.22199257280938325
1761338327645280000,5.200280029296875,-2.1459306636869906,0.5861242103166878,-0.7005791492752731
1761338327655345700,5.210345703125,-1.8375784157425163,0.9830448224216699,-0.6798322023879736
1761338327665410800,5.220410888671875,-1.3558131361752748,1.3142479307301342,-0.16390702519603073
1761338327675476700,5.230476806640625,-1.0014140073269604,1.3161743687480687,0.46739016926679755
1761338327685542000,5.2405419921875,-0.5902075341075659,1.1488122346621006,0.9254759190935641
1761338327695607600,5.250607666015625,-0.15171850168704987,1.023474521030858,1.1503786071959883
1761338327705673700,5.260673828125,0.23173896386325357,0.9918993061371147,1.3024061017669737
1761338327715739000,5.27073876953125,0.5847615436613559,0.8877308564584702,1.2579548194915056
1761338327725804800,5.2808046875,0.9472171377152204,0.6403969947088509,1.042932743281871
1761338327735870000,5.290869873046875,1.3603922806590796,0.28339577533705157,0.7492298560019582
1761338327745935600,5.300935546875,1.7910533959329127,0.009420227839425206,0.5699046411933377
1761338327756001800,5.311001708984375,2.158061830985546,-0.20215346148200333,0.5859280301574618
1761338327766066700,5.321066650390625,2.4322411756932736,-0.3663588485701009,0.7070498065941035
1761338327776132900,5.3311328125,2.4838714096873997,-0.37566184323802587,0.789665326764807
1761338327786198800,5.34119873046875,2.2998943139523265,-0.2529414176994003,0.7104026241533458
1761338327796263700,5.351263671875,2.080223973545432,-0.19110745907165108,0.6162772103875875
1761338327806329600,5.36132958984375,1.7175152815133332,-0.08866333070127293,0.5694006737265735
1761338327816394800,5.371394775390625,1.2520032176107168,0.005684822437074035,0.4861246072879061
1761338327826461000,5.3814609375,0.825927092039585,-0.10665907918429002,0.459534925721772
1761338327836526800,5.39152685546875,0.5023363584309816,-0.2986272832711227,0.3148336458530277
1761338327846591700,5.401591796875,0.3239256646513939,-0.49989831762909887,0.034881489897519345
1761338327856657700,5.41165771484375,0.29854747776687146,-0.7122191720560193,-0.3348880438989028
1761338327866722800,5.421722900390625,0.22723230009377002,-1.090494047336653,-0.8167679262891411
1761338327876788700,5.431788818359375,0.05405190818309784,-1.4760891825027762,-1.4115750631466506
1761338327886855000,5.44185498046875,-0.0706453155875206,-1.691387153044343,-1.9385005039110779
1761338327896919800,5.451919921875,-0.2068336551874876,-1.5642432667739687,-2.2840892804466186
1761338327906985700,5.46198583984375,-0.3627776656150818,-1.2183191208042203,-2.2306397220708427
1761338327917051000,5.47205078125,-0.47324236589372154,-0.9620070028290152,-1.5826692964330316
1761338327927116300,5.4821162109375,-0.35197160944044587,-0.7491071794703602,-0.6620676323123276
1761338327937182500,5.492182373046875,-0.07270692429244519,-0.6761549021147191,0.13458265796899796
1761338327947247600,5.50224755859375,0.009935118559002875,-0.633410131496191,0.5794421752694994
1761338327957313500,5.5123134765625,-0.2354635373443365,-0.5680968611190095,0.6338014689013362
1761338327967379500,5.52237939453125,-0.5126058235108852,-0.6382718192484229,0.5222232178902253
1761338327977444400,5.5324443359375,-0.6939794587492942,-0.8658931917250156,0.27411091911401597
1761338327987510500,5.542510498046875,-0.864655758884549,-1.2011118923503905,-0.21345756683927028
1761338327997575400,5.552575439453125,-1.0944038411915302,-1.5791066355153918,-0.8911215948753058
1761338328007641600,5.5626416015625,-1.4213187507867813,-1.6070060114406048,-1.4770420993134379
1761338328017707300,5.572707275390625,-1.7594307617008684,-0.7466524067293853,-1.4483350602671503
1761338328027772400,5.5827724609375,-1.8003847033798694,0.03555429285885766,-0.606736278777942
1761338328037838300,5.59283837890625,-1.7255319992303848,-0.11245238523082807,0.39361017238274215
1761338328047903500,5.602903564453125,-1.4716525152295827,0.590305660719797,1.296743984352052
1761338328057969400,5.612969482421875,-1.2248363937437534,1.2700360101684927,1.9397005273506045
1761338328068035300,5.623035400390625,-1.1399193916976451,1.3429425486862658,2.2140686726287004
1761338328078100500,5.6331005859375,-1.1862889286845921,1.2937912720263003,2.219474915586412
1761338328088166400,5.64316650390625,-1.002968835553527,1.118367485103011,1.7691845323435962
1761338328098231600,5.6532314453125,-0.8727104705244302,0.9871266849078237,1.0790307693623005
1761338328108297500,5.66329736328125,-0.9298866482079029,1.1230370112840085,0.7157769376028329
1761338328118363400,5.67336328125,-1.188443476369977,1.1668310717597603,0.6705702338501811
1761338328128428500,5.683428466796875,-1.6134657089740037,0.9320685222916304,0.6564804798297583
1761338328138494500,5.693494384765625,-1.9373773451000451,0.7113057104729116,0.2506543844744563
1761338328148559400,5.703559326171875,-2.090630216747522,0.6296940335825085,-0.4872006390215829
1761338328158625300,5.713625244140625,-2.137570831620693,0.48891730674635614,-1.079687333574891
1761338328168691500,5.72369140625,-1.9105483748853205,0.3939710415843874,-1.0685908430863171
1761338328178756400,5.73375634765625,-1.4676578926354646,0.5418164646977558,-0.5479528120283037
1761338328188822500,5.743822509765625,-1.031732573223114,0.8898284863248467,0.21815823707720264
1761338328198888400,5.753888427734375,-0.5004775788217782,1.0638139840733258,0.7129828499048948
1761338328208953300,5.763953369140625,0.2202747360408306,1.1348906768154352,0.9349059376746416
1761338328219019500,5.77401953125,1.112379058343172,1.340321406402439,1.275530662062019
1761338328229084400,5.78408447265625,2.046125889110565,1.5281035935088991,1.6928050570182502
1761338328239150600,5.794150634765625,2.8816794721513985,1.6018936368629335,2.08768831807673
1761338328249216500,5.804216552734375,3.48825128108263,1.5409519691661,2.4174191618755456
1761338328259281400,5.814281494140625,3.9448932253092526,1.418540518245101,2.5987603561490773
1761338328269347300,5.824347412109375,4.22211208384335,1.2449687889292835,2.636758370631933
1761338328279412500,5.83441259765625,4.218012831830978,1.0402602361369877,2.4970652377814053
1761338328289478700,5.844478759765625,3.9744793852776286,0.8774016240153462,2.1163057791434228
1761338328299544300,5.85454443359375,3.6140444833964107,0.8002892313055694,1.7239207646414636
1761338328309609500,5.864609375,3.0763398744642734,0.7153596620388328,1.4364244038514793
1761338328319675400,5.87467529296875,2.384221533411741,0.5190663978271186,1.200360708656907
1761338328329740500,5.884740478515625,1.6040022995799779,0.19759484832957386,1.0449440100390464
1761338328339806500,5.894806396484375,0.7691711855947971,-0.02231357514951378,0.9026835109185427
1761338328349872400,5.904872314453125,-0.32657705594301223,0.025343389565777034,0.7336556355774402
1761338328359937500,5.9149375,-1.4603887784153222,0.2519227056435309,0.6320669732589275
1761338328370003500,5.92500341796875,-2.438419572067261,0.5776356007715687,0.7485619666777551
1761338328380069400,5.9350693359375,-3.209511496591568,0.7167229132160544,0.86442107334584
1761338328390134300,5.94513427734375,-3.663174132746458,0.6790471164248884,0.7615930784907191
1761338328400200400,5.955200439453125,-3.749219262039661,0.5542929748352616,0.41283513386715204
1761338328410265300,5.965265380859375,-3.3427351411670445,0.21143117557819932,-0.199929757550545
1761338328420331500,5.97533154296875,-2.4084452895641326,-0.12080365039817988,-0.8025069073550403
1761338328430397400,5.9853974609375,-1.272476681318879,-0.2715226927191019,-1.155657132120803
1761338328440462300,5.99546240234375,-0.13603636390864848,-0.2581880131159909,-1.2139926359072326
1761338328450528300,6.0055283203125,0.8965402589231729,-0.2664686424662359,-0.9046930241100489
1761338328460593400,6.015593505859375,1.6421330005317925,-0.4477729570617899,-0.4556613356914371
1761338328470659600,6.02565966796875,2.088273424488306,-0.6405099535640328,-0.003060556614398956
1761338328480725500,6.0357255859375,2.2777461950302125,-0.6743580087605864,0.39516551206596195
1761338328490790400,6.045790283203125,2.3538299022793767,-0.6157352124653757,0.5370702930839732
1761338328500856300,6.055856201171875,2.314953935918212,-0.5500009036645293,0.6915631183225661
1761338328510921500,6.06592138671875,2.1578432197988033,-0.5752266034010798,0.8189259080406278
1761338328520987400,6.0759873046875,1.9390747966676949,-0.6469994617138057,0.6545811490144581
1761338328531053600,6.086053466796875,1.8412503822535276,-0.8116474414702505,0.09153024617340415
1761338328541118500,6.096118408203125,1.6235107176482677,-1.0235158759545535,-0.45393739797566085
1761338328551184400,6.106184326171875,1.2663070527732372,-1.2940277111306786,-0.8654565538734197
1761338328561249500,6.11624951171875,0.7960925102680921,-1.3694845186531543,-1.3911213270522653
1761338328571315500,6.1263154296875,0.2338333057940006,-1.2146968386538326,-1.8719331052869557
1761338328581381600,6.136381591796875,-0.434967872557044,-1.130287786129862,-2.066100171124935
1761338328591446300,6.1464462890625,-0.9033651365071534,-1.1875570489242673,-1.7870562891207635
1761338328601512400,6.156512451171875,-1.1821475910961627,-1.2366678474433719,-1.333342215039581
1761338328611578400,6.166578369140625,-1.399099320194125,-1.2576526216745376,-0.9423587378986179
1761338328621643500,6.1766435546875,-1.6011889957249164,-1.2650883246332407,-0.5524617408201098
1761338328631709400,6.18670947265625,-1.80694829967916,-1.2332315893843768,-0.1451199710716959
1761338328641774300,6.1967744140625,-1.965607998806238,-1.1170249113876372,0.2272387481008656
1761338328651840500,6.206840576171875,-2.124306860899925,-0.9810189426172524,0.5866351920461281
1761338328661906400,6.216906494140625,-2.2034090391874313,-0.8273832821972668,0.9383338662967086
1761338328671971600,6.2269716796875,-2.1917092490434644,-0.6723062638625502,1.1028107272699474
1761338328682037200,6.237037353515625,-1.9894144063293933,-0.519718431995064,0.9879148396108299
1761338328692102400,6.247102294921875,-1.6121563799411058,-0.3626072774842381,0.7060213403291999
1761338328702168600,6.25716845703125,-1.0662152730613945,-0.2139465193999931,0.16848573128841815
1761338328712234500,6.267234375,-0.5471773706763983,0.039266171255148946,-0.4887648195983842
1761338328722299400,6.27729931640625,-0.19740180997550485,0.08102854324020445,-0.7145536063529551
1761338328732365300,6.287365234375,0.10189444033205508,-0.07347955263275653,-0.4427424520812928
1761338328742430500,6.297430419921875,0.22622049270272254,-0.24389975911509243,-0.04554568991605192
1761338328752496400,6.307496337890625,-0.04028057246208191,-0.42050775085426867,0.39447435146402565
1761338328762562600,6.3175625,-0.5316027849256992,-0.31087413110490886,0.8172304292343556
1761338328772627500,6.32762744140625,-1.1058505333572626,0.01745462734363973,1.186358559854701
1761338328782693400,6.337693359375,-1.6171248160034417,0.37515400331374255,1.428540810994804
1761338328792759300,6.34775927734375,-1.9796026218891143,1.0191896102532745,1.8707398038491605
1761338328802824400,6.357824462890625,-2.1771756967782974,1.2510406561888754,2.1182558902978896
1761338328812890600,6.367890625,-2.0709002648830412,1.1544169958665966,1.7994747489280998
1761338328822955300,6.377955322265625,-1.7186586063295601,1.1090496216595171,1.2796774064779282
1761338328833021400,6.388021484375,-1.3177151684492825,1.0648499760575592,0.8462414196632801
1761338328843087400,6.39808740234375,-1.0081424387991427,0.967545493864268,0.4528699514072388
1761338328853152500,6.408152587890625,-0.6848901433646678,0.8912949786808341,0.2607185362406075
1761338328863218400,6.418218505859375,-0.2891974656194448,0.9087602735489606,0.377556936269626
1761338328873283300,6.428283447265625,0.16878303373456,0.9396950716473161,0.6317603184625507
1761338328883349500,6.438349609375,0.5391553922623396,0.958267085648328,0.8604699245672672
1761338328893415400,6.44841552734375,0.6316197409480809,1.174991362665966,1.044893302765116
1761338328903480600,6.45848046875,0.4735720362395048,1.427483118635416,1.0490162279140203
1761338328913546500,6.46854638671875,0.4664578203201294,1.5093451170250773,1.0432414439048618
1761338328923611400,6.478611328125,0.6754127054452895,1.4444830610141157,0.9960734500166029
1761338328933677300,6.48867724609375,0.9972855292201042,1.2168970521118492,0.9111424925103783
1761338328943743500,6.498743408203125,1.3561509898275137,0.9229955735199152,0.7896814011167734
1761338328953808600,6.50880859375,1.6495283714801072,0.6446130780339241,0.6792885239653289
1761338328963874300,6.518874267578125,1.7703052069365977,0.40864692492969334,0.6349645943965763
1761338328973939500,6.528939453125,1.68717742639482,0.2529956138383597,0.65640756072402
1761338328984005400,6.53900537109375,1.3305764035880565,0.20655542276799677,0.7030272730797529
1761338328994071600,6.549071533203125,0.6455471440136432,0.2841515804067254,0.7354311208173632
1761338329004136400,6.559136474609375,-0.25872283237874505,0.33397827211022374,0.7443580121818929
1761338329014202400,6.569202392578125,-1.0460627118706702,0.226360321298521,0.6585727759338915
1761338329024268300,6.579268310546875,-1.5603209787636994,0.322699885716103,0.47828255201801656
1761338329034333400,6.58933349609375,-1.9144412906706332,0.6287646437779069,0.4062164098471403
1761338329044399600,6.599399658203125,-1.9911971980929373,0.7335876849077642,0.31199184655584394
1761338329054464300,6.60946435546875,-1.6941946116805076,0.7280194563213735,-0.026540727857872842
1761338329064530400,6.619530517578125,-1.1332868218153715,0.7028736899532377,-0.3896619462136179
1761338329074596400,6.629596435546875,-0.5617705441743135,0.5522584002677351,-0.510908591138944
1761338329084661500,6.63966162109375,-0.026170214045047758,0.37839901311695573,-0.47003925900347526
1761338329094727400,6.6497275390625,0.4809463643997907,0.29088845091369003,-0.38491445942558344
1761338329104792300,6.659792236328125,0.9347112918853759,0.3359287851234898,-0.306540303151682
1761338329114858500,6.6698583984375,1.3040426169276236,0.4385519050562754,-0.1486633519001305
1761338329124924400,6.67992431640625,1.6127718814909457,0.5018490863706916,0.004142287436500192
1761338329134989600,6.689989501953125,1.8255618147343395,0.5168791169159114,0.11645904532261192
1761338329145055500,6.700055419921875,1.9387229144901037,0.3908135639341548,0.2016327255435288
1761338329155120400,6.710120361328125,1.8510393703401087,0.18350882063619792,0.16144458060525357
1761338329165186300,6.720186279296875,1.6098679767429829,0.027124153769016265,0.09009718116298317
1761338329175252500,6.73025244140625,1.3170184183567761,-0.057426955840457226,0.03788118317015469
1761338329185317600,6.740317626953125,0.9810480956465005,-0.011724449661187826,0.05427431876212358
1761338329195383600,6.750383544921875,0.5968512099057436,0.08215550144352018,0.08656433086171746
1761338329205449200,6.76044921875,0.2882055319726467,0.22655851075174285,0.08764759605377911
1761338329215514400,6.770514404296875,0.15330723218321798,0.4833999315643683,0.08383505202829837
1761338329225580500,6.78058056640625,0.13685352551043034,0.681777637367323,0.12400690341889857
1761338329235645400,6.7906455078125,0.192436881044507,0.6924458194412291,0.1315935591556132
1761338329245711400,6.80071142578125,0.3011187895596027,0.5922519724819809,0.1633478569433093
1761338329255777300,6.81077734375,0.368564432322979,0.3854453148992732,0.03816021930724382
1761338329265842400,6.820842529296875,0.39625849493443965,0.19982909192135556,-0.21283282253704963
1761338329275908400,6.830908447265625,0.35026246743500233,-0.02543545176340267,-0.5632091986753046
1761338329285973500,6.840973388671875,0.20082243207395076,-0.37391521876640615,-0.9141856595985591
1761338329296039400,6.851039306640625,0.01955050364434719,-0.6095001174680889,-1.1322600360509008
1761338329306105300,6.861105224609375,-0.18959552013874054,-0.5690568287249654,-1.2524997689560056
1761338329316170500,6.87117041015625,-0.3787245918095112,-0.4259645914880559,-1.2300398076057433
1761338329326236400,6.881236328125,-0.3868839328676462,-0.2999592990598641,-1.1391554946530609
1761338329336301300,6.89130126953125,-0.38184126252532,-0.41620830009467896,-1.2223667156945914
1761338329346367200,6.9013671875,-0.4579384137779474,-0.7633209982618689,-1.3997414174899458
1761338329356433400,6.911433349609375,-0.5439303515791892,-0.9238013369448482,-1.5919725468292831
1761338329366498600,6.92149853515625,-0.6098977384835481,-0.9475347522970289,-1.8060405371844768
1761338329376564500,6.931564453125,-0.6873112330317497,-1.0944302908070385,-2.0964546851173043
1761338329386630700,6.941630615234375,-0.7730266919791698,-0.9021177667945622,-1.9900999043755232
1761338329396695300,6.9516953125,-0.7820861967474222,-0.8112784620273857,-1.8580892888516187
1761338329406761500,6.961761474609375,-0.772925569692254,-0.3986696477293968,-1.6932824652716516
1761338329416826400,6.971826416015625,-0.6585346358805895,0.4008462611161172,-1.0314704151555896
1761338329426892500,6.981892578125,-0.5303156677246094,0.758273213353008,0.14704334948286413
1761338329436958500,6.99195849609375,-0.5377829348653554,0.2629998155781999,1.1051903889480978
1761338329447023400,7.0020234375,-0.22666882099211214,0.5150861325519159,1.3539783219635486
1761338329457089500,7.012089599609375,-0.0503062919139862,1.2248951381936668,1.3724031825788319
1761338329467154400,7.022154541015625,-0.24257950682938098,0.9017361470658332,1.5098057202741504
1761338329477220600,7.032220703125,-0.531146273329854,0.2821372449096292,1.6886771634332836
1761338329487286300,7.042286376953125,-0.8434399523764848,0.07982932351827621,1.8176234229505062
1761338329497351400,7.052351318359375,-1.1343874765336512,0.11929715482536703,1.8701240100383758
1761338329507417300,7.062417236328125,-1.311001934546232,0.14770798740405588,1.9094798688709735
1761338329517482500,7.072482421875,-1.270775722619891,-0.029872100770287215,1.7759794531807302
1761338329527548700,7.082548583984375,-1.2734347126960754,0.1390800607197918,1.1996341479480266
1761338329537614300,7.0926142578125,-1.9593015921384096,0.3730243708739057,0.6029670624375343
1761338329547679500,7.102679443359375,-2.4988071130126714,-0.09463802119670435,-0.22954532627649604
1761338329557745400,7.112745361328125,-2.3901947626024485,-0.2523788519131951,-1.2958258465938268
1761338329567810600,7.122810546875,-1.8715742088466882,0.29950404783934353,-2.4735996065199375
1761338329577876200,7.132876220703125,-1.042543890094757,1.041567884669453,-2.9026871888667345
1761338329587942400,7.1429423828125,-0.05635667799413204,1.3789600568763911,-2.168507821676135
1761338329598007600,7.153007568359375,0.9324158744245767,1.5749465932264923,-1.034750532804802
1761338329608073500,7.163073486328125,1.3669529543489216,1.6332875769056379,-0.08213022087179124
1761338329618138600,7.173138671875,1.379839908450842,1.511673998364061,0.5989175678510219
1761338329628204300,7.183204345703125,1.3692664919883013,1.4398819969594479,1.026466469388455
1761338329638270500,7.1932705078125,1.5033838705331086,1.3390103238038717,1.1779502855367958
1761338329648335400,7.20333544921875,1.6240630908340214,1.224108883186802,1.305372842618078
1761338329658401500,7.213401611328125,1.7783061425626276,1.2653484368741512,1.3797742958687245
1761338329668467500,7.223467529296875,2.0399854866594076,1.4175494613811372,1.2848473564617335
1761338329678532400,7.233532470703125,2.3459166449368,1.5335557214349507,1.0399962514385581
1761338329688598300,7.243598388671875,2.589547706645727,1.4521476042926311,0.6539315259993076
1761338329698663400,7.253663330078125,2.6465824300318954,1.2987743211358784,0.24065741619300096
1761338329708729600,7.2637294921875,2.375813770550489,1.210327099137008,-0.06535889961719513
1761338329718795500,7.27379541015625,1.8588900838404894,1.2305536023467778,-0.10056826976221055
1761338329728860400,7.2838603515625,1.2447884639263151,1.1140045406531542,0.031050277704186734
1761338329738926300,7.29392626953125,0.6589969926953315,0.9568363221928476,0.1957096191048622
1761338329748991500,7.303991455078125,0.21066519617438315,0.876194805508852,0.27304270536061376
1761338329759057400,7.314057373046875,-0.18887129751741885,0.8896244151201098,0.31285956930108366
1761338329769123600,7.32412353515625,-0.6038339083999396,0.9060439272623508,0.37761301383841783
1761338329779188500,7.3341884765625,-1.004427217668295,1.006604415576905,0.47007549936063586
1761338329789254400,7.34425439453125,-1.5047282708793879,1.1636989112138747,0.6071927173085511
1761338329799319600,7.354319580078125,-2.0874673688024283,1.1681390856184064,0.6451474041063339
1761338329809385500,7.364385498046875,-2.378606616139412,1.1000777951747178,0.6264546132698655
1761338329819451400,7.374451416015625,-2.3596418034285307,0.9863198985695838,0.4329245301611721
1761338329829516300,7.384516357421875,-2.118240108206868,0.7831527300003915,0.05988119885846972
1761338329839582500,7.39458251953125,-1.723726411113143,0.5296983395438641,-0.24192571909576652
1761338329849648400,7.4046484375,-1.3151976326704025,0.3183964529011398,-0.3789630036752671
1761338329859713500,7.414713623046875,-0.8528525083661079,0.11711118908841162,-0.4241151276964694
1761338329869779500,7.424779541015625,-0.39747839211821556,-0.0112125112338108,-0.4189575257375836
1761338329879844400,7.43484423828125,-0.008735679641366005,-0.021028357644565402,-0.47001923912875354
1761338329889910500,7.44491064453125,0.25164661038219927,-0.0054716911430470645,-0.550804475132376
1761338329899976400,7.4549765625,0.4111959518253803,-0.03478374687777832,-0.644549292082712
1761338329910041300,7.465041259765625,0.561405802515149,-0.06484914173046126,-0.7284935766391456
1761338329920107300,7.475107177734375,0.6552367633789777,-0.08573898595348001,-0.7849547379210591
1761338329930172700,7.485172607421875,0.610754063051939,-0.17403026847196743,-0.8534289930798112
1761338329940238600,7.495238525390625,0.557118334454298,-0.3233270411711186,-0.906717369544506
1761338329950304800,7.5053046875,0.49681905631422996,-0.4591469858501106,-0.8779993707127869
1761338329960369700,7.51536962890625,0.38042028981149195,-0.5093113120101392,-0.808887548302859
1761338329970435600,7.525435546875,0.22704349952340125,-0.5194271208982915,-0.763054164019227
1761338329980500700,7.535500732421875,0.07150573180913924,-0.514986033178307,-0.7434728268451988
1761338329990566700,7.545566650390625,-0.030515549772977827,-0.49526532406620677,-0.7509982539139688
1761338330000632800,7.5556328125,-0.2132154651790857,-0.4632812361106276,-0.7937131408508866
1761338330010697700,7.56569775390625,-0.3448386888206005,-0.39342096995357423,-0.6979409827914088
1761338330020763600,7.575763671875,-0.48341129320859905,-0.24742029792405665,-0.4392655697509646
1761338330030828800,7.585828857421875,-0.5923761103183031,0.07251342928064987,-0.19450037117926403
1761338330040894700,7.595894775390625,-0.5229553680896759,0.3770505211174488,0.03384712361479178
1761338330050960600,7.605960693359375,-0.3123813573300838,0.5541795775886624,0.245578049324546
1761338330061025500,7.616025634765625,-0.055390463310480115,0.6706058166202158,0.40231443397253747
1761338330071091700,7.626091796875,0.14270049797296525,0.7155355300623923,0.48623369368556885
1761338330081157600,7.63615771484375,0.28047756806910035,0.721175508710742,0.47949572720006106
1761338330091222800,7.646222900390625,0.26452187404632566,0.7218665597148239,0.456139912988618
1761338330101288400,7.656288330078125,0.047343934977054594,0.7315851129136979,0.4829708559647202
1761338330111353600,7.666353515625,-0.39568800157010553,0.7588863768152893,0.42578021136447786
1761338330121419800,7.676419677734375,-0.8104208953499793,0.8110616774715482,0.32410029056593775
1761338330131485700,7.686485595703125,-1.0721294655412434,0.8720167891718447,0.11399612580779939
1761338330141550600,7.696550537109375,-1.143179854798317,0.8583606773283332,-0.12485939206238836
1761338330151616500,7.706616455078125,-1.0033797544419765,0.7255845573246479,-0.4465138238461688
1761338330161681700,7.716681640625,-0.629704262715578,0.6228342308156192,-0.8115288565918802
1761338330171747600,7.72674755859375,-0.18202713071107862,0.6201302325539291,-1.1243280009426175
1761338330181813800,7.736813720703125,0.21731530171334743,0.5701122925946489,-1.226855040089786
1761338330191878700,7.746878662109375,0.3489040385633707,0.473686821725592,-0.9605128187485039
1761338330201944600,7.756944580078125,0.17902093463242053,0.5286295412685722,-0.5682347352197393
1761338330212009700,7.767009765625,-0.2156605202436447,0.8745837170504033,-0.4171989550998434
1761338330222075600,7.77707568359375,-0.5301905800402165,1.0801979865107685,-0.3013481413360685
1761338330232141800,7.787141845703125,-0.6888795052617788,1.1247247451752425,-0.14887728691175578
1761338330242206500,7.79720654296875,-0.8687035729706287,1.1870208962209523,0.006816182820871472
1761338330252272600,7.807272705078125,-0.9480956741154193,1.2902759573817253,0.04979918264206499
1761338330262337800,7.817337890625,-0.7240472647547721,1.5939581676885484,-0.1287420787146315
1761338330272403700,7.82740380859375,-0.3486234680563211,1.7728357483275234,-0.575169868245162
1761338330282469600,7.8374697265625,0.2126888109564781,1.8161897368855773,-1.1131298036452382
1761338330292534500,7.847534423828125,0.7820669075250625,1.8800547446832059,-1.362739428307116
1761338330302600700,7.8576005859375,1.1571142721265553,1.7390439533628523,-1.2071277916390448
1761338330312665600,7.86766552734375,1.0736042142689228,1.514803528561443,-0.8938856527611613
1761338330322731800,7.877731689453125,0.6786404353201388,1.3364805130653084,-0.7831666854605078
1761338330332797700,7.887797607421875,0.15466507653295994,1.4599369429945945,-0.6539353984568268
1761338330342862600,7.897862548828125,-0.48329029717743394,1.6207810004234313,-0.3768893392063677
1761338330352928500,7.907928466796875,-1.1718249345242977,1.8458115526892245,-0.026143252972885965
1761338330362994700,7.91799462890625,-1.790280657994747,2.1015581457361576,0.4940784523691982
1761338330373059800,7.928059814453125,-2.137554465007782,2.332831537914276,1.1120477805621922
1761338330383125500,7.93812548828125,-2.1853853067189455,2.4282576590150593,1.5632196228146553
1761338330393190700,7.948190673828125,-1.9249480716377496,2.361376079875231,1.7883362459287047
1761338330403256600,7.958256591796875,-1.4598042565256357,2.1493480709150434,1.7472613082185386
1761338330413322800,7.96832275390625,-0.8688321677863597,1.8475430526569485,1.5116770671039819
1761338330423387600,7.9783876953125,-0.15664192956387996,1.6106673104271292,1.289919252898544
1761338330433453600,7.98845361328125,0.41629532079100606,1.480908127091825,1.168884789419174
1761338330443518700,7.998518798828125,0.9036410308390855,1.4573421041958032,1.2272468158863483
1761338330453584600,8.008584716796875,0.9080068248331546,1.5192241214826703,1.2219107886206357
1761338330463649800,8.01864990234375,1.2609130847752092,1.560181570293009,1.3216919631257653
1761338330473715500,8.028715576171875,1.533993528330326,1.509938699004054,1.2289696941561996
1761338330483781600,8.03878173828125,1.7961270459353922,1.294289869198203,0.9537484391801059
1761338330493846500,8.048846435546874,1.9764333442032336,0.9696066641777753,0.5843831388030201
1761338330503912700,8.05891259765625,2.0054384894132613,0.7273471830829977,0.271126240747422
1761338330513977900,8.068977783203126,1.837377924734354,0.5413280235936865,0.08447130410522222
1761338330524043500,8.07904345703125,1.5048469288229942,0.4663308694722131,0.12257650528959929
1761338330534109700,8.089109619140626,1.0565829368412494,0.5616209796357899,0.2563937318440527
1761338330544174600,8.099174560546874,0.5538461809158325,0.6786084327466786,0.372230480549857
1761338330554240800,8.10924072265625,0.026734277668595312,0.6778392750050872,0.33075331871435043
1761338330564305700,8.1193056640625,-0.33102468300163745,0.6108501438375562,0.13686773669887334
1761338330574371600,8.12937158203125,-0.48412674800157546,0.5523774235375225,-0.0733065706860274
1761338330584437500,8.1394375,-0.4975105457097292,0.59954351772964,-0.18181323223207144
1761338330594502700,8.149502685546874,-0.35056524977385994,0.7035024163108319,-0.11733407459147274
1761338330604568800,8.15956884765625,-0.05197276382148266,0.6413957234226166,-0.08349752716962247
1761338330614634800,8.169634765625,0.30207682093679905,0.4752057018559426,-0.30701394854541864
1761338330624699600,8.17969970703125,0.7452104642927646,0.23605609641000627,-0.7179565466642379
1761338330634765600,8.189765625,1.2043079849779605,-0.01735964253656566,-1.1413595075033605
1761338330644830700,8.199830810546874,1.5414830073028802,-0.34523535998798904,-1.5313107189871369
1761338330654896600,8.209896728515625,1.7710253379046916,-0.6150882197987287,-1.8628879213050007
1761338330664962800,8.219962890625,1.8642846363604069,-0.8890357285119592,-2.1781877964302896
1761338330675027700,8.23002783203125,1.8627584497064351,-1.138427691835165,-2.4468634291552007
1761338330685093600,8.24009375,1.7386545156538487,-1.4343049274794757,-2.6598753345862027
1761338330695158800,8.25015869140625,1.4992080461531876,-1.5798507318809627,-2.7415464865788817
1761338330705224700,8.260224609375,1.1734060662358998,-1.397043410577625,-2.73500334854573
1761338330715290600,8.27029052734375,0.7345879479914903,-1.0620794884309173,-2.5164310325086117
1761338330725355500,8.28035546875,0.15942600732445716,-0.7277662122126668,-2.2413760740101334
1761338330735421700,8.290421630859376,-0.47268005583584305,-0.5039578952182084,-2.0325696574449537
1761338330745486800,8.30048681640625,-1.0684089837133883,-0.4372911278728395,-2.0222659978345034
1761338330755552800,8.310552734375,-1.5103262370169162,-0.5090854673650116,-2.2312515703588724
1761338330765618700,8.32061865234375,-1.786254471218586,-0.6431229125414043,-2.545124627551436
1761338330775683600,8.33068359375,-1.9748235709190367,-0.6507508501365781,-2.803165615145862
1761338330785749800,8.340749755859376,-2.080608004426956,-0.4492689312405884,-2.8804075525194404
1761338330795814700,8.350814697265625,-2.0442174251407383,0.18287720820177344,-2.354876488722861
1761338330805880600,8.360880615234375,-1.8885113151222466,0.5188936716087162,-1.8797069541588425
1761338330815946500,8.370946533203124,-1.7666051833748817,0.8341321719355881,-1.2857605257838964
1761338330826011600,8.38101171875,-1.4735855291187763,1.455100024357438,-0.4868328651551157
1761338330836077600,8.39107763671875,-0.9557499882608651,2.1555875498265027,0.14838475415445862
1761338330846143700,8.401143798828125,-0.38268940378725524,2.535229841002822,0.523439936736226
1761338330856208600,8.411208740234375,-0.03645020051896572,2.4312613708756863,0.9856829889055341
1761338330866274600,8.421274658203124,0.05418284108638763,2.1744369194641706,1.479503813251853
1761338330876340700,8.4313408203125,-0.5216904627203941,1.4897861378133297,1.9772107583165168
1761338330886406700,8.44140673828125,-1.028983566775918,1.3284713941328228,1.8659265583485365
1761338330896471800,8.451471923828125,-1.411912040016055,1.4224069844149052,1.578440280561149
1761338330906537700,8.461537841796876,-1.5343044939756392,1.7084788653597234,1.2612021308496593
1761338330916602600,8.4716025390625,-1.4310603926002978,1.9332713710859417,1.117524604538083
1761338330926668300,8.481668212890625,-1.211873451796174,2.012341400669515,1.0654051987875253
1761338330936734500,8.491734375,-0.9248165053367614,1.9524775913372634,0.80890661832951
1761338330946799600,8.501799560546875,-0.3824275379806757,1.8623335022926328,0.2138392231006175
1761338330956865300,8.511865234375,0.44184535711109635,1.7863354275003074,-0.503628151807189
1761338330966930400,8.521930419921874,1.338091601523757,1.6471800547882913,-1.1449866119593382
1761338330976996400,8.531996337890625,2.2891899645864964,1.4295488189935683,-1.8602029200047254
1761338330987062500,8.5420625,3.2051275824189185,1.7138940222762524,-2.4929613095939156
1761338330997127200,8.552127197265625,3.893984875848889,1.64937829548493,-2.321284161853045
1761338331007193300,8.562193359375,4.170298894497752,1.3141801261909305,-1.7012626503705977
1761338331017258500,8.572258544921874,4.012428884443641,1.5256652604460714,-1.3888956138268111
1761338331027324400,8.582324462890625,3.3321769222736357,1.5299991979971528,-1.0019291172422469
1761338331037390600,8.592390625,2.5685335601896044,1.3543746278047561,-0.5652826439484954
1761338331047455200,8.602455322265625,1.8076152391552924,1.2260283800072966,-0.33718970843739804
1761338331057521400,8.612521484375,1.0702601645380259,1.1875588024899362,-0.15146737647019326
1761338331067587300,8.62258740234375,0.3013677958846092,1.1016059545900672,0.19024470476247368
1761338331077652500,8.632652587890625,-0.4596463867396116,1.042566759513691,0.5344278522837906
1761338331087718400,8.642718505859374,-1.203855565035343,1.137831625638157,0.6912861280120909
1761338331097783300,8.652783203125,-1.8447803099453448,1.191019902729243,0.717533718142286
1761338331107849500,8.662849365234376,-2.3141747682392597,1.1539948249317704,0.6817038414787501
1761338331117915400,8.672915283203125,-2.681042918038368,1.0995659001298248,0.5128288916770368
1761338331127980500,8.68298046875,-2.789523166501522,0.9925116658817976,0.28192352909371254
1761338331138046500,8.69304638671875,-2.5835417442291972,0.8702070363361388,0.06126936528123915
1761338331148111400,8.703111328125,-2.104545929375291,0.7953035518474877,-0.1539446533039212
1761338331158177300,8.71317724609375,-1.5033493837416172,0.7214424160186201,-0.27852921048030255
1761338331168243500,8.723243408203125,-1.033013845205307,0.6466666495628655,-0.3897589037820697
1761338331178308600,8.73330859375,-0.6273527311533689,0.722805448000133,-0.3532449173118919
1761338331188374500,8.74337451171875,-0.4010778779149055,0.9217531722433865,-0.0011748159330338239
1761338331198439400,8.753439453125,-0.3462064700424671,1.1508322692476212,0.4249393766261637
1761338331208505300,8.76350537109375,-0.24997195516824722,1.4254755782052875,0.8749709628023207
1761338331218571500,8.773571533203125,-0.08491349491477013,1.5590101884260772,1.2180236449889839
1761338331228636400,8.783636474609375,0.13938450529277324,1.3892583096593618,1.3428791280612349
1761338331238702300,8.793702392578124,0.37689620733857154,0.9645162091709673,1.2353843835040925
1761338331248767500,8.803767578125,0.5510013128787279,0.4919156117795035,0.9574472206328064
1761338331258833400,8.81383349609375,0.5762725322574377,0.13749934913329778,0.7162230739351362
1761338331268899300,8.8238994140625,0.40713235564827915,-0.09465917358258738,0.5085676540359855
1761338331278964500,8.833964599609375,0.15908698462843893,-0.3193880212217569,0.30168592192307114
1761338331289030400,8.844030517578124,-0.16032266390323638,-0.42431254996471107,0.08041976369209587
1761338331299096300,8.854096435546875,-0.3614730127573013,-0.4229762233270332,-0.09791947228647768
1761338331309161500,8.864161376953126,-0.43259120655357836,-0.36306696741785854,-0.17169307596236466
1761338331319227400,8.874227294921875,-0.42566403763890265,-0.35430056384466585,-0.1490657221559435
1761338331329292300,8.884292236328125,-0.4088397440880537,-0.3832640618700534,-0.09043846888132392
1761338331339358200,8.894358154296874,-0.3937678471624851,-0.39254963047914204,-0.10137034339271485
1761338331349424400,8.90442431640625,-0.36098259889185424,-0.4534025969792157,-0.1986522484280169
1761338331359489500,8.914489501953126,-0.35840368831455705,-0.4996378035293892,-0.3601591536797583
1761338331369555500,8.924555419921875,-0.3125689888566732,-0.5414046690264717,-0.5111992446485907
1761338331379620400,8.934620361328125,-0.195038587975502,-0.5331206421427428,-0.5040630360931158
1761338331389686300,8.944686279296874,-0.020673954716324806,-0.5451712550183758,-0.4247413698360324
1761338331399752400,8.95475244140625,0.16331249336898326,-0.44384358172360805,-0.2708417612502351
1761338331409817300,8.9648173828125,0.2551929046869278,-0.17534611857719717,-0.007775712035410106
1761338331419883500,8.974883544921875,0.22483809843361377,0.043455585769005114,0.2640531970886513
1761338331429948400,8.984948486328125,0.16988427297472952,0.17406375061646104,0.476080950320512
1761338331440014300,8.995014404296874,0.12433891185224055,0.31934191705770787,0.5762841496299952
1761338331450080500,9.00508056640625,0.07840250558555126,0.37494266211800276,0.5251906163284554
1761338331460145400,9.0151455078125,0.09771861595213413,0.2151320393901318,0.3253326088398695
1761338331470211600,9.025211669921875,0.08774024277329444,0.018254253288730978,-0.031743922524154186
1761338331480276200,9.035276123046875,-0.018531681990623473,-0.21234808949371797,-0.48553405751623213
1761338331490342400,9.04534228515625,-0.20403788698911665,-0.43861032071262596,-0.9380012733414769
1761338331500408300,9.055408203125,-0.4248012833297252,-0.46296464444212615,-1.3244503219231962
1761338331510473500,9.065473388671874,-0.37538755634129045,-0.6054322835072875,-1.7140163334816694
1761338331520539600,9.07553955078125,0.025877953100204465,-0.5215768828107044,-2.034702139429003
1761338331530605300,9.085605224609376,0.54624155113101,-0.25202055826112624,-2.357759350682795
1761338331540670500,9.09567041015625,0.9183253897517919,-0.12381178270559758,-2.5250638362973925
1761338331550736400,9.105736328125,1.0244470923900604,-0.15734039668943733,-2.4597201342493293
1761338331560801500,9.115801513671874,0.7541144862383604,-0.3561132392898202,-2.166747534005344
1761338331570867200,9.1258671875,0.040087680238485336,-0.5445341626912356,-1.7487281659007072
1761338331580933400,9.135933349609376,-0.8479694124996662,-0.46274332984164357,-1.3117571368277072
1761338331590998500,9.14599853515625,-1.7514146285057066,-0.1470886316630058,-0.8737514309447258
1761338331601064400,9.156064453125,-2.524115741792321,0.21028967739287763,-0.2825506480161101
1761338331611129300,9.16612939453125,-3.048966129848361,0.6421021181263029,0.3350431248627603
1761338331621195300,9.1761953125,-3.1590731027305123,1.0990108965955674,0.918465090483427
1761338331631261400,9.186261474609376,-2.990575900200009,1.2962404187440872,1.6130261485129593
1761338331641326300,9.196326416015625,-2.657855519196391,1.4172472635641693,2.124312413857877
1761338331651392500,9.206392578125,-2.0697002414435146,1.6229267802804708,2.362261630538106
1761338331661457400,9.21645751953125,-1.3608207352042196,1.800889876423031,2.2906975926704702
1761338331671523300,9.2265234375,-0.6006704759329557,1.7290167726062238,2.0179658164225516
1761338331681589200,9.23658935546875,0.2235468895792961,1.3501315834075212,1.6303807495482265
1761338331691654400,9.246654296875,0.978393197223544,1.1477198363155126,1.2490673102892935
1761338331701720600,9.256720458984375,1.451383049660921,1.0374382375188171,0.8529317841473967
1761338331711785200,9.26678515625,1.7873878591626882,0.9702719962187111,0.49922429082505404
1761338331721851400,9.276851318359375,2.002779499337077,1.101038529965654,0.21725465756729245
1761338331731917300,9.286917236328126,2.197657928314805,1.278640464645624,-0.038721579517051574
1761338331741982500,9.296982421875,2.3788959544748067,1.3695755579374729,-0.2820190253574401
1761338331752048400,9.30704833984375,2.500481183704734,1.4273046933285891,-0.4350158033519983
1761338331762113300,9.31711328125,2.535237439787388,1.5080506933003663,-0.5099238178852945
1761338331772179500,9.327179443359375,2.435304654917121,1.6118727406941353,-0.48096126970797776
1761338331782245400,9.337245361328126,2.096799845293164,1.756318036507815,-0.2879606903661042
1761338331792310500,9.347310546875,1.6659359009236097,1.8327954192496836,0.05295768320560455
1761338331802376400,9.35737646484375,1.232052900993824,1.7978471477262674,0.38130671725720167
1761338331812442400,9.3674423828125,0.6748574096500873,1.7988246144562958,0.5944537203099578
1761338331822507300,9.37750732421875,0.057490065938234323,1.811692863857746,0.6831692378561943
1761338331832573400,9.387573486328124,-0.5089011237740516,1.704627596759051,0.8107717546142638
1761338331842638600,9.397638671875,-0.9638216510355472,1.4297687453545629,0.8808378820743411
1761338331852704300,9.407704345703126,-1.2407599390625952,1.0470361600127072,0.8890728456519543
1761338331862770400,9.4177705078125,-1.3635966296583413,0.6359810779627412,0.890004646609351
1761338331872835300,9.42783544921875,-1.4104688554704188,0.2659815348027274,0.8546502785030752
1761338331882901500,9.437901611328124,-1.4656296016782522,-0.12217844588272272,0.660799000615999
1761338331892966400,9.44796630859375,-1.4620084885716438,-0.45564018330555406,0.25255309423524885
1761338331903032300,9.4580322265625,-1.329831138178706,-0.7337170834410935,-0.26551417301930486
1761338331913098200,9.46809814453125,-1.10973468131423,-0.9867536138117313,-0.8297662318110466
1761338331923163100,9.4781630859375,-0.7433645441651344,-1.2145884098432957,-1.359853935998678
1761338331933229300,9.488229248046874,-0.2614823602199554,-1.3384322316549717,-1.745037786950171
1761338331943294000,9.4982939453125,0.2775187182635069,-1.3412512345984577,-1.896556382150948
1761338331953360100,9.508360107421876,0.7919733845114707,-1.2868509513691067,-1.8675864543847738
1761338331963426000,9.518426025390625,1.2397995695978403,-1.2129649002946912,-1.7523387576133012
1761338331973491200,9.5284912109375,1.5070207657307386,-1.1338823034904897,-1.549256563913822
1761338331983557000,9.53855712890625,1.5481781210273504,-1.0617116780318319,-1.3397833540029822
1761338331993622000,9.5486220703125,1.4450918405622244,-0.9854103825092315,-1.199366071596369
1761338332003688200,9.558688232421876,1.1846826625317335,-0.9074657767590135,-1.0444912978354841
1761338332013754000,9.568754150390625,0.8120195627182721,-0.8236680610664189,-0.9007581688791513
1761338332023819300,9.5788193359375,0.3985422219574451,-0.7432735779460519,-0.8271186399117112
1761338332033885200,9.58888525390625,-0.0891664761841297,-0.6542609771493823,-0.7862484309934079
1761338332043950000,9.5989501953125,-0.5707447087466716,-0.6201373929470777,-0.7311029554199427
1761338332054016000,9.60901611328125,-0.9276420841515064,-0.6501409746099263,-0.6509155391789972
1761338332064082200,9.619082275390625,-1.1079296777188776,-0.609827668922022,-0.5532997990794479
1761338332074147300,9.629147216796875,-1.216662439638376,-0.5304260692965239,-0.512087279529497
1761338332084213200,9.639213134765624,-1.3895494015604257,-0.5694694281138479,-0.5246815342951565
1761338332094278100,9.649278076171875,-1.4683184023708105,-0.6657714552663266,-0.6509679269533604
1761338332104344000,9.659343994140626,-1.41611767501235,-0.7677761510398239,-0.8448052493803203
1761338332114410200,9.66941015625,-1.2994471058309078,-0.8643626942221074,-1.0366870538253337
1761338332124475100,9.67947509765625,-1.1108335824668407,-0.8947288255870341,-1.124059267003834
1761338332134541000,9.689541015625,-0.9808891056925058,-0.8749741046074777,-1.11272772565037
1761338332144607000,9.69960693359375,-0.8125210824996233,-0.9457884931515902,-1.1032547447104006
1761338332154672000,9.709672119140626,-0.6375245810776948,-1.0412906020980328,-1.1197778633575886
1761338332164738300,9.71973828125,-0.46882338040769095,-1.0021822882857172,-1.1772792544074355
1761338332174803200,9.72980322265625,-0.32257892621755596,-0.8991196078918874,-1.2133576990045607
1761338332184869000,9.739869140625,-0.19847966834008693,-0.744132386732474,-1.3008710011541842
1761338332194935000,9.74993505859375,-0.04623334338665008,-0.5846649514190853,-1.371639796990901
1761338332205000200,9.760000244140626,0.10183131196796893,-0.5637786691263318,-1.3539324369952082
1761338332215066000,9.770066162109375,0.28010288953781126,-0.3333873570123687,-1.4216744323566555
1761338332225131000,9.780131103515625,0.550837062227726,0.07882832978218793,-1.5858935191765426
1761338332235197200,9.790197265625,0.8908131134480237,0.6693005061753093,-1.5715616269633172
1761338332245263000,9.80026318359375,1.2115969729423521,1.3489512875817715,-1.30994760318771
1761338332255328300,9.810328369140626,1.2676473614662884,1.5807045722313224,-0.8388570815656333
1761338332265394200,9.820394287109375,1.18263742043972,1.764693212273717,-0.3746723207440227
1761338332275459000,9.830458984375,1.0602309379547834,1.9224547935172915,-0.12764752494357526
1761338332285525000,9.84052490234375,0.893158799791336,1.9388588158294557,0.004412482680007815
1761338332295591200,9.850591064453125,0.6439578289955854,1.8353981490939855,0.2019028477218002
1761338332305656300,9.86065625,0.2883668600142002,1.638196099474281,0.47829190436825153
1761338332315722200,9.87072216796875,-0.13593348805606364,1.4873501428380607,0.7154415681686251
1761338332325787100,9.880787109375,-0.4241927960425615,1.5604931204602122,0.8332097233284265
1761338332335853000,9.89085302734375,-0.5104734876573086,1.7549686677254734,0.9821745423931628
1761338332345919200,9.900919189453125,-0.7020072823822497,1.8439071803726255,1.1262033663604407
1761338332355984100,9.910984130859376,-1.1356558890342712,1.8793316911056637,1.1261033400520681
1761338332366050300,9.92105029296875,-1.7387603141158818,1.9926777920395136,1.1357074000257998
1761338332376115200,9.931115234375,-1.9101058918148277,2.053079799901694,1.291951197117567
1761338332386181000,9.94118115234375,-1.5194500391930341,2.020765530143678,1.445088917952776
1761338332396247000,9.9512470703125,-0.6783335613280534,1.8092615450575946,1.3041589367836712
1761338332406312200,9.961312255859376,0.29647593218982216,1.6174252602547405,0.982702438724786
1761338332416378400,9.97137841796875,1.238464521601796,1.3774296324387192,0.5554230748437344
1761338332426443000,9.981443115234375,2.0778210040569305,1.1055514042802155,0.12585391952507197
1761338332436509200,9.99150927734375,2.685632583916187,0.8343999560263008,-0.15667758539915083
1761338332446575000,10.0015751953125,3.1414597046285864,0.6670558690536766,-0.34552977635730053
1761338332456640300,10.01164013671875,3.4021471150785683,0.6102032242361456,-0.44631826474145053
1761338332466706000,10.021705810546875,3.3000580289572476,0.5093775091141463,-0.5464547189576551
1761338332476771000,10.03177099609375,2.864859270253777,0.46654005524348463,-0.6508844133883714
1761338332486837200,10.041837158203125,2.263113858565688,0.3829478355277329,-0.7937054690010845
1761338332496903200,10.051903076171875,1.6150976940900086,0.14283639931231737,-0.8798438295356928
1761338332506968300,10.06196826171875,1.0393617529273032,-0.16695296876318752,-0.7722650599569082
1761338332517034000,10.072033935546875,0.5438233840733766,-0.2430786519905552,-0.5193891269754618
1761338332527099100,10.08209912109375,0.015361819782853125,-0.17288104363791643,-0.28580102811418473
1761338332537165000,10.0921650390625,-0.859959710022807,-0.09678506142906844,0.03107866354845464
1761338332547231200,10.102231201171875,-1.8630401892572641,-0.08349274139665067,0.2606538004413247
1761338332557296000,10.112296142578124,-2.695552504906058,-0.1553743207808584,0.3074847443949431
1761338332567362000,10.122362060546875,-3.206584795489907,-0.25833865536674855,0.2355073034208268
1761338332577428200,10.13242822265625,-3.3265988298803566,-0.25196108315885063,0.11488229752518236
1761338332587493000,10.1424931640625,-3.102081633964181,-0.2360968668118119,0.0407456326905638
1761338332597559300,10.152559326171875,-2.728425431460142,-0.22812793375924229,0.08080766703113913
1761338332607624000,10.1626240234375,-2.3247136979103087,-0.2537202017858624,0.03402001422997564
1761338332617690000,10.172690185546875,-1.7022668589770793,-0.3335064168147743,-0.1432626253677532
1761338332627756000,10.182756103515626,-0.9287222806036471,-0.4095660125359893,-0.28483974533397705
1761338332637821200,10.1928212890625,-0.29920564941465855,-0.465530622472614,-0.32900530600324274
1761338332647887000,10.20288720703125,0.1454255390226841,-0.5409544045083224,-0.34518892703037707
1761338332657952000,10.212951904296874,0.5109457813441753,-0.6191897368334234,-0.33503530688248573
1761338332668018200,10.22301806640625,0.7297329091757535,-0.6532306842535733,-0.559764757309854
1761338332678084000,10.233083984375,0.7364999190926551,-0.7676420763313769,-0.943900633578375
1761338332688149200,10.243149169921875,0.4870049337863922,-0.9138860921300948,-1.4153348540715873
1761338332698215200,10.253215087890625,0.25717268032729623,-0.9301474911011754,-1.6830096391908824
1761338332708280000,10.263280029296874,0.2463163552701473,-0.836096530811116,-1.6582907929979265
1761338332718346200,10.27334619140625,0.4022112658590078,-0.7045908691346645,-1.5920204776242375
1761338332728412200,10.283412109375,0.556618568238616,-0.6182691879224032,-1.7406927434831856
1761338332738477300,10.293477294921875,0.6491857927769422,-0.8254732838574796,-1.8542586246475576
1761338332748543200,10.303543212890625,0.5585317083835601,-1.023460273309797,-2.0368882512964306
1761338332758608100,10.313608154296874,0.4249351388424635,-0.9094208563495427,-2.1007672876194117
1761338332768674000,10.323674072265625,0.37052024256587024,-0.7257407707996666,-1.8319979852616786
1761338332778740200,10.333740234375,0.38406712188124653,-0.538802048780024,-1.398410607277602
1761338332788805000,10.34380517578125,0.37124329614341256,-0.19671053977571426,-0.9554963057607412
1761338332798871000,10.35387109375,0.24592764821350574,-0.23235051989033817,-0.4080305465970188
