time,seconds_elapsed,z,y,x
1761338322521883600,0.076883544921875,-1.1482208967208862,-0.5300217866897583,0.04830097407102585
1761338322531948800,0.08694873046875,-1.105790376663208,-0.360702246427536,0.010759457014501095
1761338322542014700,0.0970146484375,-1.0565589666366577,-0.16281530261039734,-0.041544947773218155
1761338322552081000,0.107080810546875,-1.0189628601074219,0.043214283883571625,-0.09048639237880707
1761338322562145800,0.117145751953125,-1.008723497390747,0.24763479828834534,-0.12410001456737518
1761338322572211700,0.127211669921875,-1.003629207611084,0.41821613907814026,-0.12572453916072845
1761338322582276900,0.13727685546875,-0.9885556101799011,0.5245177149772644,-0.09823337197303772
1761338322592342800,0.1473427734375,-0.9417518973350525,0.6224192380905151,-0.011580505408346653
1761338322602409000,0.157408935546875,-0.8559225797653198,0.7385088801383972,0.12046874314546585
1761338322612473600,0.1674736328125,-0.7445691823959351,0.810108482837677,0.2848441004753113
1761338322622539800,0.177539794921875,-0.6089330911636353,0.7987260818481445,0.4520275294780731
1761338322632605000,0.18760498046875,-0.4684912860393524,0.7176964282989502,0.5979551672935486
1761338322642670800,0.1976708984375,-0.32237568497657776,0.5534161925315857,0.6905764937400818
1761338322652736800,0.20773681640625,-0.19212447106838226,0.3006981909275055,0.7086007595062256
1761338322662801700,0.2178017578125,-0.06885148584842682,0.013638133183121681,0.6799142360687256
1761338322672867800,0.227867919921875,0.02815042994916439,-0.30212780833244324,0.622803807258606
1761338322682932700,0.2379326171875,0.07549331337213516,-0.6142917275428772,0.5715718865394592
1761338322692999000,0.2479990234375,0.061885617673397064,-0.8625414967536926,0.5465355515480042
1761338322703064600,0.258064697265625,-0.002335328608751297,-0.996485710144043,0.5617423057556152
1761338322713129700,0.268129638671875,-0.10886815935373306,-0.9823808670043945,0.6195464730262756
1761338322723196000,0.27819580078125,-0.25048086047172546,-0.8389992713928223,0.7066717147827148
1761338322733261800,0.28826171875,-0.4145592749118805,-0.5987991690635681,0.7903546094894409
1761338322743326700,0.29832666015625,-0.554247260093689,-0.35035160183906555,0.8310127854347229
1761338322753392600,0.308392578125,-0.6452264785766602,-0.17457923293113708,0.8134865164756775
1761338322763457800,0.318457763671875,-0.6732226610183716,-0.001546984538435936,0.7720237374305725
1761338322773523700,0.328523681640625,-0.6490054726600647,0.15395551919937134,0.7086546421051025
1761338322783590000,0.33858984375,-0.5762554407119751,0.28851160407066345,0.6299508213996887
1761338322793654800,0.34865478515625,-0.46370014548301697,0.45113804936408997,0.5573921799659729
1761338322803720700,0.358720703125,-0.31738680601119995,0.605499267578125,0.4686843752861023
1761338322813785900,0.368785888671875,-0.1502918154001236,0.6268429160118103,0.36988750100135803
1761338322823851800,0.378851806640625,0.008734366856515408,0.46642735600471497,0.2700519263744354
1761338322833918000,0.38891796875,0.10928680002689362,0.21811872720718384,0.14850017428398132
1761338322843982600,0.398982666015625,0.15820707380771637,-0.012338081374764442,0.03504300117492676
1761338322854048800,0.409048828125,0.16271740198135376,-0.17424416542053223,-0.060949839651584625
1761338322864114000,0.419114013671875,0.14773687720298767,-0.2982877194881439,-0.1398364156484604
1761338322874179800,0.429179931640625,0.12221634387969971,-0.36070582270622253,-0.18982262909412384
1761338322884245800,0.439245849609375,0.0867709368467331,-0.3363942801952362,-0.24269136786460876
1761338322894310700,0.449310546875,0.017002509906888008,-0.21817976236343384,-0.3077593147754669
1761338322904376800,0.459376953125,-0.08095257729291916,-0.016104193404316902,-0.3921532928943634
1761338322914442800,0.46944287109375,-0.14176346361637115,0.25388386845588684,-0.4991559088230133
1761338322924508000,0.4795078125,-0.11659056693315506,0.5237893462181091,-0.6067304611206055
1761338322934573800,0.48957373046875,-0.02548355981707573,0.764530599117279,-0.7160313725471497
1761338322944638700,0.499638671875,0.0696486160159111,0.9220794439315796,-0.8104578256607056
1761338322954704600,0.50970458984375,0.13728012144565582,0.9438475966453552,-0.8712967038154602
1761338322964770800,0.519770751953125,0.16464382410049438,0.9385954737663269,-0.8780840039253235
1761338322974836000,0.5298359375,0.13820582628250122,0.9469937682151794,-0.8183538317680359
1761338322984901600,0.539901611328125,0.08940019458532333,0.9825921654701233,-0.735508143901825
1761338322994966800,0.549966796875,0.03203330934047699,0.9924155473709106,-0.6745577454566956
1761338323005032700,0.56003271484375,-0.02815818041563034,0.9167168140411377,-0.6889707446098328
1761338323015099000,0.570098876953125,-0.05637010931968689,0.7661393284797668,-0.7710272669792175
1761338323025163800,0.580163818359375,-0.07034258544445038,0.599065363407135,-0.8330672383308411
1761338323035229700,0.590229736328125,-0.0707138255238533,0.4650624990463257,-0.8670496940612793
1761338323045295600,0.600295654296875,-0.059331100434064865,0.3341735601425171,-0.8422268033027649
1761338323055360800,0.61036083984375,-0.020932575687766075,0.2640115022659302,-0.7784110307693481
1761338323065427000,0.620427001953125,0.05371911823749542,0.22458745539188385,-0.6939905285835266
1761338323075491600,0.63049169921875,0.16034597158432007,0.14968152344226837,-0.6175506114959717
1761338323085557800,0.640557861328125,0.2976485788822174,0.009479785338044167,-0.5683198571205139
1761338323095623700,0.650623779296875,0.4482889473438263,-0.13469576835632324,-0.5511717796325684
1761338323105688800,0.660688720703125,0.5845146179199219,-0.2585897445678711,-0.5320925116539001
1761338323115754800,0.670754638671875,0.69859778881073,-0.3076387941837311,-0.534432053565979
1761338323125819600,0.680819580078125,0.7478051781654358,-0.25493159890174866,-0.46272504329681396
1761338323135885800,0.6908857421875,0.7413126826286316,-0.20344150066375732,-0.3443957269191742
1761338323145951700,0.70095166015625,0.6890327334403992,-0.21173782646656036,-0.16362042725086212
1761338323156017000,0.711016845703125,0.5958125591278076,-0.21586227416992188,0.03339916467666626
1761338323166082800,0.721082763671875,0.5124908089637756,-0.22885662317276,0.2174524962902069
1761338323176149000,0.73114892578125,0.5587600469589233,-0.2880871891975403,0.36233004927635193
1761338323186213600,0.741213623046875,0.6509023308753967,-0.2708527445793152,0.422506719827652
1761338323196279800,0.75127978515625,0.6252986788749695,-0.12580235302448273,0.35436150431632996
1761338323206345000,0.761344970703125,0.4103357791900635,0.005581486038863659,0.18663911521434784
1761338323216411000,0.771410888671875,0.05463680624961853,0.0030157966539263725,0.05636446550488472
1761338323226476500,0.7814765625,-0.35868412256240845,0.1103334128856659,-0.05848947912454605
1761338323236541700,0.791541748046875,-0.8556286096572876,0.3527631163597107,-0.19284996390342712
1761338323246608000,0.80160791015625,-1.2499278783798218,0.5189048051834106,-0.22975970804691315
1761338323256672800,0.8116728515625,-1.4639866352081299,0.5991394519805908,-0.19449545443058014
1761338323266739000,0.821739013671875,-1.4882055521011353,0.5672309994697571,-0.14455115795135498
1761338323276804600,0.8318046875,-1.400223970413208,0.441056489944458,-0.08691848814487457
1761338323286869800,0.841869873046875,-1.2383472919464111,0.2675820589065552,-0.03225596621632576
1761338323296935700,0.851935791015625,-1.0304169654846191,0.09784280508756638,0.03513079881668091
1761338323307000800,0.862000732421875,-0.7898420095443726,-0.033650197088718414,0.1155034676194191
1761338323317066800,0.872066650390625,-0.5372604131698608,-0.1713247001171112,0.1898336261510849
1761338323327132700,0.882132568359375,-0.325571209192276,-0.31724146008491516,0.2512769401073456
1761338323337197800,0.89219775390625,-0.3034656345844269,-0.40653350949287415,0.2858476936817169
1761338323347263700,0.902263671875,-0.5075569748878479,-0.40827682614326477,0.2686772346496582
1761338323357330000,0.912329833984375,-0.7867569327354431,-0.28422704339027405,0.16571193933486938
1761338323367394600,0.92239453125,-1.0420666933059692,-0.13462881743907928,-0.020745864138007164
1761338323377460700,0.932460693359375,-1.2853466272354126,-0.11852627992630005,-0.21207427978515625
1761338323387526000,0.94252587890625,-1.5041332244873047,-0.3084595799446106,-0.2972716987133026
1761338323397591800,0.952591796875,-1.6680171489715576,-0.5857383608818054,-0.24867886304855347
1761338323407658000,0.962657958984375,-1.7289783954620361,-0.7807161808013916,-0.10848183929920197
1761338323417722600,0.97272265625,-1.6690860986709595,-0.8360082507133484,0.06479620188474655
1761338323427788800,0.982788818359375,-1.5313717126846313,-0.804977297782898,0.2542738914489746
1761338323437853700,0.992853759765625,-1.2974088191986084,-0.7178841829299927,0.45061516761779785
1761338323447919900,1.002919921875,-1.0127246379852295,-0.6801580190658569,0.7038646340370178
1761338323457985800,1.01298583984375,-0.7141482830047607,-0.7198117971420288,1.0457247495651245
1761338323468050700,1.02305078125,-0.4540880620479584,-0.8209376335144043,1.4426687955856323
1761338323478116900,1.033116943359375,-0.2682947814464569,-0.9639123678207397,1.8152493238449097
1761338323488182800,1.043182861328125,-0.18947601318359375,-1.0685009956359863,2.0552754402160645
1761338323498248000,1.053248046875,-0.2562054991722107,-1.1072161197662354,2.0698916912078857
1761338323508313900,1.06331396484375,-0.4514055848121643,-1.0325846672058105,1.8285415172576904
1761338323518378800,1.073378662109375,-0.7348726987838745,-0.825300931930542,1.3624601364135742
1761338323528444700,1.083444580078125,-1.0347201824188232,-0.45590898394584656,0.7319477200508118
1761338323538510800,1.0935107421875,-1.2653861045837402,0.03234322741627693,0.034963857382535934
1761338323548576000,1.103575927734375,-1.42246675491333,0.49424514174461365,-0.6531429886817932
1761338323558641700,1.1136416015625,-1.5036239624023438,0.8206360340118408,-1.2222964763641357
1761338323568706800,1.123706787109375,-1.5442688465118408,0.909120500087738,-1.6066718101501465
1761338323578772700,1.133772705078125,-1.5371464490890503,0.7669841647148132,-1.7703547477722168
1761338323588839000,1.1438388671875,-1.4551414251327515,0.5234946012496948,-1.7086905241012573
1761338323598903800,1.15390380859375,-1.2744176387786865,0.31775400042533875,-1.4438663721084595
1761338323608969700,1.1639697265625,-1.0263252258300781,0.20278722047805786,-1.0626698732376099
1761338323619035600,1.17403564453125,-0.7580195069313049,0.19181951880455017,-0.6417151093482971
1761338323629100800,1.184100830078125,-0.5157841444015503,0.24793291091918945,-0.27163729071617126
1761338323639166700,1.194166748046875,-0.31377166509628296,0.39526161551475525,0.014418166130781174
1761338323649231600,1.204231689453125,-0.17177291214466095,0.5333014726638794,0.20727330446243286
1761338323659297800,1.2142978515625,-0.11703669279813766,0.6498379111289978,0.34049898386001587
1761338323669363700,1.22436376953125,-0.18312190473079681,0.7031564116477966,0.44297975301742554
1761338323679428900,1.234428955078125,-0.3666863739490509,0.6499068140983582,0.5384676456451416
1761338323689494800,1.244494873046875,-0.5639094710350037,0.511927604675293,0.5763695240020752
1761338323699559700,1.2545595703125,-0.7020830512046814,0.3781602680683136,0.5297969579696655
1761338323709625600,1.26462548828125,-0.7568085193634033,0.22745683789253235,0.42145758867263794
1761338323719691800,1.27469189453125,-0.7286890149116516,0.09581810235977173,0.32406100630760193
1761338323729757000,1.2847568359375,-0.6594928503036499,0.053491510450839996,0.258158415555954
1761338323739822800,1.29482275390625,-0.5684716105461121,0.031466368585824966,0.20290632545948029
1761338323749887700,1.3048876953125,-0.4706757366657257,-0.018710382282733917,0.12412331253290176
1761338323759953700,1.31495361328125,-0.37522566318511963,-0.04067906364798546,0.011262007057666779
1761338323770019800,1.325019775390625,-0.29598161578178406,-0.007457785774022341,-0.12573078274726868
1761338323780084700,1.335084716796875,-0.24448411166667938,0.055765919387340546,-0.2580113410949707
1761338323790151000,1.34515087890625,-0.2053784430027008,0.1474696397781372,-0.38172563910484314
1761338323800215800,1.3552158203125,-0.1721339374780655,0.23953670263290405,-0.47499725222587585
1761338323810281700,1.36528173828125,-0.12380215525627136,0.29552528262138367,-0.5250685811042786
1761338323820348000,1.375347900390625,-0.06265411525964737,0.29661184549331665,-0.5331957936286926
1761338323830412800,1.385412841796875,0.003539604600518942,0.2930965721607208,-0.5117680430412292
1761338323840479000,1.39547900390625,0.06537260860204697,0.32175007462501526,-0.4732794761657715
1761338323850544600,1.405544677734375,0.11389415711164474,0.39934733510017395,-0.46535345911979675
1761338323860609800,1.41560986328125,0.1500401645898819,0.4774290919303894,-0.4793153405189514
1761338323870675700,1.42567578125,0.16910718381404877,0.5554599761962891,-0.510833740234375
1761338323880740900,1.435740966796875,0.11947464942932129,0.59088134765625,-0.5061859488487244
1761338323890806800,1.445806884765625,-0.013012891635298729,0.5383983254432678,-0.40677860379219055
1761338323900872700,1.455872802734375,-0.1621570885181427,0.425238698720932,-0.22753773629665375
1761338323910937900,1.465937744140625,-0.2852606773376465,0.3512756824493408,-0.009650904685258865
1761338323921003800,1.476003662109375,-0.3599303960800171,0.24932587146759033,0.21497848629951477
1761338323931069000,1.48606884765625,-0.3830442428588867,0.08977777510881424,0.4345845878124237
1761338323941134800,1.496134765625,-0.3456079363822937,-0.06756950169801712,0.627730131149292
1761338323951201000,1.506200927734375,-0.2883867025375366,-0.2096366137266159,0.7982370853424072
1761338323961266000,1.516265869140625,-0.2618970274925232,-0.3287334442138672,0.9563133120536804
1761338323971331800,1.526331787109375,-0.2711527347564697,-0.4214925765991211,1.0888895988464355
1761338323981397000,1.53639697265625,-0.3040406405925751,-0.41758492588996887,1.1824471950531006
1761338323991463000,1.546462890625,-0.2716699540615082,-0.27262118458747864,1.2144891023635864
1761338324001529000,1.556529052734375,-0.19281668961048126,-0.024724584072828293,1.2036644220352173
1761338324011593700,1.56659375,-0.07299835979938507,0.29627254605293274,1.0874030590057373
1761338324021660000,1.576659912109375,0.05831092968583107,0.6936164498329163,0.777213990688324
1761338324031725800,1.586725830078125,0.232920303940773,1.10708749294281,0.23850572109222412
1761338324041791000,1.596791015625,0.40592697262763977,1.0523701906204224,-0.20020878314971924
1761338324051857000,1.60685693359375,0.5121067762374878,0.7205314636230469,-0.4514400362968445
1761338324061921800,1.616921875,0.6492909789085388,0.5155943036079407,-0.7149651646614075
1761338324071988000,1.626988037109375,0.7754919528961182,0.40529918670654297,-1.07675039768219
1761338324082054000,1.637053955078125,0.849759578704834,0.35428953170776367,-1.4051061868667603
1761338324092119000,1.647119140625,0.9917476773262024,0.10528787970542908,-1.3941348791122437
1761338324102185000,1.65718505859375,1.1294496059417725,-0.05707918852567673,-1.0476073026657104
1761338324112249900,1.667249755859375,1.0033737421035767,0.03167670965194702,-0.5645450949668884
1761338324122315800,1.677315673828125,0.675997793674469,0.2163648009300232,-0.02023387886583805
1761338324132382000,1.6873818359375,0.43433287739753723,0.19768746197223663,0.5187026858329773
1761338324142447000,1.697447021484375,0.3979434370994568,0.01739572361111641,0.9597660899162292
1761338324152512800,1.7075126953125,0.25207722187042236,-0.24312488734722137,1.3565468788146973
1761338324162579000,1.717578857421875,0.030969874933362007,-0.2897573709487915,1.538502812385559
1761338324172643800,1.727643798828125,-0.21100491285324097,-0.08800843358039856,1.437430739402771
1761338324182710000,1.7377099609375,-0.3614775240421295,0.134646475315094,1.1998329162597656
1761338324192775000,1.74777490234375,-0.3789759576320648,0.37983137369155884,0.8838898539543152
1761338324202840800,1.7578408203125,-0.30546364188194275,0.5338558554649353,0.5649135112762451
1761338324212906800,1.76790673828125,-0.2007029503583908,0.5436365008354187,0.29507943987846375
1761338324222972000,1.777971923828125,-0.07641908526420593,0.5313718914985657,0.06452852487564087
1761338324233037800,1.788037841796875,0.06878259032964706,0.49580490589141846,-0.12354125082492828
1761338324243102700,1.798102783203125,0.22217561304569244,0.4313015341758728,-0.2843530476093292
1761338324253169000,1.8081689453125,0.3436819016933441,0.3037691116333008,-0.410728394985199
1761338324263234800,1.81823486328125,0.42817574739456177,0.15463291108608246,-0.4745233356952667
1761338324273300000,1.828300048828125,0.5053344368934631,-0.025164300575852394,-0.5366088151931763
1761338324283366000,1.838365966796875,0.5655878782272339,-0.24950739741325378,-0.62747722864151
1761338324293430800,1.8484306640625,0.6006110310554504,-0.45777207612991333,-0.733701229095459
1761338324303497000,1.8584970703125,0.6088209748268127,-0.6088886857032776,-0.8281337022781372
1761338324313563000,1.86856298828125,0.6093623042106628,-0.6735072135925293,-0.9128700494766235
1761338324323628000,1.8786279296875,0.63288414478302,-0.6739040017127991,-0.9776993989944458
1761338324333694000,1.88869384765625,0.6631945371627808,-0.6195469498634338,-0.999067485332489
1761338324343760100,1.898760009765625,0.6916189789772034,-0.5027936697006226,-0.9703300595283508
1761338324353824800,1.90882470703125,0.7109121680259705,-0.39180901646614075,-0.8910470604896545
1761338324363891000,1.918890869140625,0.7292075157165527,-0.31188809871673584,-0.7269238829612732
1761338324373955800,1.928955810546875,0.7500534653663635,-0.17748941481113434,-0.49147894978523254
1761338324384022000,1.93902197265625,0.7452621459960938,-0.08989936858415604,-0.2416241317987442
1761338324394087700,1.949087646484375,0.682731032371521,-0.08146573603153229,-0.034697744995355606
1761338324404152800,1.95915283203125,0.5265153646469116,-0.06923304498195648,0.08506540954113007
1761338324414219000,1.969218994140625,0.3056672215461731,-0.06494361162185669,0.1226949691772461
1761338324424284000,1.979283935546875,0.08461552113294601,-0.07298369705677032,0.11791540682315826
1761338324434350000,1.98935009765625,-0.10381100326776505,-0.023298710584640503,0.11461430788040161
1761338324444415700,1.999415771484375,-0.26925191283226013,0.03877078741788864,0.1131916493177414
1761338324454481000,2.00948095703125,-0.42409494519233704,0.0948803499341011,0.08341104537248611
1761338324464546800,2.019546875,-0.5647913217544556,0.17532938718795776,0.010937647894024849
1761338324474612000,2.029612060546875,-0.695480227470398,0.27407941222190857,-0.11261667311191559
1761338324484678000,2.039677978515625,-0.7777961492538452,0.33301809430122375,-0.2612231969833374
1761338324494743800,2.049743896484375,-0.783191442489624,0.3808741271495819,-0.41783034801483154
1761338324504809000,2.05980908203125,-0.6935819387435913,0.40976035594940186,-0.5721070170402527
1761338324514875000,2.069875,-0.5336958765983582,0.36819249391555786,-0.6989565491676331
1761338324524940000,2.07993994140625,-0.36044976115226746,0.31948354840278625,-0.7694650888442993
1761338324535005700,2.090005615234375,-0.23475034534931183,0.2779480516910553,-0.7739899158477783
1761338324545071900,2.10007177734375,-0.13190864026546478,0.21285399794578552,-0.7303420305252075
1761338324555137000,2.110136962890625,-0.036925360560417175,0.13766252994537354,-0.6777632832527161
1761338324565203000,2.120202880859375,0.06703885644674301,0.11581608653068542,-0.6157845854759216
1761338324575268900,2.130268798828125,0.17757242918014526,0.16366572678089142,-0.5814059972763062
1761338324585333800,2.140333740234375,0.2639366090297699,0.21159011125564575,-0.5715008974075317
1761338324595400000,2.15039990234375,0.33899638056755066,0.19443051517009735,-0.5063460469245911
1761338324605464800,2.16046484375,0.40373489260673523,0.08166003227233887,-0.3932171165943146
1761338324615531000,2.170531005859375,0.4721912145614624,0.16161541640758514,-0.32597094774246216
1761338324625597000,2.180596923828125,0.5996847152709961,-0.0468568317592144,-0.13582685589790344
1761338324635661800,2.190661865234375,0.5681784152984619,-0.16975800693035126,0.029815927147865295
1761338324645728000,2.20072802734375,0.43028104305267334,-0.3354274034500122,0.13566672801971436
1761338324655793000,2.21079296875,0.1586746871471405,-0.4772097170352936,0.21777981519699097
1761338324665859000,2.220859130859375,-0.15753333270549774,-0.5516096949577332,0.23700544238090515
1761338324675925000,2.230925048828125,-0.38971319794654846,-0.43856096267700195,0.16526295244693756
1761338324685990000,2.240989990234375,-0.6017140746116638,-0.4702049195766449,0.1203538030385971
1761338324696055800,2.251055908203125,-0.7361378073692322,-0.6010401844978333,0.07517765462398529
1761338324706122000,2.2611220703125,-0.8160710334777832,-0.915158212184906,0.07789061218500137
1761338324716187000,2.271186767578125,-0.8636463284492493,-1.1888798475265503,0.04834561049938202
1761338324726252800,2.281252685546875,-0.8505470752716064,-1.354093313217163,-0.010949937626719475
1761338324736318000,2.29131787109375,-0.7139521837234497,-1.3638242483139038,-0.09351671487092972
1761338324746384000,2.3013837890625,-0.4175439774990082,-1.254120111465454,-0.18148411810398102
1761338324756450000,2.311449951171875,-0.03241296857595444,-1.0721180438995361,-0.22002094984054565
1761338324766515000,2.321514892578125,0.3398311734199524,-1.0515464544296265,-0.024729756638407707
1761338324776580900,2.331580810546875,0.6549527645111084,-1.2143754959106445,0.4362800717353821
1761338324786646000,2.34164599609375,0.842214822769165,-1.4397566318511963,1.044995665550232
1761338324796712000,2.3517119140625,0.8677347898483276,-1.621451497077942,1.5988266468048096
1761338324806777900,2.36177783203125,0.7235277891159058,-1.606574535369873,1.8841010332107544
1761338324816842800,2.3718427734375,0.42036721110343933,-1.391467809677124,1.8421419858932495
1761338324826909000,2.381908935546875,0.009946649894118309,-1.0588440895080566,1.5571446418762207
1761338324836973800,2.391973876953125,-0.36006680130958557,-0.6191921234130859,1.1570405960083008
1761338324847040000,2.4020400390625,-0.5943655371665955,-0.16782626509666443,0.7207489609718323
1761338324857106000,2.41210595703125,-0.6829043030738831,0.2251460701227188,0.3273208737373352
1761338324867170800,2.4221708984375,-0.6259949803352356,0.6691784262657166,-0.04183719679713249
1761338324877236700,2.43223681640625,-0.5132811069488525,0.9550782442092896,-0.38352587819099426
1761338324887303000,2.442302978515625,-0.3695905804634094,0.9893235564231873,-0.6884288191795349
1761338324897368000,2.4523681640625,-0.20120127499103546,0.7495146989822388,-0.8836462497711182
1761338324907434000,2.46243408203125,0.023153796792030334,0.30216705799102783,-0.9560072422027588
1761338324917498000,2.472498046875,0.34140998125076294,-0.17182289063930511,-0.9375597238540649
1761338324927564000,2.48256396484375,0.7913928627967834,-0.422010600566864,-0.9234329462051392
1761338324937630000,2.4926298828125,1.2539746761322021,-0.3731589913368225,-1.0016658306121826
1761338324947695000,2.502695068359375,1.3246043920516968,0.010327402502298355,-1.1271684169769287
1761338324957761000,2.512760986328125,1.1984161138534546,0.2548319101333618,-0.9885247349739075
1761338324967826200,2.522826171875,1.0210317373275757,0.17852061986923218,-0.46261775493621826
1761338324977891800,2.532891845703125,0.7931829690933228,0.09373590350151062,0.2854054272174835
1761338324987958000,2.5429580078125,0.5590186715126038,-0.03135570138692856,0.9555784463882446
1761338324998023000,2.55302294921875,0.3981807231903076,-0.14413005113601685,1.407134771347046
1761338325008089000,2.563089111328125,0.37822088599205017,-0.18588896095752716,1.6916924715042114
1761338325018154200,2.573154296875,0.4536621868610382,-0.17903882265090942,1.8357800245285034
1761338325028220000,2.583219970703125,0.5634241104125977,-0.10762057453393936,1.8484324216842651
1761338325038286000,2.5932861328125,0.6603078842163086,0.06571563333272934,1.759444236755371
1761338325048351000,2.60335107421875,0.7430403232574463,0.26797258853912354,1.6021819114685059
1761338325058417200,2.613417236328125,0.8282425999641418,0.421335369348526,1.3506838083267212
1761338325068482000,2.62348193359375,0.9109483957290649,0.5001950263977051,1.0256050825119019
1761338325078548000,2.6335478515625,0.988362729549408,0.5169301629066467,0.6596121788024902
1761338325088614000,2.64361376953125,1.0451593399047852,0.4986785352230072,0.2773013114929199
1761338325098679000,2.653678955078125,1.089377999305725,0.46634232997894287,-0.0891503393650055
1761338325108745200,2.6637451171875,1.1353944540023804,0.42501670122146606,-0.40200144052505493
1761338325118811100,2.67381103515625,1.188072681427002,0.38022440671920776,-0.6498807668685913
1761338325128876000,2.6838759765625,1.2556546926498413,0.3189871311187744,-0.8218650221824646
1761338325138942000,2.69394189453125,1.3581194877624512,0.2400422841310501,-0.9327149391174316
1761338325149007000,2.704007080078125,1.4696440696716309,0.10602296888828278,-0.9802685976028442
1761338325159073000,2.714072998046875,1.5232577323913574,-0.021145733073353767,-0.9635316729545593
1761338325169139200,2.72413916015625,1.5176552534103394,-0.08983345329761505,-0.9291784763336182
1761338325179204000,2.7342041015625,1.4741164445877075,-0.12327650934457779,-0.8865825533866882
1761338325189270000,2.74427001953125,1.3330392837524414,-0.10398776829242706,-0.8213854432106018
1761338325199335200,2.754335205078125,1.1138181686401367,-0.04408351704478264,-0.7049152255058289
1761338325209401000,2.764401123046875,0.8844431042671204,0.06055288016796112,-0.5047243237495422
1761338325219467000,2.774467041015625,0.6642816066741943,0.17447364330291748,-0.24238158762454987
1761338325229532000,2.784531982421875,0.4955439865589142,0.21073976159095764,0.05312196910381317
1761338325239598000,2.79459814453125,0.4238244295120239,0.1368768960237503,0.33679670095443726
1761338325249663200,2.804663330078125,0.4327249526977539,0.04369182884693146,0.5843865275382996
1761338325259729200,2.814729248046875,0.48402097821235657,0.017630014568567276,0.75227290391922
1761338325269794800,2.824794921875,0.5488542914390564,-0.01621849462389946,0.8345206379890442
1761338325279860000,2.83485986328125,0.6050719618797302,-0.13028644025325775,0.8503191471099854
1761338325289926100,2.844926025390625,0.5669493675231934,-0.309228777885437,0.8290413022041321
1761338325299992000,2.854991943359375,0.41280511021614075,-0.5781087279319763,0.8073965907096863
1761338325310057000,2.865056884765625,0.30688878893852234,-0.7755746841430664,0.7661538124084473
1761338325320123000,2.875122802734375,0.22341178357601166,-0.8137954473495483,0.7193026542663574
1761338325330188000,2.88518798828125,0.1693248450756073,-0.4315609931945801,0.5344577431678772
1761338325340254000,2.89525390625,0.3003241717815399,0.4640425741672516,0.11274616420269012
1761338325350320000,2.905320068359375,0.5482119917869568,1.361912727355957,-0.38297781348228455
1761338325360385000,2.915385009765625,0.7349775433540344,1.766908049583435,-0.730628490447998
1761338325370451000,2.925450927734375,0.9266870617866516,1.7160382270812988,-0.9097070693969727
1761338325380516000,2.93551611328125,1.1969387531280518,1.5061087608337402,-1.053941011428833
1761338325390582000,2.94558203125,1.5502641201019287,1.488856554031372,-1.3379546403884888
1761338325400648200,2.955648193359375,1.9276173114776611,1.3994876146316528,-1.6281925439834595
1761338325410712800,2.965712890625,2.1850693225860596,0.8675573468208313,-1.4935619831085205
1761338325420779000,2.975779052734375,2.3306524753570557,0.44256356358528137,-0.9661831855773926
1761338325430845000,2.985844970703125,2.192512273788452,0.10135963559150696,-0.18894469738006592
1761338325440910000,2.99591015625,1.7250430583953857,-0.3504669964313507,0.5913594365119934
1761338325450976300,3.005976318359375,1.1471751928329468,-0.7967408895492554,1.130698561668396
1761338325461041000,3.016041015625,0.7169259786605835,-1.140934705734253,1.3969128131866455
1761338325471107000,3.026107177734375,0.46470996737480164,-1.2579880952835083,1.4229111671447754
1761338325481173000,3.036173095703125,0.31638333201408386,-1.1622124910354614,1.3017972707748413
1761338325491238100,3.046238037109375,0.2871665954589844,-0.9659802317619324,1.1532742977142334
1761338325501303800,3.0563037109375,0.32546961307525635,-0.6467519402503967,1.0211979150772095
1761338325511369000,3.066368896484375,0.48058462142944336,-0.2691735029220581,0.8572284579277039
1761338325521435100,3.07643505859375,0.7758854031562805,0.0638873353600502,0.6403973698616028
1761338325531501000,3.0865009765625,1.1191030740737915,0.29747238755226135,0.3606642782688141
1761338325541566200,3.096566162109375,1.4271862506866455,0.38590091466903687,0.04120795428752899
1761338325551632000,3.1066318359375,1.6529918909072876,0.397434800863266,-0.26076439023017883
1761338325561697000,3.116697021484375,1.7478801012039185,0.35694679617881775,-0.5112572312355042
1761338325571763000,3.126762939453125,1.762367606163025,0.20117075741291046,-0.7052171230316162
1761338325581829000,3.1368291015625,1.7629938125610352,-0.014294283464550972,-0.8371901512145996
1761338325591894000,3.14689404296875,1.8057324886322021,-0.1954379677772522,-0.9681921005249023
1761338325601960000,3.1569599609375,1.895796298980713,-0.20621220767498016,-1.1417524814605713
1761338325612025000,3.167025146484375,1.9395357370376587,-0.16451989114284515,-1.302207112312317
1761338325622091000,3.177091064453125,1.8451071977615356,-0.26125568151474,-1.2827723026275635
1761338325632157200,3.1871572265625,1.6540502309799194,-0.29465413093566895,-1.0519083738327026
1761338325642221800,3.197221923828125,1.4533758163452148,-0.19475747644901276,-0.6768847107887268
1761338325652288000,3.2072880859375,1.2833588123321533,-0.11869706213474274,-0.2565675973892212
1761338325662354000,3.21735400390625,1.167955756187439,-0.15288479626178741,0.12873591482639313
1761338325672419000,3.227419189453125,1.1106927394866943,-0.13532471656799316,0.4328835606575012
1761338325682485000,3.237485107421875,1.0577472448349,-0.11566021293401718,0.6223046779632568
1761338325692550000,3.2475498046875,0.9965371489524841,-0.08123885095119476,0.68833988904953
1761338325702616000,3.257615966796875,0.9468798041343689,-0.010151638649404049,0.6542044878005981
1761338325712682000,3.267681884765625,0.9446297287940979,0.13178446888923645,0.5242672562599182
1761338325722747100,3.2777470703125,0.9885216355323792,0.32904863357543945,0.29871881008148193
1761338325732813000,3.28781298828125,1.0831035375595093,0.4885631799697876,0.0066845654509961605
1761338325742878000,3.2978779296875,1.1992638111114502,0.5499464273452759,-0.24778836965560913
1761338325752943900,3.30794384765625,1.3038713932037354,0.5804843902587891,-0.4111693203449249
1761338325763010000,3.318010009765625,1.3733853101730347,0.5577056407928467,-0.5190649032592773
1761338325773075200,3.3280751953125,1.3659008741378784,0.5004910826683044,-0.5722311735153198
1761338325783141000,3.33814111328125,1.2886168956756592,0.44523313641548157,-0.5730372667312622
1761338325793207000,3.34820703125,1.1975873708724976,0.3851551413536072,-0.5552840828895569
1761338325803272000,3.35827197265625,1.1338790655136108,0.29812541604042053,-0.5441758632659912
1761338325813338000,3.368338134765625,1.0852733850479126,0.18414637446403503,-0.5364449620246887
1761338325823403000,3.378403076171875,1.068051815032959,0.08697826415300369,-0.5375860929489136
1761338325833469000,3.388468994140625,1.0828211307525635,-0.0028192680329084396,-0.5185559391975403
1761338325843534800,3.398534912109375,1.1105211973190308,-0.06122708320617676,-0.49213024973869324
1761338325853600000,3.40860009765625,1.1311594247817993,-0.04590671882033348,-0.4743855893611908
1761338325863666200,3.418666259765625,1.1359663009643555,-0.027808330953121185,-0.4443623125553131
1761338325873731000,3.42873095703125,1.1057846546173096,-0.06190664321184158,-0.3572598993778229
1761338325883797000,3.438796875,1.0776695013046265,-0.11890363693237305,-0.19813503324985504
1761338325893863000,3.44886279296875,1.0725237131118774,-0.1757781207561493,0.023007195442914963
1761338325903928000,3.458927978515625,1.0971475839614868,-0.22461649775505066,0.23782512545585632
1761338325913994000,3.468993896484375,1.1502991914749146,-0.27692872285842896,0.4184524118900299
1761338325924060000,3.479059814453125,1.2049078941345215,-0.3544533848762512,0.5294437408447266
1761338325934125600,3.48912548828125,1.2349798679351807,-0.4422415494918823,0.5440202951431274
1761338325944191700,3.499191650390625,1.3467552661895752,-0.6280092000961304,0.4985939860343933
1761338325954257000,3.5092568359375,1.4510273933410645,-0.7195210456848145,0.3391795754432678
1761338325964322800,3.51932275390625,1.6023763418197632,-0.7424275279045105,0.156855046749115
1761338325974388700,3.529388671875,1.7051186561584473,-0.7086962461471558,0.014190316200256348
1761338325984453600,3.53945361328125,1.7379344701766968,-0.6058921813964844,-0.08303908258676529
1761338325994519800,3.549519775390625,1.7727646827697754,-0.4440082311630249,-0.18292225897312164
1761338326004584700,3.559584716796875,1.840808629989624,-0.35103684663772583,-0.32104629278182983
1761338326014651000,3.56965087890625,1.856325626373291,-0.412332683801651,-0.4388887882232666
1761338326024716800,3.579716796875,1.8343385457992554,-0.6098852753639221,-0.4406811594963074
1761338326034781700,3.58978173828125,1.7828173637390137,-0.9690274596214294,-0.28120651841163635
1761338326044847600,3.59984765625,1.7582218647003174,-1.3040980100631714,0.059849679470062256
1761338326054912800,3.609912841796875,1.7686731815338135,-1.6231529712677002,0.49011823534965515
1761338326064979000,3.61997900390625,1.8036599159240723,-2.0291848182678223,0.933453381061554
1761338326075044900,3.630044921875,1.8860256671905518,-2.1528337001800537,1.308056354522705
1761338326085109800,3.64010986328125,1.956689715385437,-1.9259800910949707,1.4980190992355347
1761338326095175700,3.65017578125,2.0230979919433594,-1.6136022806167603,1.5883936882019043
1761338326105240800,3.66024072265625,2.101332664489746,-1.2976579666137695,1.6383094787597656
1761338326115306800,3.670306640625,2.1584510803222656,-0.9704362750053406,1.647080898284912
1761338326125373000,3.680373046875,2.2043256759643555,-0.7388656735420227,1.5711690187454224
1761338326135437800,3.690437744140625,2.275261402130127,-0.4089314639568329,1.3271406888961792
1761338326145503700,3.700503662109375,2.3554275035858154,0.23048986494541168,0.8514701724052429
1761338326155569000,3.71056884765625,2.418119192123413,0.7832920551300049,0.2124989777803421
1761338326165634800,3.720634765625,2.4782214164733887,1.131855845451355,-0.5065587759017944
1761338326175700700,3.73070068359375,2.547912836074829,1.288608193397522,-1.1977944374084473
1761338326185765600,3.740765625,2.5549259185791016,1.1103509664535522,-1.7893931865692139
1761338326195831800,3.750831787109375,2.5269336700439453,0.7387480735778809,-2.1576249599456787
1761338326205897700,3.760897705078125,2.506298065185547,0.20712178945541382,-2.223871946334839
1761338326215963000,3.770962890625,2.6021740436553955,-0.2411063313484192,-1.9721876382827759
1761338326226028800,3.78102880859375,2.914309024810791,-0.4886932671070099,-1.4495331048965454
1761338326236093700,3.79109375,3.3470911979675293,-0.5919041037559509,-0.7169439196586609
1761338326246160000,3.801159912109375,3.7392055988311768,-0.6052592396736145,0.16444095969200134
1761338326256225800,3.811225830078125,3.8648366928100586,-0.7046383023262024,0.8987687230110168
1761338326266290700,3.821290771484375,3.6755521297454834,-0.8249778747558594,1.2667914628982544
1761338326276356600,3.831356689453125,3.194124698638916,-0.9717220664024353,1.3390990495681763
1761338326286421800,3.841421875,2.575836658477783,-1.147568702697754,1.2208545207977295
1761338326296488000,3.851488037109375,1.9834904670715332,-1.2397273778915405,1.0420058965682983
1761338326306553900,3.861553955078125,1.5880402326583862,-1.0752938985824585,0.8162141442298889
1761338326316618800,3.87161865234375,1.4312652349472046,-0.7999643087387085,0.623654842376709
1761338326326684700,3.8816845703125,1.4757238626480103,-0.3816852271556854,0.46462857723236084
1761338326336749800,3.891749755859375,1.679938554763794,0.03653519228100777,0.31096869707107544
1761338326346815700,3.901815673828125,2.0185766220092773,0.3403049409389496,0.18604980409145355
1761338326356882000,3.9118818359375,2.4359893798828125,0.5772991180419922,0.07155492901802063
1761338326366946800,3.92194677734375,2.8360607624053955,0.6850371956825256,-0.032302793115377426
1761338326377012700,3.9320126953125,3.158665895462036,0.6222513318061829,-0.10643534362316132
1761338326387078700,3.94207861328125,3.387047529220581,0.4533199667930603,-0.11666381359100342
1761338326397143800,3.952143798828125,3.5246517658233643,0.23930859565734863,-0.06959270685911179
1761338326407210000,3.9622099609375,3.5874998569488525,0.06848832219839096,0.007821769453585148
1761338326417274600,3.972274658203125,3.5482499599456787,0.016754023730754852,0.07196027040481567
1761338326427340800,3.9823408203125,3.3768718242645264,0.04731861129403114,0.125832661986351
1761338326437406700,3.99240673828125,3.0896897315979004,0.14013776183128357,0.15372741222381592
1761338326447471900,4.002471923828125,2.7635960578918457,0.22820669412612915,0.14262886345386505
1761338326457537800,4.012537841796875,2.45483136177063,0.2722926437854767,0.10071097314357758
1761338326467602700,4.022602783203125,2.189178943634033,0.3026275038719177,0.04313673451542854
1761338326477668900,4.0326689453125,1.989708423614502,0.3454231917858124,-0.015168119221925735
1761338326487733800,4.042733642578125,1.879780888557434,0.3592509329319,-0.07996214926242828
1761338326497800000,4.052800048828125,1.8494943380355835,0.376289039850235,-0.1534036099910736
1761338326507865600,4.062865478515625,1.9344754219055176,0.4524824917316437,-0.26599258184432983
1761338326517930800,4.0729306640625,2.182896614074707,0.37602871656417847,-0.31476733088493347
1761338326527996700,4.08299658203125,2.4642343521118164,0.26099514961242676,-0.24288710951805115
1761338326538062800,4.093062744140625,2.774360179901123,0.18458665907382965,-0.13686586916446686
1761338326548128000,4.1031279296875,3.069277048110962,0.0712304562330246,-0.1003539189696312
1761338326558193700,4.113193603515625,3.3329520225524902,-0.005896550603210926,-0.14848816394805908
1761338326568258800,4.1232587890625,3.5381107330322266,0.04087936878204346,-0.23860949277877808
1761338326578324700,4.13332470703125,3.6620442867279053,0.13654810190200806,-0.30923280119895935
1761338326588391000,4.143390869140625,3.779773712158203,0.27709245681762695,-0.3657822608947754
1761338326598455600,4.15345556640625,3.7449045181274414,0.35485517978668213,-0.37844881415367126
1761338326608521700,4.163521728515625,3.613399028778076,0.24357910454273224,-0.29614266753196716
1761338326618587000,4.1735869140625,3.2656307220458984,0.09610550105571747,-0.27795329689979553
1761338326628652800,4.18365283203125,2.7079739570617676,-0.1020319014787674,-0.2697756886482239
1761338326638718700,4.19371875,2.0046536922454834,-0.3088657557964325,-0.2006693035364151
1761338326648783600,4.20378369140625,1.3661218881607056,-0.5434210300445557,-0.07582195103168488
1761338326658849800,4.213849853515625,0.9537776708602905,-0.855861485004425,0.11462336033582687
1761338326668914700,4.223914794921875,0.7265430688858032,-1.1770678758621216,0.35118040442466736
1761338326678980900,4.23398095703125,0.6588572263717651,-1.409475564956665,0.6153702735900879
1761338326689046800,4.244046875,0.645752489566803,-1.5701593160629272,0.9138432741165161
1761338326699111700,4.254111572265625,0.5821465849876404,-1.6322731971740723,1.2233021259307861
1761338326709177900,4.264177734375,0.6332324743270874,-1.384196400642395,1.4702494144439697
1761338326719243800,4.274243896484375,0.8730035424232483,-0.7851664423942566,1.5546420812606812
1761338326729309000,4.284308837890625,1.1673516035079956,-0.12833824753761292,1.4696627855300903
1761338326739374800,4.294374755859375,1.4037054777145386,0.45993033051490784,1.2721033096313477
1761338326749439700,4.304439697265625,1.5347177982330322,0.9106268882751465,1.0132277011871338
1761338326759505700,4.314505615234375,1.5498884916305542,1.2296067476272583,0.7234911918640137
1761338326769571800,4.32457177734375,1.5738178491592407,1.3806513547897339,0.4933720827102661
1761338326779636700,4.33463671875,1.6739245653152466,1.3686010837554932,0.3579823076725006
1761338326789703000,4.344702880859375,1.7745816707611084,1.1951180696487427,0.3341640532016754
1761338326799767800,4.354767822265625,1.8838598728179932,0.84446120262146,0.4695240259170532
1761338326809833700,4.364833740234375,1.8769959211349487,0.5081344246864319,0.6168346405029297
1761338326819900000,4.37489990234375,1.706213355064392,0.13461650907993317,0.8054969310760498
1761338326829964800,4.38496484375,1.432831883430481,-0.24961750209331512,1.0655639171600342
1761338326840030700,4.39503076171875,1.144789695739746,-0.655134916305542,1.2711913585662842
1761338326850095900,4.405095947265625,0.9413856267929077,-0.9433299899101257,1.3656675815582275
1761338326860161800,4.415161865234375,0.8402352929115295,-0.99181067943573,1.356673240661621
1761338326870227700,4.425227783203125,0.8480529189109802,-0.7794612050056458,1.2490901947021484
1761338326880294000,4.4352939453125,0.9376954436302185,-0.3780229091644287,1.0215188264846802
1761338326890358800,4.44535888671875,1.0912134647369385,0.07882604748010635,0.6921218633651733
1761338326900424700,4.4554248046875,1.2893366813659668,0.38362881541252136,0.35345324873924255
1761338326910489900,4.46548974609375,1.4707890748977661,0.6450513601303101,0.05649663135409355
1761338326920555800,4.4755556640625,1.6265177726745605,0.8264011740684509,-0.22546368837356567
1761338326930622000,4.4856220703125,1.785434603691101,0.930696964263916,-0.49884581565856934
1761338326940686600,4.4956865234375,1.8824034929275513,0.9354518055915833,-0.7223142981529236
1761338326950752800,4.505752685546875,1.9253897666931152,0.8465951085090637,-0.8612000346183777
1761338326960818000,4.51581787109375,1.8677842617034912,0.6713183522224426,-0.9198611974716187
1761338326970883800,4.5258837890625,1.7725199460983276,0.4639189839363098,-0.9240075945854187
1761338326980949800,4.53594970703125,1.6302043199539185,0.24353575706481934,-0.8287428617477417
1761338326991014700,4.5460146484375,1.4984885454177856,0.045432060956954956,-0.6338075995445251
1761338327001080800,4.556080810546875,1.4152413606643677,-0.10471297055482864,-0.39447224140167236
1761338327011145700,4.566145751953125,1.3548911809921265,-0.22048817574977875,-0.1375102698802948
1761338327021212000,4.5762119140625,1.2894655466079712,-0.2939123213291168,0.10305174440145493
1761338327031277800,4.58627783203125,1.2412610054016113,-0.28690508008003235,0.30262789130210876
1761338327041342700,4.5963427734375,1.222383975982666,-0.21865837275981903,0.4363135099411011
1761338327051408600,4.60640869140625,1.2058136463165283,-0.17026232182979584,0.49805065989494324
1761338327061473800,4.616473876953125,1.1736555099487305,-0.1417236179113388,0.5365807414054871
1761338327071540000,4.6265400390625,1.1343752145767212,-0.09627054631710052,0.5381131768226624
1761338327081605600,4.636605712890625,1.0997262001037598,-0.0398288369178772,0.5065475702285767
1761338327091670800,4.6466708984375,1.0682498216629028,0.05297571420669556,0.42798930406570435
1761338327101736700,4.65673681640625,1.0372503995895386,0.16307984292507172,0.3145327866077423
1761338327111803000,4.666802978515625,0.9996728301048279,0.24832718074321747,0.19142113626003265
1761338327121867800,4.67686767578125,0.95648592710495,0.291311115026474,0.06447302550077438
1761338327131933700,4.68693359375,0.9852597713470459,0.14022883772850037,0.012904130853712559
1761338327141998800,4.696998779296875,0.8879989981651306,0.2274625450372696,-0.1143566220998764
1761338327152064800,4.707064697265625,0.7139263153076172,0.32811790704727173,-0.22859381139278412
1761338327162131000,4.717130859375,0.6596753597259521,0.2823916971683502,-0.23484505712985992
1761338327172195600,4.727195556640625,0.6650727391242981,0.18328197300434113,-0.18474027514457703
1761338327182261800,4.73726171875,0.705887496471405,0.03830133378505707,-0.10194766521453857
1761338327192327000,4.747326904296875,0.6190636157989502,0.10439305007457733,-0.10429756343364716
1761338327202392800,4.757392822265625,0.4961467385292053,0.2327699363231659,-0.12974274158477783
1761338327212458800,4.767458740234375,0.4538148045539856,0.22229807078838348,-0.09307533502578735
1761338327222523600,4.777523681640625,0.39427849650382996,0.22433246672153473,-0.07802315056324005
1761338327232589800,4.78758984375,0.30214935541152954,0.19816741347312927,-0.06606261432170868
1761338327242655700,4.79765576171875,0.20206190645694733,0.17736200988292694,-0.06849860399961472
1761338327252721000,4.807720947265625,0.11458020657300949,0.1673768013715744,-0.10444962233304977
1761338327262786800,4.817786865234375,0.08010878413915634,0.21474191546440125,-0.17499569058418274
1761338327272851700,4.827851806640625,0.10612019896507263,0.3217966556549072,-0.2724863588809967
1761338327282917600,4.837917724609375,0.07289460301399231,0.22528904676437378,-0.3751738369464874
1761338327292983800,4.84798388671875,-0.024881111457943916,0.06838153302669525,-0.42495590448379517
1761338327303049000,4.858049072265625,-0.18401376903057098,0.021112283691763878,-0.39549973607063293
1761338327313115000,4.868114990234375,-0.36949798464775085,0.054240066558122635,-0.29278841614723206
1761338327323179800,4.8781796875,-0.5512837171554565,0.13899411261081696,-0.12030001729726791
1761338327333245700,4.88824560546875,-0.716368556022644,0.14179924130439758,0.08234866708517075
1761338327343312000,4.898311767578125,-0.8956037759780884,0.06305809319019318,0.2733364701271057
1761338327353376800,4.908376708984375,-1.089260458946228,-0.017157448455691338,0.4190021753311157
1761338327363442700,4.918442626953125,-1.2823803424835205,0.0032911011949181557,0.47535863518714905
1761338327373508600,4.928508544921875,-1.4022353887557983,0.1046828106045723,0.3996971547603607
1761338327383573800,4.93857373046875,-1.3817239999771118,0.20675192773342133,0.18580801784992218
1761338327393639700,4.9486396484375,-1.1937116384506226,0.27496278285980225,-0.10933098942041397
1761338327403704800,4.958704833984375,-0.8909076452255249,0.302253782749176,-0.42433154582977295
1761338327413770800,4.968770751953125,-0.5659423470497131,0.2805544435977936,-0.6592854857444763
1761338327423836700,4.978836669921875,-0.30087682604789734,0.17288950085639954,-0.7526987791061401
1761338327433901800,4.98890185546875,-0.13586056232452393,0.0030986210331320763,-0.701991856098175
1761338327443967700,4.9989677734375,-0.03698830306529999,-0.1933627724647522,-0.5276988744735718
1761338327454032600,5.00903271484375,-0.0003358745016157627,-0.4330461025238037,-0.23981715738773346
1761338327464098800,5.019098876953125,-0.030252225697040558,-0.7527654767036438,0.14002445340156555
1761338327474164700,5.029164794921875,-0.05170394107699394,-0.9228548407554626,0.5315383672714233
1761338327484230000,5.03922998046875,-0.045710232108831406,-1.0079524517059326,0.8622792363166809
1761338327494295800,5.0492958984375,0.00027682771906256676,-1.026645302772522,1.0748162269592285
1761338327504360700,5.059360595703125,0.050887808203697205,-0.9675766825675964,1.143298625946045
1761338327514426600,5.069426513671875,0.04453035071492195,-0.8000090718269348,1.0598262548446655
1761338327524492800,5.079492919921875,-0.003825728315860033,-0.5946412682533264,0.8471486568450928
1761338327534557700,5.0895576171875,-0.09709496796131134,-0.44309788942337036,0.5950136184692383
1761338327544623900,5.099623779296875,-0.21558299660682678,-0.2554158568382263,0.31038612127304077
1761338327554689800,5.109689697265625,-0.3399219214916229,-0.045216791331768036,-0.002273319289088249
1761338327564754700,5.119754638671875,-0.47071802616119385,0.14649698138237,-0.31878629326820374
1761338327574820900,5.12982080078125,-0.6406134366989136,0.3154245913028717,-0.5930198431015015
1761338327584885800,5.1398857421875,-0.7201266288757324,0.5079066753387451,-0.8179280757904053
1761338327594952000,5.149951904296875,-0.7577683329582214,0.5546575784683228,-0.9661808609962463
1761338327605017600,5.160017578125,-0.7411920428276062,0.4292048215866089,-1.0036439895629883
1761338327615082800,5.170082763671875,-0.7182097434997559,0.27433428168296814,-0.9296521544456482
1761338327625148700,5.180148681640625,-0.7027396559715271,0.16707228124141693,-0.7541101574897766
1761338327635213800,5.1902138671875,-0.7486304640769958,0.09154106676578522,-0.5126405358314514
1761338327645280000,5.200280029296875,-0.8260576128959656,0.045798081904649734,-0.23162806034088135
1761338327655345700,5.210345703125,-0.8654136657714844,0.04031810536980629,0.010854451917111874
1761338327665410800,5.220410888671875,-0.8396185636520386,0.010376449674367905,0.20033010840415955
1761338327675476700,5.230476806640625,-0.7726256847381592,-0.009838119149208069,0.3432449400424957
1761338327685542000,5.2405419921875,-0.7027400732040405,-0.02802378125488758,0.4577566087245941
1761338327695607600,5.250607666015625,-0.6210424900054932,-0.0921187549829483,0.5209230184555054
1761338327705673700,5.260673828125,-0.5207840800285339,-0.15167236328125,0.563912570476532
1761338327715739000,5.27073876953125,-0.4100050628185272,-0.19646582007408142,0.6069116592407227
1761338327725804800,5.2808046875,-0.32747024297714233,-0.221659317612648,0.6395729184150696
1761338327735870000,5.290869873046875,-0.28192833065986633,-0.21776887774467468,0.617729663848877
1761338327745935600,5.300935546875,-0.2548423707485199,-0.21079832315444946,0.5323657393455505
1761338327756001800,5.311001708984375,-0.23903349041938782,-0.2003260999917984,0.3851349949836731
1761338327766066700,5.321066650390625,-0.2146083116531372,-0.20342467725276947,0.20447011291980743
1761338327776132900,5.3311328125,-0.18030425906181335,-0.22908060252666473,0.0258706733584404
1761338327786198800,5.34119873046875,-0.1450386792421341,-0.2553284466266632,-0.11156308650970459
1761338327796263700,5.351263671875,-0.12140799313783646,-0.28158071637153625,-0.2127884328365326
1761338327806329600,5.36132958984375,-0.07985096424818039,-0.32192838191986084,-0.26869645714759827
1761338327816394800,5.371394775390625,-0.023145223036408424,-0.35106363892555237,-0.29835352301597595
1761338327826461000,5.3814609375,0.04786929860711098,-0.3368988037109375,-0.27914467453956604
1761338327836526800,5.39152685546875,0.1144874095916748,-0.3069715201854706,-0.23824352025985718
1761338327846591700,5.401591796875,0.16392312943935394,-0.27993056178092957,-0.2003946751356125
1761338327856657700,5.41165771484375,0.18603558838367462,-0.24703922867774963,-0.18095886707305908
1761338327866722800,5.421722900390625,0.16437077522277832,-0.24046334624290466,-0.1766565442085266
1761338327876788700,5.431788818359375,0.12134942412376404,-0.23717369139194489,-0.16888079047203064
1761338327886855000,5.44185498046875,0.05223240330815315,-0.2077215313911438,-0.1594952940940857
1761338327896919800,5.451919921875,-0.07110364735126495,-0.19540834426879883,-0.1329164057970047
1761338327906985700,5.46198583984375,-0.1958618313074112,-0.16760438680648804,-0.0731782466173172
1761338327917051000,5.47205078125,-0.2856372892856598,-0.12298324704170227,0.004225241020321846
1761338327927116300,5.4821162109375,-0.296417236328125,-0.06586509943008423,0.03317699581384659
1761338327937182500,5.492182373046875,-0.22498825192451477,-0.02275228686630726,-0.006737742107361555
1761338327947247600,5.50224755859375,-0.09787795692682266,0.02977457270026207,-0.09415999799966812
1761338327957313500,5.5123134765625,0.04045984148979187,0.10968132317066193,-0.16210351884365082
1761338327967379500,5.52237939453125,0.1579774171113968,0.1822277009487152,-0.1989334374666214
1761338327977444400,5.5324443359375,0.23368434607982635,0.18520487844944,-0.2041366547346115
1761338327987510500,5.542510498046875,0.25190702080726624,0.12366880476474762,-0.20247004926204681
1761338327997575400,5.552575439453125,0.21157489717006683,-0.013151279650628567,-0.16299226880073547
1761338328007641600,5.5626416015625,0.05291654169559479,-0.1780502200126648,-0.03326648473739624
1761338328017707300,5.572707275390625,-0.1997757852077484,-0.15932227671146393,0.11990484595298767
1761338328027772400,5.5827724609375,-0.29568740725517273,0.10266353189945221,0.15152136981487274
1761338328037838300,5.59283837890625,-0.2856762409210205,0.2892290949821472,0.1532992273569107
1761338328047903500,5.602903564453125,-0.15622079372406006,0.46873602271080017,0.08386661857366562
1761338328057969400,5.612969482421875,0.04646952822804451,0.5991963744163513,0.014527692459523678
1761338328068035300,5.623035400390625,0.2591889798641205,0.6532769203186035,-0.019275277853012085
1761338328078100500,5.6331005859375,0.46867963671684265,0.7112804651260376,-0.08031413704156876
1761338328088166400,5.64316650390625,0.6348965764045715,0.8097279071807861,-0.2673484981060028
1761338328098231600,5.6532314453125,0.7723636627197266,0.9528192281723022,-0.5187416076660156
1761338328108297500,5.66329736328125,0.8963159918785095,1.0275213718414307,-0.7202909588813782
1761338328118363400,5.67336328125,1.0256582498550415,0.8911084532737732,-0.7618674635887146
1761338328128428500,5.683428466796875,1.1440597772598267,0.6480275988578796,-0.6589682102203369
1761338328138494500,5.693494384765625,1.1416583061218262,0.3754328489303589,-0.43311214447021484
1761338328148559400,5.703559326171875,0.9860900044441223,0.08140016347169876,-0.09324883669614792
1761338328158625300,5.713625244140625,0.7535060048103333,-0.200059175491333,0.31221139430999756
1761338328168691500,5.72369140625,0.514586865901947,-0.48755112290382385,0.7187042832374573
1761338328178756400,5.73375634765625,0.3625314235687256,-0.7546166181564331,1.1044100522994995
1761338328188822500,5.743822509765625,0.2859543561935425,-0.8595752120018005,1.4437484741210938
1761338328198888400,5.753888427734375,0.21809308230876923,-0.7576411962509155,1.6768980026245117
1761338328208953300,5.763953369140625,0.15761348605155945,-0.5404484272003174,1.78842294216156
1761338328219019500,5.77401953125,0.15923133492469788,-0.2761121094226837,1.769392728805542
1761338328229084400,5.78408447265625,0.20336683094501495,-0.05698615685105324,1.606804370880127
1761338328239150600,5.794150634765625,0.2897034287452698,0.0763608068227768,1.3448363542556763
1761338328249216500,5.804216552734375,0.4099752604961395,0.172173872590065,1.0068186521530151
1761338328259281400,5.814281494140625,0.5625396966934204,0.22659075260162354,0.6259546875953674
1761338328269347300,5.824347412109375,0.7306914329528809,0.21534262597560883,0.23387400805950165
1761338328279412500,5.83441259765625,0.8885286450386047,0.1757332682609558,-0.14768578112125397
1761338328289478700,5.844478759765625,0.993268609046936,0.11280570179224014,-0.4989495277404785
1761338328299544300,5.85454443359375,1.021639108657837,0.012140726670622826,-0.7992851734161377
1761338328309609500,5.864609375,0.9927411079406738,-0.13348917663097382,-1.039116621017456
1761338328319675400,5.87467529296875,0.9385725855827332,-0.3147641122341156,-1.238708734512329
1761338328329740500,5.884740478515625,0.8667489886283875,-0.4898555278778076,-1.3822933435440063
1761338328339806500,5.894806396484375,0.7844794988632202,-0.635949969291687,-1.4770711660385132
1761338328349872400,5.904872314453125,0.7028149962425232,-0.7176325917243958,-1.4817918539047241
1761338328359937500,5.9149375,0.6442714333534241,-0.7111425995826721,-1.3949166536331177
1761338328370003500,5.92500341796875,0.630539059638977,-0.6244601607322693,-1.223703145980835
1761338328380069400,5.9350693359375,0.6702953577041626,-0.49678218364715576,-0.9479289650917053
1761338328390134300,5.94513427734375,0.7251567840576172,-0.3145758807659149,-0.5838583707809448
1761338328400200400,5.955200439453125,0.7330219745635986,-0.13781492412090302,-0.16404858231544495
1761338328410265300,5.965265380859375,0.6646000146865845,0.016348015516996384,0.23701122403144836
1761338328420331500,5.97533154296875,0.5474857687950134,0.1325722634792328,0.5302501916885376
1761338328430397400,5.9853974609375,0.40067365765571594,0.25708115100860596,0.6737788319587708
1761338328440462300,5.99546240234375,0.25399190187454224,0.3808177411556244,0.6824026107788086
1761338328450528300,6.0055283203125,0.1452910155057907,0.477079302072525,0.5827894806861877
1761338328460593400,6.015593505859375,0.08640660345554352,0.4976850748062134,0.4360402822494507
1761338328470659600,6.02565966796875,0.060102831572294235,0.5036002397537231,0.24780404567718506
1761338328480725500,6.0357255859375,0.05740924924612045,0.5163609385490417,0.051298245787620544
1761338328490790400,6.045790283203125,0.08364325016736984,0.473532497882843,-0.1268579065799713
1761338328500856300,6.055856201171875,0.13876312971115112,0.35690221190452576,-0.25694897770881653
1761338328510921500,6.06592138671875,0.2446136623620987,0.2126358598470688,-0.32846444845199585
1761338328520987400,6.0759873046875,0.33684852719306946,0.20606903731822968,-0.44070735573768616
1761338328531053600,6.086053466796875,0.3826389014720917,0.2003493756055832,-0.5863785147666931
1761338328541118500,6.096118408203125,0.406176894903183,0.1744336187839508,-0.7254518866539001
1761338328551184400,6.106184326171875,0.40583306550979614,0.16206511855125427,-0.8386024236679077
1761338328561249500,6.11624951171875,0.31090348958969116,0.12987788021564484,-0.9040781855583191
1761338328571315500,6.1263154296875,0.1177516058087349,0.1083717942237854,-0.8918833136558533
1761338328581381600,6.136381591796875,-0.0909404456615448,0.14254230260849,-0.8149703741073608
1761338328591446300,6.1464462890625,-0.24702458083629608,0.18306896090507507,-0.732022225856781
1761338328601512400,6.156512451171875,-0.35887375473976135,0.1549878716468811,-0.6572791337966919
1761338328611578400,6.166578369140625,-0.43856218457221985,0.07608587294816971,-0.5633329153060913
1761338328621643500,6.1766435546875,-0.47320470213890076,-0.001010325737297535,-0.4470847547054291
1761338328631709400,6.18670947265625,-0.4707498252391815,-0.05481310561299324,-0.3169778883457184
1761338328641774300,6.1967744140625,-0.4299831688404083,-0.10641323775053024,-0.183341845870018
1761338328651840500,6.206840576171875,-0.34159258008003235,-0.17387668788433075,-0.03151050955057144
1761338328661906400,6.216906494140625,-0.22268997132778168,-0.24761435389518738,0.14305099844932556
1761338328671971600,6.2269716796875,-0.09552936255931854,-0.3301598131656647,0.345461905002594
1761338328682037200,6.237037353515625,0.0580751895904541,-0.4143713414669037,0.5327528715133667
1761338328692102400,6.247102294921875,0.21405839920043945,-0.526390552520752,0.6946845054626465
1761338328702168600,6.25716845703125,0.20654074847698212,-0.6119369268417358,0.7852243781089783
1761338328712234500,6.267234375,0.021458778530359268,-0.5805747509002686,0.7893823385238647
1761338328722299400,6.27729931640625,-0.1892816573381424,-0.5269649028778076,0.7176769971847534
1761338328732365300,6.287365234375,-0.3921878933906555,-0.5631985664367676,0.5547594428062439
1761338328742430500,6.297430419921875,-0.5470156073570251,-0.6460255980491638,0.32768821716308594
1761338328752496400,6.307496337890625,-0.6231202483177185,-0.6282287836074829,0.08397037535905838
1761338328762562600,6.3175625,-0.612687885761261,-0.5522155165672302,-0.11762471497058868
1761338328772627500,6.32762744140625,-0.5924670696258545,-0.43545904755592346,-0.2201995551586151
1761338328782693400,6.337693359375,-0.5571058988571167,-0.2824614942073822,-0.20812177658081055
1761338328792759300,6.34775927734375,-0.4579002559185028,-0.15404465794563293,-0.12554460763931274
1761338328802824400,6.357824462890625,-0.3705972135066986,-0.09293517470359802,0.012563101015985012
1761338328812890600,6.367890625,-0.319983571767807,-0.043681345880031586,0.13555745780467987
1761338328822955300,6.377955322265625,-0.277609258890152,-0.04814571514725685,0.22865256667137146
1761338328833021400,6.388021484375,-0.27990835905075073,-0.16783109307289124,0.34612831473350525
1761338328843087400,6.39808740234375,-0.33319535851478577,-0.3352201282978058,0.48647403717041016
1761338328853152500,6.408152587890625,-0.37419232726097107,-0.47229063510894775,0.6100271344184875
1761338328863218400,6.418218505859375,-0.3722109794616699,-0.5896742939949036,0.6940658688545227
1761338328873283300,6.428283447265625,-0.33908551931381226,-0.6832290291786194,0.7282789945602417
1761338328883349500,6.438349609375,-0.28790342807769775,-0.7047864198684692,0.7108785510063171
1761338328893415400,6.44841552734375,-0.22130149602890015,-0.6223986148834229,0.6749599575996399
1761338328903480600,6.45848046875,-0.14131087064743042,-0.43155908584594727,0.640780508518219
1761338328913546500,6.46854638671875,-0.057835422456264496,-0.18361720442771912,0.5976200103759766
1761338328923611400,6.478611328125,-0.01059805229306221,0.005848821252584457,0.5391339659690857
1761338328933677300,6.48867724609375,-0.003945742268115282,0.12705406546592712,0.45473283529281616
1761338328943743500,6.498743408203125,-0.03601007163524628,0.18253766000270844,0.31571781635284424
1761338328953808600,6.50880859375,-0.08494112640619278,0.17384590208530426,0.1040407121181488
1761338328963874300,6.518874267578125,-0.13053257763385773,0.15543760359287262,-0.14920459687709808
1761338328973939500,6.528939453125,-0.16989809274673462,0.14324751496315002,-0.3992868661880493
1761338328984005400,6.53900537109375,-0.21567387878894806,0.1221158355474472,-0.6238669753074646
1761338328994071600,6.549071533203125,-0.25277942419052124,0.10708895325660706,-0.7766962051391602
1761338329004136400,6.559136474609375,-0.2638815641403198,0.14964665472507477,-0.832727313041687
1761338329014202400,6.569202392578125,-0.2628474831581116,0.2555922567844391,-0.8059878349304199
1761338329024268300,6.579268310546875,-0.2335640788078308,0.3033200800418854,-0.6777806282043457
1761338329034333400,6.58933349609375,-0.15375445783138275,0.28746548295021057,-0.4388548731803894
1761338329044399600,6.599399658203125,-0.06485939025878906,0.2472972422838211,-0.14311571419239044
1761338329054464300,6.60946435546875,-0.02669602818787098,0.20916743576526642,0.13059864938259125
1761338329064530400,6.619530517578125,-0.030319858342409134,0.16320478916168213,0.33656466007232666
1761338329074596400,6.629596435546875,-0.03173506259918213,0.09618499875068665,0.475475937128067
1761338329084661500,6.63966162109375,-0.032928310334682465,0.02822333574295044,0.5603867769241333
1761338329094727400,6.6497275390625,-0.05179174616932869,-0.008099516853690147,0.5644009113311768
1761338329104792300,6.659792236328125,-0.06864704191684723,-0.03141035512089729,0.5136798620223999
1761338329114858500,6.6698583984375,-0.06804356724023819,-0.045081425458192825,0.43712031841278076
1761338329124924400,6.67992431640625,-0.038506314158439636,-0.07246626913547516,0.33605989813804626
1761338329134989600,6.689989501953125,0.003296260256320238,-0.11088822036981583,0.21668502688407898
1761338329145055500,6.700055419921875,0.024991769343614578,-0.1708221733570099,0.09582165628671646
1761338329155120400,6.710120361328125,0.025940122082829475,-0.2413266897201538,-0.01737680286169052
1761338329165186300,6.720186279296875,0.01879439689218998,-0.27741605043411255,-0.1181948333978653
1761338329175252500,6.73025244140625,-0.004297340288758278,-0.28565293550491333,-0.18216076493263245
1761338329185317600,6.740317626953125,-0.03273627161979675,-0.2843436002731323,-0.20865006744861603
1761338329195383600,6.750383544921875,-0.04939194768667221,-0.2475014328956604,-0.19956442713737488
1761338329205449200,6.76044921875,-0.04963454231619835,-0.17624199390411377,-0.16777269542217255
1761338329215514400,6.770514404296875,-0.019030295312404633,-0.08945303410291672,-0.12863273918628693
1761338329225580500,6.78058056640625,0.04013751819729805,-0.03673311695456505,-0.08972671627998352
1761338329235645400,6.7906455078125,0.09743089973926544,-0.04022478684782982,-0.0689532607793808
1761338329245711400,6.80071142578125,0.14512740075588226,-0.06431203335523605,-0.07410763204097748
1761338329255777300,6.81077734375,0.17779800295829773,-0.09200571477413177,-0.09603104740381241
1761338329265842400,6.820842529296875,0.19400116801261902,-0.06929225474596024,-0.13242870569229126
1761338329275908400,6.830908447265625,0.1641753613948822,-0.03774445131421089,-0.187460795044899
1761338329285973500,6.840973388671875,0.08594441413879395,0.00315118208527565,-0.22291912138462067
1761338329296039400,6.851039306640625,0.009494119323790073,0.0714026689529419,-0.2493898868560791
1761338329306105300,6.861105224609375,-0.04356237128376961,0.1329362988471985,-0.22111916542053223
1761338329316170500,6.87117041015625,-0.06308706849813461,0.18755853176116943,-0.16095063090324402
1761338329326236400,6.881236328125,-0.07489043474197388,0.17625050246715546,-0.09626167267560959
1761338329336301300,6.89130126953125,-0.12346597015857697,0.0763057991862297,-0.04002077132463455
1761338329346367200,6.9013671875,-0.21177685260772705,-0.032549090683460236,0.02522287704050541
1761338329356433400,6.911433349609375,-0.3050681948661804,-0.11416272819042206,0.086463063955307
1761338329366498600,6.92149853515625,-0.4472665786743164,-0.19637280702590942,0.15881206095218658
1761338329376564500,6.931564453125,-0.5938531160354614,-0.2883285582065582,0.24581541121006012
1761338329386630700,6.941630615234375,-0.6701117753982544,-0.32487109303474426,0.2996896207332611
1761338329396695300,6.9516953125,-0.7343937754631042,-0.3152402937412262,0.3501890301704407
1761338329406761500,6.961761474609375,-0.8061370253562927,-0.24875493347644806,0.36925259232521057
1761338329416826400,6.971826416015625,-0.9579739570617676,-0.0493914857506752,0.3009478449821472
1761338329426892500,6.981892578125,-0.9234777688980103,0.31683409214019775,0.20079003274440765
1761338329436958500,6.99195849609375,-0.7496210336685181,0.6409357190132141,0.09042597562074661
1761338329447023400,7.0020234375,-0.5933353304862976,0.684068500995636,-0.029570957645773888
1761338329457089500,7.012089599609375,-0.4545864760875702,0.47613468766212463,-0.08480971306562424
1761338329467154400,7.022154541015625,-0.35339459776878357,0.23358438909053802,-0.09980757534503937
1761338329477220600,7.032220703125,-0.29772281646728516,0.03918667882680893,-0.04519892856478691
1761338329487286300,7.042286376953125,-0.2675696909427643,-0.14199507236480713,0.004994722083210945
1761338329497351400,7.052351318359375,-0.22422567009925842,-0.26349595189094543,0.003020253963768482
1761338329507417300,7.062417236328125,-0.10193866491317749,-0.12996691465377808,-0.201095849275589
1761338329517482500,7.072482421875,0.09435414522886276,0.39699169993400574,-0.6246090531349182
1761338329527548700,7.082548583984375,0.25393909215927124,0.7844833731651306,-0.970998227596283
1761338329537614300,7.0926142578125,0.28147217631340027,0.6130663752555847,-0.7784258127212524
1761338329547679500,7.102679443359375,0.33242085576057434,0.4714091420173645,-0.3513581454753876
1761338329557745400,7.112745361328125,0.3367018699645996,0.39583370089530945,0.161418616771698
1761338329567810600,7.122810546875,0.14367571473121643,0.26545363664627075,0.65156489610672
1761338329577876200,7.132876220703125,-0.09061135351657867,0.16193334758281708,1.0114508867263794
1761338329587942400,7.1429423828125,-0.2497825026512146,0.2001112550497055,1.1199278831481934
1761338329598007600,7.153007568359375,-0.3244769871234894,0.21523348987102509,1.0635442733764648
1761338329608073500,7.163073486328125,-0.3143530488014221,0.20141750574111938,0.9568073153495789
1761338329618138600,7.173138671875,-0.24380670487880707,0.249002605676651,0.8724601864814758
1761338329628204300,7.183204345703125,-0.15737384557724,0.3664356470108032,0.7602295279502869
1761338329638270500,7.1932705078125,-0.05542032793164253,0.4145168960094452,0.6314396262168884
1761338329648335400,7.20333544921875,0.03187740594148636,0.395474910736084,0.5277194976806641
1761338329658401500,7.213401611328125,0.132124125957489,0.36523523926734924,0.4287641644477844
1761338329668467500,7.223467529296875,0.2451009303331375,0.3468504250049591,0.30885088443756104
1761338329678532400,7.233532470703125,0.34313270449638367,0.31832078099250793,0.12056192755699158
1761338329688598300,7.243598388671875,0.39492470026016235,0.3060835003852844,-0.13188782334327698
1761338329698663400,7.253663330078125,0.4039696156978607,0.2610936462879181,-0.39882445335388184
1761338329708729600,7.2637294921875,0.37576037645339966,0.1746673434972763,-0.6308478713035583
1761338329718795500,7.27379541015625,0.3281153440475464,0.022915897890925407,-0.7686951756477356
1761338329728860400,7.2838603515625,0.2661250829696655,-0.1907334178686142,-0.7904438376426697
1761338329738926300,7.29392626953125,0.21743400394916534,-0.4115118384361267,-0.7420669794082642
1761338329748991500,7.303991455078125,0.18123653531074524,-0.597207248210907,-0.6988898515701294
1761338329759057400,7.314057373046875,0.14868073165416718,-0.6861528158187866,-0.6803939342498779
1761338329769123600,7.32412353515625,0.0966721847653389,-0.6910301446914673,-0.6667959690093994
1761338329779188500,7.3341884765625,0.03872979059815407,-0.6253001093864441,-0.6528263092041016
1761338329789254400,7.34425439453125,0.007827130146324635,-0.5214458703994751,-0.6009049415588379
1761338329799319600,7.354319580078125,0.009613845497369766,-0.35542675852775574,-0.5138832330703735
1761338329809385500,7.364385498046875,0.04860623553395271,-0.11755508184432983,-0.4125816226005554
1761338329819451400,7.374451416015625,0.08056364208459854,0.11102722585201263,-0.31326940655708313
1761338329829516300,7.384516357421875,0.06995275616645813,0.29121971130371094,-0.23593966662883759
1761338329839582500,7.39458251953125,0.02809692546725273,0.410651832818985,-0.1585056036710739
1761338329849648400,7.4046484375,-0.016217553988099098,0.45772290229797363,-0.08779973536729813
1761338329859713500,7.414713623046875,-0.05828351527452469,0.41882237792015076,-0.047174543142318726
1761338329869779500,7.424779541015625,-0.09524180740118027,0.351436585187912,-0.03287256509065628
1761338329879844400,7.43484423828125,-0.13085652887821198,0.30509546399116516,-0.039153628051280975
1761338329889910500,7.44491064453125,-0.1646190583705902,0.2890618145465851,-0.06668322533369064
1761338329899976400,7.4549765625,-0.2039470225572586,0.2901502549648285,-0.10486363619565964
1761338329910041300,7.465041259765625,-0.2505093514919281,0.2934158742427826,-0.1469440758228302
1761338329920107300,7.475107177734375,-0.29326826333999634,0.28155574202537537,-0.1828237771987915
1761338329930172700,7.485172607421875,-0.3334783911705017,0.2643364667892456,-0.20252038538455963
1761338329940238600,7.495238525390625,-0.3777414858341217,0.24707062542438507,-0.20724615454673767
1761338329950304800,7.5053046875,-0.43259182572364807,0.19851915538311005,-0.2244713306427002
1761338329960369700,7.51536962890625,-0.48799487948417664,0.1591685563325882,-0.2431563436985016
1761338329970435600,7.525435546875,-0.5393323302268982,0.15431784093379974,-0.24133828282356262
1761338329980500700,7.535500732421875,-0.591116189956665,0.15631654858589172,-0.2314845770597458
1761338329990566700,7.545566650390625,-0.642751932144165,0.15443556010723114,-0.21574610471725464
1761338330000632800,7.5556328125,-0.6950939297676086,0.15131352841854095,-0.1694566309452057
1761338330010697700,7.56569775390625,-0.7511860728263855,0.15906724333763123,-0.11797308176755905
1761338330020763600,7.575763671875,-0.7989237904548645,0.17242033779621124,-0.06594796478748322
1761338330030828800,7.585828857421875,-0.8129220604896545,0.2061622142791748,-0.015195401385426521
1761338330040894700,7.595894775390625,-0.8064553737640381,0.24061818420886993,0.03200913220643997
1761338330050960600,7.605960693359375,-0.7872502207756042,0.2313096672296524,0.05444994568824768
1761338330061025500,7.616025634765625,-0.7487936615943909,0.15933187305927277,0.04928873851895332
1761338330071091700,7.626091796875,-0.6982839703559875,0.0510314479470253,0.016508249565958977
1761338330081157600,7.63615771484375,-0.6410030722618103,-0.07415816187858582,-0.03738507628440857
1761338330091222800,7.646222900390625,-0.6048176288604736,-0.1948826014995575,-0.10500197112560272
1761338330101288400,7.656288330078125,-0.5776864290237427,-0.29323849081993103,-0.17230190336704254
1761338330111353600,7.666353515625,-0.5525109171867371,-0.3231419026851654,-0.19594605267047882
1761338330121419800,7.676419677734375,-0.5279632210731506,-0.2985728979110718,-0.17388255894184113
1761338330131485700,7.686485595703125,-0.509095311164856,-0.25379684567451477,-0.1015002429485321
1761338330141550600,7.696550537109375,-0.5082800984382629,-0.18719357252120972,-0.0022282572463154793
1761338330151616500,7.706616455078125,-0.5393359065055847,-0.10665860027074814,0.09261662513017654
1761338330161681700,7.716681640625,-0.6127970814704895,-0.03151671588420868,0.14687000215053558
1761338330171747600,7.72674755859375,-0.7218188643455505,0.0045449938625097275,0.11974167823791504
1761338330181813800,7.736813720703125,-0.8177523016929626,-0.026347942650318146,0.007015930488705635
1761338330191878700,7.746878662109375,-0.862447202205658,-0.09818743914365768,-0.15912547707557678
1761338330201944600,7.756944580078125,-0.8719072937965393,-0.12661348283290863,-0.29956090450286865
1761338330212009700,7.767009765625,-0.8697085976600647,-0.10706600546836853,-0.37087923288345337
1761338330222075600,7.77707568359375,-0.8520427942276001,-0.05890512838959694,-0.37125420570373535
1761338330232141800,7.787141845703125,-0.8004835844039917,-0.07165748625993729,-0.29533910751342773
1761338330242206500,7.79720654296875,-0.6908401846885681,-0.14078277349472046,-0.13251368701457977
1761338330252272600,7.807272705078125,-0.5543533563613892,-0.23511675000190735,0.0540156289935112
1761338330262337800,7.817337890625,-0.4812951385974884,-0.31021228432655334,0.22290824353694916
1761338330272403700,7.82740380859375,-0.5703984498977661,-0.3616504967212677,0.30972975492477417
1761338330282469600,7.8374697265625,-0.8086126446723938,-0.3520441949367523,0.2732119560241699
1761338330292534500,7.847534423828125,-1.0715687274932861,-0.31620457768440247,0.0913732498884201
1761338330302600700,7.8576005859375,-1.2766281366348267,-0.3082348108291626,-0.20444908738136292
1761338330312665600,7.86766552734375,-1.423688530921936,-0.3461780250072479,-0.5205158591270447
1761338330322731800,7.877731689453125,-1.542482852935791,-0.3369520306587219,-0.8108392953872681
1761338330332797700,7.887797607421875,-1.6395032405853271,-0.27750489115715027,-1.03109610080719
1761338330342862600,7.897862548828125,-1.7139595746994019,-0.19991634786128998,-1.1538270711898804
1761338330352928500,7.907928466796875,-1.7703907489776611,-0.0936039462685585,-1.1518833637237549
1761338330362994700,7.91799462890625,-1.7907516956329346,0.03754555433988571,-1.03230619430542
1761338330373059800,7.928059814453125,-1.7699247598648071,0.18650054931640625,-0.8253753185272217
1761338330383125500,7.93812548828125,-1.713809609413147,0.3300215005874634,-0.5663884878158569
1761338330393190700,7.948190673828125,-1.6441348791122437,0.45254597067832947,-0.28556323051452637
1761338330403256600,7.958256591796875,-1.5934195518493652,0.5263983607292175,-0.023717235773801804
1761338330413322800,7.96832275390625,-1.5805742740631104,0.5448741316795349,0.20039014518260956
1761338330423387600,7.9783876953125,-1.586724877357483,0.5020246505737305,0.36157503724098206
1761338330433453600,7.98845361328125,-1.596644639968872,0.3901956379413605,0.47176340222358704
1761338330443518700,7.998518798828125,-1.5829893350601196,0.23785775899887085,0.5294352173805237
1761338330453584600,8.008584716796875,-1.5286585092544556,0.07616482675075531,0.5307354927062988
1761338330463649800,8.01864990234375,-1.4726829528808594,-0.06305031478404999,0.4540519118309021
1761338330473715500,8.028715576171875,-1.4431999921798706,-0.13786041736602783,0.29219290614128113
1761338330483781600,8.03878173828125,-1.439714789390564,-0.1455763876438141,0.07521132379770279
1761338330493846500,8.048846435546874,-1.4693242311477661,-0.09020058065652847,-0.18410664796829224
1761338330503912700,8.05891259765625,-1.5217463970184326,0.0021333452314138412,-0.43933361768722534
1761338330513977900,8.068977783203126,-1.5715864896774292,0.11629889905452728,-0.6471610069274902
1761338330524043500,8.07904345703125,-1.5868120193481445,0.23771162331104279,-0.7909051179885864
1761338330534109700,8.089109619140626,-1.5644067525863647,0.329909086227417,-0.8314574956893921
1761338330544174600,8.099174560546874,-1.531587839126587,0.40389570593833923,-0.7570149302482605
1761338330554240800,8.10924072265625,-1.5093185901641846,0.4792802035808563,-0.5936666131019592
1761338330564305700,8.1193056640625,-1.5016963481903076,0.5206375122070312,-0.38087841868400574
1761338330574371600,8.12937158203125,-1.482792854309082,0.5164326429367065,-0.1648501306772232
1761338330584437500,8.1394375,-1.439818263053894,0.48487791419029236,0.03083627298474312
1761338330594502700,8.149502685546874,-1.3722343444824219,0.43048858642578125,0.19001290202140808
1761338330604568800,8.15956884765625,-1.3079054355621338,0.3852792978286743,0.29280611872673035
1761338330614634800,8.169634765625,-1.2618273496627808,0.34239572286605835,0.3463784456253052
1761338330624699600,8.17969970703125,-1.2397401332855225,0.2661358416080475,0.34519892930984497
1761338330634765600,8.189765625,-1.2441729307174683,0.16912029683589935,0.30787786841392517
1761338330644830700,8.199830810546874,-1.2672373056411743,0.07443800568580627,0.23710913956165314
1761338330654896600,8.209896728515625,-1.3154462575912476,-0.007086275145411491,0.14087693393230438
1761338330664962800,8.219962890625,-1.3859037160873413,-0.07891812175512314,0.014091558754444122
1761338330675027700,8.23002783203125,-1.4741936922073364,-0.1344880759716034,-0.1244751363992691
1761338330685093600,8.24009375,-1.5670660734176636,-0.15554648637771606,-0.2723873555660248
1761338330695158800,8.25015869140625,-1.6520559787750244,-0.15915006399154663,-0.39854544401168823
1761338330705224700,8.260224609375,-1.6979960203170776,-0.16436481475830078,-0.4852995276451111
1761338330715290600,8.27029052734375,-1.69950532913208,-0.19668923318386078,-0.48820140957832336
1761338330725355500,8.28035546875,-1.6765278577804565,-0.25877177715301514,-0.40018418431282043
1761338330735421700,8.290421630859376,-1.6583625078201294,-0.32939693331718445,-0.23757466673851013
1761338330745486800,8.30048681640625,-1.6863723993301392,-0.3970031440258026,-0.03003053367137909
1761338330755552800,8.310552734375,-1.7774070501327515,-0.4307035505771637,0.19499802589416504
1761338330765618700,8.32061865234375,-1.9112404584884644,-0.4399806559085846,0.3985503613948822
1761338330775683600,8.33068359375,-2.010378360748291,-0.41268205642700195,0.5805878639221191
1761338330785749800,8.340749755859376,-2.0890376567840576,-0.2945306599140167,0.6925128102302551
1761338330795814700,8.350814697265625,-2.2001585960388184,-0.13119617104530334,0.7705889940261841
1761338330805880600,8.360880615234375,-2.1916418075561523,0.09784260392189026,0.8132166266441345
1761338330815946500,8.370946533203124,-2.0695972442626953,0.4014696478843689,0.7936000227928162
1761338330826011600,8.38101171875,-1.9660588502883911,0.6326274871826172,0.7066648602485657
1761338330836077600,8.39107763671875,-1.9098492860794067,0.6990131735801697,0.5612725615501404
1761338330846143700,8.401143798828125,-1.8608201742172241,0.5819563269615173,0.41038694977760315
1761338330856208600,8.411208740234375,-1.753064513206482,0.3092401921749115,0.30157190561294556
1761338330866274600,8.421274658203124,-1.58642578125,-0.06587375700473785,0.26452919840812683
1761338330876340700,8.4313408203125,-1.4325162172317505,-0.45541736483573914,0.28121379017829895
1761338330886406700,8.44140673828125,-1.357676386833191,-0.7277961373329163,0.34725937247276306
1761338330896471800,8.451471923828125,-1.3691970109939575,-0.7869710326194763,0.4182521104812622
1761338330906537700,8.461537841796876,-1.409002661705017,-0.6284381151199341,0.47877323627471924
1761338330916602600,8.4716025390625,-1.4239609241485596,-0.32925403118133545,0.5148820281028748
1761338330926668300,8.481668212890625,-1.4035427570343018,-0.01964906044304371,0.5573669075965881
1761338330936734500,8.491734375,-1.3792041540145874,0.17522898316383362,0.6818809509277344
1761338330946799600,8.501799560546875,-1.3859268426895142,0.236019104719162,0.8893553018569946
1761338330956865300,8.511865234375,-1.4235490560531616,0.16820135712623596,1.1242456436157227
1761338330966930400,8.521930419921874,-1.505788803100586,-0.006018113810569048,1.3034844398498535
1761338330976996400,8.531996337890625,-1.580743432044983,-0.3016396462917328,1.3778353929519653
1761338330987062500,8.5420625,-1.571717381477356,-0.7226318717002869,1.2659155130386353
1761338330997127200,8.552127197265625,-1.9947153329849243,-0.3932431936264038,0.7553986310958862
1761338331007193300,8.562193359375,-2.2826178073883057,0.02533116564154625,0.12139801681041718
1761338331017258500,8.572258544921874,-2.238786220550537,0.03595028445124626,-0.40107014775276184
1761338331027324400,8.582324462890625,-2.2175581455230713,0.03259576857089996,-0.8183579444885254
1761338331037390600,8.592390625,-2.2850825786590576,0.14025776088237762,-1.1075866222381592
1761338331047455200,8.602455322265625,-2.358968734741211,0.1783585399389267,-1.3027750253677368
1761338331057521400,8.612521484375,-2.40246319770813,0.09398741275072098,-1.400063395500183
1761338331067587300,8.62258740234375,-2.4068918228149414,-0.03999542444944382,-1.397470235824585
1761338331077652500,8.632652587890625,-2.3850691318511963,-0.2274346500635147,-1.2926667928695679
1761338331087718400,8.642718505859374,-2.360741376876831,-0.4818672239780426,-1.1164597272872925
1761338331097783300,8.652783203125,-2.3415558338165283,-0.6833338737487793,-0.8985193967819214
1761338331107849500,8.662849365234376,-2.3421809673309326,-0.79423987865448,-0.6813591718673706
1761338331117915400,8.672915283203125,-2.3550541400909424,-0.8257458806037903,-0.46608591079711914
1761338331127980500,8.68298046875,-2.388424873352051,-0.7578954100608826,-0.2982122302055359
1761338331138046500,8.69304638671875,-2.4472603797912598,-0.6125329732894897,-0.19072934985160828
1761338331148111400,8.703111328125,-2.5133070945739746,-0.41365501284599304,-0.16257548332214355
1761338331158177300,8.71317724609375,-2.5764341354370117,-0.1950443685054779,-0.17955435812473297
1761338331168243500,8.723243408203125,-2.615299701690674,-0.015656767413020134,-0.2184697985649109
1761338331178308600,8.73330859375,-2.6092545986175537,0.14353254437446594,-0.25098422169685364
1761338331188374500,8.74337451171875,-2.5744543075561523,0.23807983100414276,-0.28709322214126587
1761338331198439400,8.753439453125,-2.4919965267181396,0.30813440680503845,-0.29687798023223877
1761338331208505300,8.76350537109375,-2.362122058868408,0.38767266273498535,-0.2977626919746399
1761338331218571500,8.773571533203125,-2.191399335861206,0.42207053303718567,-0.3081795573234558
1761338331228636400,8.783636474609375,-2.013990640640259,0.39407724142074585,-0.31462520360946655
1761338331238702300,8.793702392578124,-1.869254469871521,0.30640390515327454,-0.32320645451545715
1761338331248767500,8.803767578125,-1.7692322731018066,0.1893923282623291,-0.3356865644454956
1761338331258833400,8.81383349609375,-1.7013438940048218,0.05057092010974884,-0.3491688370704651
1761338331268899300,8.8238994140625,-1.6448701620101929,-0.061086636036634445,-0.3486018478870392
1761338331278964500,8.833964599609375,-1.610693335533142,-0.12445609271526337,-0.33510804176330566
1761338331289030400,8.844030517578124,-1.5952086448669434,-0.12858372926712036,-0.2945036292076111
1761338331299096300,8.854096435546875,-1.5924335718154907,-0.080685093998909,-0.2523221969604492
1761338331309161500,8.864161376953126,-1.5878695249557495,-0.026442095637321472,-0.22359947860240936
1761338331319227400,8.874227294921875,-1.566999912261963,0.026073455810546875,-0.21572500467300415
1761338331329292300,8.884292236328125,-1.538160800933838,0.09682059288024902,-0.2333114594221115
1761338331339358200,8.894358154296874,-1.502107858657837,0.18362772464752197,-0.2526503801345825
1761338331349424400,8.90442431640625,-1.4724267721176147,0.2694646120071411,-0.2643299400806427
1761338331359489500,8.914489501953126,-1.460503339767456,0.3342212736606598,-0.25317877531051636
1761338331369555500,8.924555419921875,-1.4630815982818604,0.36900535225868225,-0.21547852456569672
1761338331379620400,8.934620361328125,-1.4729686975479126,0.35823169350624084,-0.1615065038204193
1761338331389686300,8.944686279296874,-1.4857110977172852,0.29490411281585693,-0.09532855451107025
1761338331399752400,8.95475244140625,-1.481095552444458,0.1942516267299652,-0.04120257869362831
1761338331409817300,8.9648173828125,-1.4264882802963257,0.10010434687137604,-0.012303553521633148
1761338331419883500,8.974883544921875,-1.3291337490081787,0.006258771754801273,-0.013156749308109283
1761338331429948400,8.984948486328125,-1.2042038440704346,-0.07930513471364975,-0.024435237050056458
1761338331440014300,8.995014404296874,-1.065462589263916,-0.16608965396881104,-0.0328858382999897
1761338331450080500,9.00508056640625,-0.9320544600486755,-0.25851279497146606,-0.03731600567698479
1761338331460145400,9.0151455078125,-0.8249497413635254,-0.3407844305038452,-0.035328082740306854
1761338331470211600,9.025211669921875,-0.7452117800712585,-0.40387123823165894,-0.034545380622148514
1761338331480276200,9.035276123046875,-0.6991477608680725,-0.44656267762184143,-0.011950638145208359
1761338331490342400,9.04534228515625,-0.6928706765174866,-0.4794684052467346,0.05471653863787651
1761338331500408300,9.055408203125,-0.7167214155197144,-0.47673341631889343,0.17179518938064575
1761338331510473500,9.065473388671874,-0.7636905312538147,-0.42605265974998474,0.24577300250530243
1761338331520539600,9.07553955078125,-0.8417560458183289,-0.3542563319206238,0.2172849327325821
1761338331530605300,9.085605224609376,-0.959411084651947,-0.2450030893087387,0.05625716596841812
1761338331540670500,9.09567041015625,-1.103389859199524,-0.15177349746227264,-0.21608799695968628
1761338331550736400,9.105736328125,-1.2628059387207031,-0.14565888047218323,-0.5678223371505737
1761338331560801500,9.115801513671874,-1.4178587198257446,-0.20091184973716736,-0.9180843234062195
1761338331570867200,9.1258671875,-1.5674657821655273,-0.20961318910121918,-1.1953181028366089
1761338331580933400,9.135933349609376,-1.7160933017730713,-0.15215110778808594,-1.3448392152786255
1761338331590998500,9.14599853515625,-1.853912115097046,-0.015368493273854256,-1.3437153100967407
1761338331601064400,9.156064453125,-1.95680570602417,0.16866852343082428,-1.1789478063583374
1761338331611129300,9.16612939453125,-2.0066707134246826,0.3611048460006714,-0.8925954103469849
1761338331621195300,9.1761953125,-1.9921220541000366,0.5013688206672668,-0.5639930367469788
1761338331631261400,9.186261474609376,-1.8917917013168335,0.5443748831748962,-0.22974582016468048
1761338331641326300,9.196326416015625,-1.7252918481826782,0.5466943383216858,0.07434817403554916
1761338331651392500,9.206392578125,-1.5321879386901855,0.5391085743904114,0.33827197551727295
1761338331661457400,9.21645751953125,-1.332366704940796,0.5007922053337097,0.5562666058540344
1761338331671523300,9.2265234375,-1.1559720039367676,0.41865450143814087,0.7024112939834595
1761338331681589200,9.23658935546875,-1.034290075302124,0.30899539589881897,0.733899712562561
1761338331691654400,9.246654296875,-0.9595968127250671,0.18604256212711334,0.7207990884780884
1761338331701720600,9.256720458984375,-0.9254546761512756,0.05289031192660332,0.6756993532180786
1761338331711785200,9.26678515625,-0.9149399995803833,-0.05540100485086441,0.6196550130844116
1761338331721851400,9.276851318359375,-0.9113026857376099,-0.12588247656822205,0.5476306676864624
1761338331731917300,9.286917236328126,-0.9181405901908875,-0.17890015244483948,0.4490090012550354
1761338331741982500,9.296982421875,-0.932462751865387,-0.21860109269618988,0.32269570231437683
1761338331752048400,9.30704833984375,-0.9614208936691284,-0.2584712505340576,0.17288783192634583
1761338331762113300,9.31711328125,-1.0206899642944336,-0.2919127643108368,0.00196631858125329
1761338331772179500,9.327179443359375,-1.1050052642822266,-0.31133466958999634,-0.1914135366678238
1761338331782245400,9.337245361328126,-1.1742886304855347,-0.3119190037250519,-0.3913695216178894
1761338331792310500,9.347310546875,-1.2210668325424194,-0.29822981357574463,-0.5962717533111572
1761338331802376400,9.35737646484375,-1.257364273071289,-0.26398923993110657,-0.7832766175270081
1761338331812442400,9.3674423828125,-1.2770875692367554,-0.19264420866966248,-0.9197292923927307
1761338331822507300,9.37750732421875,-1.271606683731079,-0.07308435440063477,-1.0091145038604736
1761338331832573400,9.387573486328124,-1.2373064756393433,0.10259692370891571,-1.0740705728530884
1761338331842638600,9.397638671875,-1.1866074800491333,0.3110458254814148,-1.0991778373718262
1761338331852704300,9.407704345703126,-1.1377092599868774,0.49347344040870667,-1.0795007944107056
1761338331862770400,9.4177705078125,-1.0994170904159546,0.5868387818336487,-1.018307089805603
1761338331872835300,9.42783544921875,-1.071756362915039,0.6041866540908813,-0.8933103084564209
1761338331882901500,9.437901611328124,-1.0314828157424927,0.5969123840332031,-0.7205648422241211
1761338331892966400,9.44796630859375,-0.9662449955940247,0.5949709415435791,-0.540353000164032
1761338331903032300,9.4580322265625,-0.8877825140953064,0.6098887920379639,-0.37007758021354675
1761338331913098200,9.46809814453125,-0.8385531306266785,0.6285274624824524,-0.20069441199302673
1761338331923163100,9.4781630859375,-0.816415011882782,0.6151214838027954,-0.044818583875894547
1761338331933229300,9.488229248046874,-0.8047437071800232,0.563957929611206,0.07890628278255463
1761338331943294000,9.4982939453125,-0.7901431322097778,0.4680311977863312,0.15624277293682098
1761338331953360100,9.508360107421876,-0.7643769979476929,0.32036611437797546,0.17427583038806915
1761338331963426000,9.518426025390625,-0.744384765625,0.14633885025978088,0.1352129727602005
1761338331973491200,9.5284912109375,-0.727210283279419,-0.04587613791227341,0.059054553508758545
1761338331983557000,9.53855712890625,-0.7190231680870056,-0.21081304550170898,-0.03523603454232216
1761338331993622000,9.5486220703125,-0.7115423679351807,-0.34677115082740784,-0.13592322170734406
1761338332003688200,9.558688232421876,-0.6800202131271362,-0.45281922817230225,-0.22762058675289154
1761338332013754000,9.568754150390625,-0.6405372023582458,-0.5133696794509888,-0.30034324526786804
1761338332023819300,9.5788193359375,-0.5954297780990601,-0.5194559693336487,-0.34517529606819153
1761338332033885200,9.58888525390625,-0.5612704753875732,-0.47955381870269775,-0.35161668062210083
1761338332043950000,9.5989501953125,-0.5419568419456482,-0.4177980422973633,-0.32454901933670044
1761338332054016000,9.60901611328125,-0.5410944819450378,-0.37003159523010254,-0.2710722088813782
1761338332064082200,9.619082275390625,-0.5425674915313721,-0.31947973370552063,-0.2186577469110489
1761338332074147300,9.629147216796875,-0.5379146933555603,-0.25843796133995056,-0.16500623524188995
1761338332084213200,9.639213134765624,-0.5250179767608643,-0.1728479564189911,-0.10403458029031754
1761338332094278100,9.649278076171875,-0.5073775053024292,-0.0683915987610817,-0.029042895883321762
1761338332104344000,9.659343994140626,-0.5124078392982483,0.013482727110385895,0.06930356472730637
1761338332114410200,9.66941015625,-0.5253851413726807,0.06273922324180603,0.15462404489517212
1761338332124475100,9.67947509765625,-0.5414538383483887,0.0860905647277832,0.22672349214553833
1761338332134541000,9.689541015625,-0.5443481206893921,0.09499803930521011,0.3024941384792328
1761338332144607000,9.69960693359375,-0.5405383706092834,0.07524919509887695,0.38224878907203674
1761338332154672000,9.709672119140626,-0.5433797240257263,0.01552327536046505,0.44929492473602295
1761338332164738300,9.71973828125,-0.5536114573478699,-0.061265721917152405,0.5126868486404419
1761338332174803200,9.72980322265625,-0.5655767917633057,-0.13294710218906403,0.5672361254692078
1761338332184869000,9.739869140625,-0.5703137516975403,-0.1986876130104065,0.6278454661369324
1761338332194935000,9.74993505859375,-0.5594704151153564,-0.24574699997901917,0.6875215768814087
1761338332205000200,9.760000244140626,-0.544680118560791,-0.2582920491695404,0.750704288482666
1761338332215066000,9.770066162109375,-0.5343896746635437,-0.20286527276039124,0.7833824157714844
1761338332225131000,9.780131103515625,-0.5218285322189331,-0.06886950135231018,0.751158595085144
1761338332235197200,9.790197265625,-0.49551087617874146,0.08483084291219711,0.6221316456794739
1761338332245263000,9.80026318359375,-0.4686306118965149,0.18205420672893524,0.4307750463485718
1761338332255328300,9.810328369140626,-0.4344835579395294,0.2303735315799713,0.2005133330821991
1761338332265394200,9.820394287109375,-0.38993820548057556,0.252802312374115,-0.021138601005077362
1761338332275459000,9.830458984375,-0.3522782027721405,0.23061522841453552,-0.22730721533298492
1761338332285525000,9.84052490234375,-0.3280504047870636,0.09506367146968842,-0.4139622449874878
1761338332295591200,9.850591064453125,-0.3161093294620514,-0.1384284347295761,-0.5805395245552063
1761338332305656300,9.86065625,-0.3157711923122406,-0.3729085326194763,-0.6998522281646729
1761338332315722200,9.87072216796875,-0.3380493223667145,-0.5319701433181763,-0.7743198275566101
1761338332325787100,9.880787109375,-0.38441890478134155,-0.5869522094726562,-0.790445864200592
1761338332335853000,9.89085302734375,-0.42736026644706726,-0.53990238904953,-0.7616629600524902
1761338332345919200,9.900919189453125,-0.4346245527267456,-0.36436766386032104,-0.6873759627342224
1761338332355984100,9.910984130859376,-0.3875928521156311,-0.060851458460092545,-0.5585489869117737
1761338332366050300,9.92105029296875,-0.29093068838119507,0.2942306697368622,-0.358939528465271
1761338332376115200,9.931115234375,-0.17444483935832977,0.5775479078292847,-0.08890032768249512
1761338332386181000,9.94118115234375,-0.08727051317691803,0.7283169031143188,0.19698229432106018
1761338332396247000,9.9512470703125,-0.03537056967616081,0.7564675807952881,0.4579603374004364
1761338332406312200,9.961312255859376,-0.006973632611334324,0.6923229694366455,0.6519924402236938
1761338332416378400,9.97137841796875,0.01011241041123867,0.5666923522949219,0.7556200623512268
1761338332426443000,9.981443115234375,0.01516922377049923,0.41129228472709656,0.7531731724739075
1761338332436509200,9.99150927734375,0.010402964428067207,0.2670094072818756,0.6364386081695557
1761338332446575000,10.0015751953125,0.009187230840325356,0.16475297510623932,0.3968062400817871
1761338332456640300,10.01164013671875,0.013685842975974083,0.07661619782447815,0.08074921369552612
1761338332466706000,10.021705810546875,-0.006090092938393354,0.02205354906618595,-0.26298168301582336
1761338332476771000,10.03177099609375,-0.05397292971611023,0.01717410609126091,-0.5877067446708679
1761338332486837200,10.041837158203125,-0.12897972762584686,0.036788150668144226,-0.8649852871894836
1761338332496903200,10.051903076171875,-0.2421899139881134,0.011104891076683998,-1.0810118913650513
1761338332506968300,10.06196826171875,-0.39648789167404175,-0.12379442155361176,-1.233830451965332
1761338332517034000,10.072033935546875,-0.5598595142364502,-0.28280460834503174,-1.3941388130187988
1761338332527099100,10.08209912109375,-0.6524341106414795,-0.33058881759643555,-1.5190765857696533
1761338332537165000,10.0921650390625,-0.6675184965133667,-0.2958934009075165,-1.533298373222351
1761338332547231200,10.102231201171875,-0.6428030729293823,-0.18047881126403809,-1.4133539199829102
1761338332557296000,10.112296142578124,-0.6301543712615967,-0.044753726571798325,-1.173051118850708
1761338332567362000,10.122362060546875,-0.6569879055023193,0.12728716433048248,-0.8821906447410583
1761338332577428200,10.13242822265625,-0.7060390710830688,0.32441169023513794,-0.5792081356048584
1761338332587493000,10.1424931640625,-0.762320339679718,0.44851216673851013,-0.30895546078681946
1761338332597559300,10.152559326171875,-0.8134127855300903,0.47633659839630127,-0.09180717170238495
1761338332607624000,10.1626240234375,-0.8419955372810364,0.505946695804596,0.08149786293506622
1761338332617690000,10.172690185546875,-0.8622896671295166,0.5377975702285767,0.18018555641174316
1761338332627756000,10.182756103515626,-0.8763923048973083,0.5627928972244263,0.21079875528812408
1761338332637821200,10.1928212890625,-0.8568739891052246,0.5834369659423828,0.19407916069030762
1761338332647887000,10.20288720703125,-0.8012405633926392,0.5708868503570557,0.1539861410856247
1761338332657952000,10.212951904296874,-0.731396496295929,0.49756306409835815,0.11020376533269882
1761338332668018200,10.22301806640625,-0.6927846074104309,0.3845580220222473,0.06539332866668701
1761338332678084000,10.233083984375,-0.6909254789352417,0.27150043845176697,0.03071257844567299
1761338332688149200,10.243149169921875,-0.7212041020393372,0.2312088906764984,0.03611971065402031
1761338332698215200,10.253215087890625,-0.7592849135398865,0.26533275842666626,0.09035045653581619
1761338332708280000,10.263280029296874,-0.7965480089187622,0.2624547779560089,0.15855920314788818
1761338332718346200,10.27334619140625,-0.8488764762878418,0.22776496410369873,0.19098292291164398
1761338332728412200,10.283412109375,-0.935500979423523,0.22427693009376526,0.15785467624664307
1761338332738477300,10.293477294921875,-1.077971339225769,0.2734455466270447,0.18966640532016754
1761338332748543200,10.303543212890625,-1.2262563705444336,0.18649137020111084,0.1546221673488617
1761338332758608100,10.313608154296874,-1.3070389032363892,0.21251869201660156,0.092380091547966
1761338332768674000,10.323674072265625,-1.3311645984649658,0.32493650913238525,0.027766600251197815
1761338332778740200,10.333740234375,-1.3283991813659668,0.4080215394496918,-0.06990376859903336
1761338332788805000,10.34380517578125,-1.296777367591858,0.4673765301704407,-0.16777700185775757
1761338332798871000,10.35387109375,-1.230645775794983,0.5023435354232788,-0.22499661147594452
