time,seconds_elapsed,z,y,x
1761336369904496400,0.080496337890625,1.6758505612164736,0.18707038557529448,-0.4249347369836643
1761336369914563300,0.090563232421875,1.558227221354842,0.17591010913550853,-0.533827365639992
1761336369924629500,0.10062939453125,1.3570523225814104,0.15784604465663432,-0.5633241302918642
1761336369934695400,0.1106953125,1.1667068608582019,0.19685002131164073,-0.5930052020020783
1761336369944762400,0.120762451171875,1.0938853702753781,0.3210378342553973,-0.66586760911718
1761336369954828500,0.13082861328125,1.192535129597783,0.5010945416763425,-0.7715588113836943
1761336369964894500,0.14089453125,1.4113503144800663,0.6483610323905944,-0.8377144143365323
1761336369974961400,0.15096142578125,1.6813462360233067,0.6807786163926124,-0.8875175790339708
1761336369985027600,0.161027587890625,1.8430711679399012,0.5772559903368354,-0.9047509648423642
1761336369995094500,0.171094482421875,1.8587801937252282,0.47160862721204755,-0.8977481734082102
1761336370005160400,0.181160400390625,1.8154075004667043,0.5183478742942214,-0.9322645563203841
1761336370015226600,0.1912265625,1.673095125028491,0.6778507462471723,-0.9966926778934896
1761336370025293600,0.20129345703125,1.503666779127717,0.8769079222142696,-1.0768427577987312
1761336370035359700,0.21135986328125,1.5024538962066172,1.0610992452219128,-1.1135988824617118
1761336370045425400,0.22142529296875,1.4789286437124014,1.1774965504199266,-1.0095435377687214
1761336370055492400,0.231492431640625,1.3308324241757392,1.2093746207177638,-0.8583980136640369
1761336370065558500,0.24155859375,1.2208417711496353,1.2248188580870627,-0.733767133127898
1761336370075625500,0.25162548828125,1.3720201746106147,1.3533914619863032,-0.5726095527704805
1761336370085691400,0.26169140625,1.7173586296468972,1.5551087970733641,-0.39316213635429736
1761336370095757600,0.271757568359375,2.0895383298575876,1.6185849516838788,-0.161223266004771
1761336370105824500,0.281824462890625,2.3923352817624806,1.49376702414304,0.10330927556604147
1761336370115890400,0.291890380859375,2.5483511883825063,1.294054891398549,0.3598877893924713
1761336370125956600,0.30195654296875,2.4112211840182542,1.1131272463619708,0.48752194339781996
1761336370136023600,0.3120234375,2.0272738891243933,0.9612067923620342,0.371394541182369
1761336370146089500,0.32208935546875,1.6033739385485648,0.878997880230844,0.1753745409540832
1761336370156155600,0.33215576171875,1.0596645362436772,0.8212383497014641,-0.02994666384384036
1761336370166222600,0.34222265625,0.47509413124024863,0.766851218214631,-0.15584171909689903
1761336370176288500,0.35228857421875,-0.10574410149753093,0.7717530187815428,-0.04745426348373294
1761336370186355700,0.362355712890625,-0.7276672088176012,0.8781184670478105,0.24624913525283335
1761336370196421600,0.372421630859375,-1.2745815446436404,1.089721236333251,0.5877183476403355
1761336370206487300,0.3824873046875,-1.6351806971758602,1.204827624937892,0.8149281436413526
1761336370216554500,0.392554443359375,-1.7856869004637002,1.1089470380678772,0.8890396740347146
1761336370226620400,0.402620361328125,-1.7672008111804722,0.8344557048015296,0.8547821612544357
1761336370236686600,0.4126865234375,-1.6681629293233156,0.48829665409736334,0.7282489542283117
1761336370246753500,0.42275341796875,-1.6063713667988777,0.07346702194474637,0.5780659915454686
1761336370256819500,0.4328193359375,-1.628920467737317,-0.3409071215253323,0.4776350478947162
1761336370266886400,0.442886474609375,-1.7849381279230117,-0.6728777070749551,0.4093786732703447
1761336370276952600,0.45295263671875,-1.8674112439483403,-0.8734931453347206,0.36002968208119274
1761336370287018500,0.4630185546875,-1.8702327311098574,-0.9204349292516708,0.31339594120010733
1761336370297085400,0.47308544921875,-1.9239163905024528,-0.9051296619616448,0.31482831209078427
1761336370307151600,0.483151611328125,-1.9472797304332254,-0.9487516538061201,0.3507055350273847
1761336370317217500,0.493217529296875,-1.844337826874852,-0.9980707613136619,0.43349502352550623
1761336370327284500,0.503284423828125,-1.6593033310413359,-0.9806057587064803,0.40990561975389717
1761336370337350700,0.5133505859375,-1.4230202940076588,-0.9812427414357662,0.3041187020279467
1761336370347417600,0.52341748046875,-1.2268985869705675,-1.0986140062324703,0.19523805607035755
1761336370357483500,0.5334833984375,-1.155326804187894,-1.2551118511505424,0.05464812051057815
1761336370367549400,0.543549560546875,-1.115581069254875,-1.3234998893305658,-0.0119807990424335
1761336370377616400,0.553616455078125,-1.1232675321042538,-1.2732459121257067,-0.00027151041775941846
1761336370387682600,0.5636826171875,-1.0934072313696146,-1.1749318875636905,0.08252177747264504
1761336370397748500,0.57374853515625,-1.0848866557836532,-1.0802310850627719,0.1855582274466753
1761336370407815400,0.5838154296875,-1.0959767895966768,-0.9902985198769718,0.27576895198673007
1761336370417881600,0.593881591796875,-1.10749654699862,-0.9497719367645681,0.30589462565928693
1761336370427947500,0.603947509765625,-1.1031284149169922,-0.9329154945097863,0.2383841009661555
1761336370438014500,0.614014404296875,-1.0998895791262389,-0.928974501799047,0.14309227376952766
1761336370448080600,0.62408056640625,-1.1693459771901369,-0.8572833304204046,0.03326309491544962
1761336370458147600,0.634147705078125,-1.3212065176963805,-0.7409410433452576,-0.12281842428669333
1761336370468213500,0.644213623046875,-1.4629688580363989,-0.630782413341105,-0.1995502201810479
1761336370478279700,0.65427978515625,-1.5085907915264367,-0.5721018224440515,-0.19101810028776525
1761336370488346000,0.66434619140625,-1.527803441518545,-0.6237707810133695,-0.1871224080234766
1761336370498411800,0.674411865234375,-1.5475082589417695,-0.7098511277504265,-0.17269027030616999
1761336370508478000,0.68447802734375,-1.5543132627815006,-0.7241874038778245,-0.14685308760777116
1761336370518545000,0.694544921875,-1.583345295998454,-0.5554059775784611,-0.08226181136220694
1761336370528611000,0.704611083984375,-1.6520739643096922,-0.3371067793942988,0.016936521753668783
1761336370538678000,0.714677978515625,-1.7055331672966478,-0.19400544553548096,0.10073197242394089
1761336370548744000,0.724743896484375,-1.6522838076680897,-0.17263123359531163,0.24265520241409538
1761336370558810000,0.73481005859375,-1.5219190596550702,-0.23232480092719196,0.30651816438511015
1761336370568877000,0.744876953125,-1.3670102374941109,-0.2724333047579974,0.2818178767621517
1761336370578943000,0.75494287109375,-1.1535627171248197,-0.2143649274751544,0.22099968931451439
1761336370589009200,0.765009033203125,-0.9533785829544067,-0.09639014382734894,0.18651728173717855
1761336370599076000,0.775076171875,-0.7386305013805627,-0.016389190069213508,0.16595365552753208
1761336370609142000,0.78514208984375,-0.5179582904547453,0.08278766186721623,0.16121552108973264
1761336370619209000,0.795208984375,-0.32635727571249007,0.2311855677641928,0.11607377233207225
1761336370629275100,0.805275146484375,-0.2368055996030569,0.34986506561525166,0.05918488715738058
1761336370639341000,0.815341064453125,-0.1697545091152191,0.43478915498927234,0.060171852368116376
1761336370649408000,0.825407958984375,-0.136531453949213,0.45280689610838887,0.12131532624736427
1761336370659474000,0.835473876953125,-0.11201485233008861,0.4376736243844032,0.1987906339854002
1761336370669539800,0.845539794921875,-0.11092647257149219,0.4405420194275677,0.2184149335183203
1761336370679607000,0.85560693359375,-0.09467091881930828,0.5114007585700601,0.24388255225196478
1761336370689673000,0.8656728515625,0.010641221001744269,0.604506400834024,0.33520971360132096
1761336370699739000,0.87573876953125,0.12384615989923477,0.6028467970587312,0.3966657605610788
1761336370709806000,0.88580615234375,0.24885493383705615,0.44256095803454515,0.43748467768356203
1761336370719872000,0.8958720703125,0.3007008564084768,0.13902955437526107,0.40637744562774897
1761336370729939000,0.90593896484375,0.2998690817594528,-0.18242160992138087,0.32590894742310045
1761336370740005000,0.916005126953125,0.23827684119939802,-0.4182072188269347,0.21502280686199665
1761336370750071000,0.926071044921875,0.12558218991160391,-0.5610219908293337,0.024214403802156448
1761336370760138000,0.936137939453125,0.04982347683310508,-0.6064380995489657,-0.13320406309217214
1761336370770204200,0.9462041015625,0.014390344402194022,-0.5959828295733779,-0.2287282377399504
1761336370780270000,0.95627001953125,-0.008723989203572273,-0.7237460898511111,-0.2823816481247544
1761336370790337000,0.9663369140625,0.03432195631861686,-0.9564459346357732,-0.3214265413120389
1761336370800403200,0.9764033203125,0.06934943055808544,-1.1601924374628811,-0.37018121986985203
1761336370810470100,0.98647021484375,0.07682838813662529,-1.2777766874231398,-0.44041678561270237
1761336370820535800,0.996535888671875,0.027211832052469253,-1.3178116145610808,-0.5120626565448939
1761336370830602000,1.00660205078125,-0.10091945782005786,-1.3089786120250821,-0.573574963736534
1761336370840669000,1.0166689453125,-0.22523206618726252,-1.277133567214012,-0.5771629052259027
1761336370850734800,1.02673486328125,-0.3764227446079254,-1.1981051117498427,-0.5758633669346571
1761336370860801000,1.036801025390625,-0.44848143412470814,-1.0961929896306246,-0.5412133477054536
1761336370870868000,1.046867919921875,-0.49436055724620814,-1.010202220873162,-0.488614707070589
1761336370880934000,1.056933837890625,-0.6500234126448631,-0.9389254755143076,-0.4136408607594669
1761336370891000000,1.067,-0.7837661126583814,-0.824753225954622,-0.34165421356558795
1761336370901067000,1.07706689453125,-0.8721955067396163,-0.620231427906081,-0.2900000141739845
1761336370911133000,1.0871328125,-0.88442312014997,-0.4456531518962234,-0.23885332591310143
1761336370921200000,1.0972001953125,-0.8418547290116548,-0.3373420494548976,-0.12047215342149138
1761336370931266000,1.10726611328125,-0.7611240727394819,-0.2642560627169907,0.017857874382287264
1761336370941332200,1.117332275390625,-0.6188508602678775,-0.22401932939663527,0.12072919692248105
1761336370951399200,1.127399169921875,-0.5082067117691039,-0.16801599488481878,0.171637400252372
1761336370961465000,1.137465087890625,-0.43783086077272887,-0.1466623873412609,0.14652356339246034
1761336370971531000,1.147531005859375,-0.4034019369482994,-0.1410187554311007,0.08540800043344497
1761336370981598000,1.157597900390625,-0.40615328148305413,-0.11469810006469487,0.032924949002265926
1761336370991663900,1.167663818359375,-0.379551105761528,-0.05175882880985737,0.05571297326311469
1761336371001730800,1.177730712890625,-0.3541536296546459,0.006640387862548232,0.1342677468009293
1761336371011797000,1.187796875,-0.326100086081028,0.05538878281004726,0.21425518349036574
1761336371021863000,1.19786279296875,-0.2877262240231037,0.04629493738077581,0.2677270998284221
1761336371031929900,1.207929931640625,-0.2599170105993748,0.025144743454828856,0.292524271954596
1761336371041996000,1.21799609375,-0.22445815920531748,0.015685937170684335,0.2881760136172175
1761336371052062000,1.22806201171875,-0.1681640250533819,0.027252164062857628,0.26458339497521516
1761336371062129000,1.23812890625,-0.041593993148207664,0.003668020988255739,0.20075068201199173
1761336371072195000,1.248195068359375,0.13708207356929777,-0.023671236836165187,0.14845102432370186
1761336371082261000,1.258260986328125,0.29317104542553424,-0.03737148008234799,0.09595233693197369
1761336371092328200,1.268328125,0.35865561724901196,-0.028537746893987057,0.09552578208297491
1761336371102394000,1.27839404296875,0.33149639216661453,0.03365691653862595,0.1312054366208613
1761336371112461000,1.2884609375,0.25324995392560956,0.12698818425200878,0.1910536099925637
1761336371122527200,1.29852734375,0.1612888785868883,0.17695676864422857,0.2340108543179929
1761336371132593000,1.308593017578125,0.05225099624097347,0.20859131250977514,0.21509192657545206
1761336371142659800,1.318659912109375,-0.00950315688252449,0.17262063913606107,0.14976692922785878
1761336371152726000,1.32872607421875,-0.008777180695533751,0.07965199418999254,0.03591302490234375
1761336371162792000,1.3387919921875,0.034818215402960775,0.022823899291828275,-0.06931289793998002
1761336371172859000,1.34885888671875,0.07614508204758166,0.005813654714822769,-0.1757075723007321
1761336371182925000,1.358925048828125,0.12979425464868544,0.034128260377421976,-0.2969521713994443
1761336371192992000,1.368991943359375,0.17721476199328898,0.050861368513479825,-0.3713819739617407
1761336371203058000,1.379057861328125,0.15822423031926156,-0.015502835688740014,-0.3847380068801343
1761336371213124000,1.3891240234375,0.14965397037267683,-0.124890115994215,-0.35589097484126686
1761336371223191000,1.39919091796875,0.09124678958952426,-0.1849392187654972,-0.38512320680543777
1761336371233257000,1.409257080078125,0.026480595168471333,-0.17520992497690022,-0.42807197556346654
1761336371243323100,1.4193232421875,0.009565700724720955,-0.15709624920263884,-0.39544790920391676
1761336371253390000,1.42939013671875,0.018738018217682836,-0.1311203886859119,-0.29726415995806454
1761336371263456000,1.4394560546875,0.016896774265170098,-0.07217530163377522,-0.16262027332112192
1761336371273522000,1.44952197265625,0.025508535265922543,0.003935220557078719,-0.033979718752205366
1761336371283589000,1.459589111328125,0.046451954573392865,0.046144934450834986,0.0828489636003971
1761336371293655000,1.469655029296875,0.04760404721796512,0.09248400323428213,0.17875220069363712
1761336371303722000,1.479721923828125,0.004403787916898727,0.11689246830381453,0.26331118308231233
1761336371313788000,1.489787841796875,-0.13934417328238485,0.07862944620922208,0.32908041706606744
1761336371323854000,1.49985400390625,-0.2875818471163511,-0.022386092396453023,0.29487244251593947
1761336371333921000,1.509921142578125,-0.3435767060607672,-0.05949811782501638,0.19561726464629173
1761336371343987000,1.519987060546875,-0.3412824576437473,-0.07186338614039123,0.09091112789437174
1761336371354053000,1.53005322265625,-0.2425397593408823,-0.13616042867973446,0.020838789889216423
1761336371364120000,1.5401201171875,-0.09488953000605106,-0.19696626810245216,-0.04383461168184876
1761336371374186000,1.55018603515625,0.0824438899308443,-0.22564006246626375,-0.0919511384665966
1761336371384252200,1.560252197265625,0.19749007278084754,-0.15400215564481914,-0.047971857617050404
1761336371394319000,1.570319091796875,0.2198994729876518,-0.09210603676736354,0.03922624110355973
1761336371404385000,1.580385009765625,0.1583177538216114,-0.03268018046095967,0.1432052326247096
1761336371414452000,1.590451904296875,0.12247487154603004,-0.020403978668525814,0.22098639144152402
1761336371424518100,1.60051806640625,0.10029869557321071,-0.019333646023273466,0.19680895864889025
1761336371434583800,1.610583740234375,0.11377893939316272,0.011711553646996617,0.1277517890356481
1761336371444651000,1.620651123046875,0.10421674579977988,0.05275770365409553,0.04897621235400438
1761336371454717000,1.630717041015625,0.05157236632704734,0.06824855664409697,-0.020461773270368574
1761336371464782800,1.640782958984375,0.005494505763053894,0.044495705939084286,-0.04030468399003148
1761336371474850000,1.65085009765625,-0.03288169438242912,-0.005948387010395527,-0.07951090521886944
1761336371484916000,1.660916015625,-0.05108078341782093,-0.06087189039625227,-0.10338336371555924
1761336371494982400,1.670982421875,-0.03541793486177921,-0.1284188746422529,-0.1549579219996929
1761336371505049300,1.68104931640625,-0.012176760005950927,-0.1768630990114063,-0.20016820594891904
1761336371515115500,1.691115478515625,-0.00014554595053195953,-0.18871603389047084,-0.21207769332081078
1761336371525182500,1.701182373046875,-0.008527005326747893,-0.15704152334071694,-0.21592998483479023
1761336371535248600,1.71124853515625,-0.0458230090200901,-0.09261047915816306,-0.2158157108053565
1761336371545314600,1.721314453125,-0.1024257707297802,-0.014176993912458418,-0.16244550127610563
1761336371555381500,1.731381591796875,-0.24912439842820167,0.026345643677189945,-0.13974369399398565
1761336371565447700,1.74144775390625,-0.35613398981690403,-0.03240121738910675,-0.13005538980290293
1761336371575513600,1.751513671875,-0.4355903883695602,-0.08177731578089296,-0.1504516966216266
1761336371585580500,1.76158056640625,-0.4932049574702978,-0.116478480675444,-0.22066373535841702
1761336371595646700,1.771646728515625,-0.4733756368845701,-0.15880539120808243,-0.2863537666261196
1761336371605713700,1.781713623046875,-0.38694939931929107,-0.16708075986132026,-0.31086539980918165
1761336371615779300,1.791779296875,-0.25729367635846134,-0.15039404815025625,-0.27128450004905463
1761336371625845500,1.801845458984375,-0.11153671342432499,-0.14096556393913923,-0.1726527147747576
1761336371635912400,1.811912353515625,0.011909048980474471,-0.11194894748702644,-0.07023527348190546
1761336371645978400,1.821978271484375,0.13011223455667495,-0.08054996594302356,-0.03211377874985337
1761336371656044500,1.83204443359375,0.16126900484263895,-0.1063237280163914,0.033820144276320935
1761336371666111500,1.842111572265625,0.08701835823953151,-0.12322042921632527,0.08356602582857012
1761336371676177400,1.852177490234375,-0.03434416815042496,-0.1283074501570314,0.1314209790676832
1761336371686243600,1.86224365234375,-0.18667174164652822,-0.12404307071082293,0.1279246613845229
1761336371696310500,1.872310546875,-0.22847265554368495,-0.14414061377868057,0.07838073214516043
1761336371706376400,1.88237646484375,-0.1644564027070999,-0.15352408980429172,0.014166326387971639
1761336371716443600,1.892443603515625,-0.036869887235760686,-0.1459434254169464,-0.011446253774315119
1761336371726509600,1.902509521484375,0.11421791533231734,-0.0944192821457982,0.04427461053431034
1761336371736575500,1.912575439453125,0.21904665555059907,-0.06002608722187578,0.12181406954973935
1761336371746642700,1.922642578125,0.271017081284523,-0.05017952372916042,0.18315744991526006
1761336371756708600,1.93270849609375,0.30054654262959957,-0.04853584817536175,0.18062793143764136
1761336371766774500,1.9427744140625,0.31625323032736774,-0.09091551180854439,0.16463687384054063
1761336371776841500,1.952841552734375,0.29982699618339537,-0.10790851298980414,0.14775485875308514
1761336371786907400,1.962907470703125,0.15111644414067268,-0.11535912125669419,0.1437175660610199
1761336371796973600,1.9729736328125,-0.09636953943073749,-0.12549509615004062,0.11852715683355927
1761336371807040500,1.98304052734375,-0.2992605944722891,-0.08710610958822071,0.05280322329625487
1761336371817106400,1.9931064453125,-0.3715478320479393,-0.04935987790934741,-0.03909428528696298
1761336371827173400,2.00317333984375,-0.37374154269993304,-0.04611490463875234,-0.11463657913580536
1761336371837239600,2.013239501953125,-0.34048341622054573,-0.027177637521922586,-0.1518929814711213
1761336371847305500,2.023305419921875,-0.3398275826603174,-0.0305032017480582,-0.10157762946784496
1761336371857372400,2.033372314453125,-0.34757658935189245,-0.023275150190666317,-0.08789104942083359
1761336371867438600,2.0434384765625,-0.34562428624033925,-0.023865444234013555,-0.1290088033594191
1761336371877504500,2.05350439453125,-0.3213233731985092,-0.05980455342568457,-0.15765154499784112
1761336371887571500,2.063571533203125,-0.29602468129098414,-0.08371741699799895,-0.19053148581460116
1761336371897637600,2.0736376953125,-0.24015841716229913,-0.08745192735120653,-0.1707644168101251
1761336371907704600,2.08370458984375,-0.1642290236920118,-0.06255567876473069,-0.14884747629538178
1761336371917770800,2.093770751953125,-0.09804770177602767,-0.03566007305458188,-0.08757672277465463
1761336371927836400,2.10383642578125,-0.019817045626044274,0.023783757299929854,-0.03056815674304962
1761336371937903400,2.1139033203125,0.0819604903280735,0.06454078816734254,0.027216508227586745
1761336371947969500,2.123969482421875,0.177039405426383,0.03785977505594492,0.04149389377459883
1761336371958035500,2.134035400390625,0.21579905193150042,0.023324907616525888,0.025123189210146665
1761336371968102400,2.144102294921875,0.24095979667305945,-0.0020859394285827875,0.040567572709918016
1761336371978168600,2.15416845703125,0.2302688913106918,-0.07112973810359835,0.0392341321490705
1761336371988234500,2.164234375,0.17501988229751586,-0.13600494585707784,0.02935103603824973
1761336371998301400,2.174301513671875,0.07447159587740898,-0.11919921087622642,0.0068387599788606165
1761336372008367600,2.18436767578125,-0.04327332453727722,-0.06583703852295875,0.022951982650905846
1761336372018434600,2.1944345703125,-0.1634381655752659,-0.03883687645979225,0.021909780121594665
1761336372028500500,2.20450048828125,-0.24905191771388052,-0.05654167917221784,0.04235343321338296
1761336372038566700,2.214566650390625,-0.3115484136372804,-0.10125774986371397,0.04757949729859828
1761336372048633600,2.224633544921875,-0.3433487425237894,-0.10432583219744264,0.05474997344985604
1761336372058699500,2.234699462890625,-0.3205389448225498,-0.07516900355704129,0.05882891332656145
1761336372068765400,2.244765380859375,-0.2723053675293922,-0.0376624989181757,0.018625936145335434
1761336372078832600,2.25483251953125,-0.23366730157732962,-0.01417085643261671,-0.010412234551459551
1761336372088898300,2.264898193359375,-0.19244915600419044,-0.039103345376253124,-0.050653351785987615
1761336372098964500,2.274964599609375,-0.13937866007387636,-0.07883337128348648,-0.06490618741363287
1761336372109031400,2.285031494140625,-0.08667582841217518,-0.05467193977758288,-0.06520736231729388
1761336372119097300,2.295097412109375,-0.008123685222864151,-0.03226977302916348,-0.06790069305449724
1761336372129164500,2.30516455078125,0.0784662184715271,-0.03717493459694087,-0.046614159397780894
1761336372139230500,2.31523046875,0.15306173298954961,-0.0801688576709479,-0.04259922466799616
1761336372149296600,2.325296630859375,0.19627368272840975,-0.10871778354607523,-0.04621332351192832
1761336372159363600,2.335363525390625,0.2076911487996578,-0.1479652866333723,-0.0840438724733889
1761336372169429500,2.345429443359375,0.1689525450825691,-0.1847428194105625,-0.12965206969901918
1761336372179495700,2.35549560546875,0.09537702126204967,-0.194535022367537,-0.14202639810368417
1761336372189562600,2.365562744140625,0.04018412635028362,-0.16868271516524255,-0.14632833308130502
1761336372199628500,2.375628662109375,0.03998948056101799,-0.10279131610654293,-0.09944719331040978
1761336372209695500,2.385695556640625,0.0658697717487812,-0.056830213790014385,-0.032703707467019554
1761336372219761700,2.39576171875,0.06458674620091914,-0.04155329581163823,0.01911737292408943
1761336372229827300,2.405827392578125,0.03044014644920826,-0.01103014725409448,0.07231207975596189
1761336372239894300,2.415894287109375,-0.024856208837032316,-0.001891220574080944,0.09154840288460254
1761336372249960400,2.42596044921875,-0.0963905822187662,-0.035704935109615324,0.10075593782141803
1761336372260026400,2.4360263671875,-0.12065642394721507,-0.08116064518727362,0.06377119203433394
1761336372270093600,2.446093505859375,-0.11877017180919647,-0.11631868700385092,-0.0069333063945174215
1761336372280159500,2.456159423828125,-0.09733341602683067,-0.11896226031519472,-0.06416837465837598
1761336372290225400,2.466225341796875,-0.06756780783832073,-0.11039762639179825,-0.08894012008234858
1761336372300292600,2.476292724609375,-0.05283610265254974,-0.07472878550887108,-0.0674893357746303
1761336372310358500,2.486358642578125,-0.05591361040174961,-0.033300723512098195,-0.05148556482642889
1761336372320425500,2.496425537109375,-0.06409983946681022,-0.011286460102722048,-0.05108122180923819
1761336372330491600,2.50649169921875,-0.09920856224894523,-0.01959324680753052,-0.07935878339707851
1761336372340557600,2.5165576171875,-0.11758242332935333,-0.044203518059477205,-0.08291340713873505
1761336372350624500,2.52662451171875,-0.11958908697664737,-0.005653203456103801,-0.06389891006723046
1761336372360690700,2.536690673828125,-0.09875088160932063,0.009525807105749845,-0.06365194956883788
1761336372370756600,2.546756591796875,-0.026059154886007307,-0.04396693282462656,-0.06039090194627642
1761336372380823600,2.556823486328125,0.03370294763743877,-0.08050729584507643,-0.06660203154608607
1761336372390889500,2.566889404296875,0.056501639422774315,-0.05523118109554052,-0.08254092056453227
1761336372400955400,2.576955322265625,0.06701835726201534,-0.023773601232096552,-0.0743117291405797
1761336372411022300,2.587022216796875,0.07252104633152484,-0.0021861849326640366,-0.08235884199589491
1761336372421088500,2.597088623046875,0.06495148786008358,-0.011854907640442251,-0.07547551222294568
1761336372431155500,2.607155517578125,0.05740706382989883,-0.05508782710209489,-0.08052037452235818
1761336372441221400,2.617221435546875,0.08312485793232917,-0.1267572981055826,-0.09980287488028407
1761336372451287600,2.62728759765625,0.1526017142623663,-0.18861922245249152,-0.11786182479262351
1761336372461354500,2.6373544921875,0.21574469139575958,-0.19631766800060868,-0.13116758882850407
1761336372471420400,2.64742041015625,0.22895663966834542,-0.1287691493846476,-0.1330478496171534
1761336372481486600,2.657486572265625,0.13825228639245032,-0.04566153484806418,-0.08881517852842807
1761336372491553500,2.667553466796875,-0.06079962887763977,0.01935527333319187,0.011533639796823262
1761336372501619500,2.677619384765625,-0.256324539065361,0.07543057710267603,0.09079524642974138
1761336372511686700,2.687686767578125,-0.3898071268379688,0.13661241023093462,0.1241198622740805
1761336372521752600,2.697752685546875,-0.48191257908344265,0.11572284000255167,0.0791805042207241
1761336372531818500,2.707818603515625,-0.4853396309226751,0.009831365923583506,0.020238339778035876
1761336372541885700,2.7178857421875,-0.4306394879639148,-0.07237213938012718,-0.005322656327486038
1761336372551951400,2.727951416015625,-0.3597188625663519,-0.09736797588355839,0.03092836835756898
1761336372562017500,2.738017578125,-0.2812619964450598,-0.08221519574150443,0.07243146835193037
1761336372572084500,2.74808447265625,-0.18243161985874176,-0.08749605875387788,0.08136690834909677
1761336372582150400,2.758150390625,-0.08906944555044173,-0.08421228784285485,0.046795215053111315
1761336372592216600,2.768216552734375,-0.006617956835031509,-0.09519435817152261,0.0014908230796456337
1761336372602283500,2.778283447265625,0.000021627309918403625,-0.11637713919281958,-0.008306786704808474
1761336372612349400,2.788349365234375,-0.016559505134820938,-0.14128639339134097,-0.023487843093276024
1761336372622416400,2.79841650390625,-0.033122517400979996,-0.14001440069414675,-0.007075199083238839
1761336372632482600,2.808482666015625,-0.07433715584278107,-0.12277473127543925,0.018063041565567255
1761336372642548500,2.818548583984375,-0.13003390862345696,-0.12191957575082778,0.0558291469886899
1761336372652615400,2.828615478515625,-0.09816986685097218,-0.10619739822298288,0.08471110421046614
1761336372662681600,2.838681640625,-0.0628717589765787,-0.09436243739202618,0.06746171711534261
1761336372672747500,2.84874755859375,-0.012254501417279243,-0.07664397148042917,0.04272212039530277
1761336372682814700,2.858814697265625,0.043698856472969054,-0.05891841824091971,0.05922858016863465
1761336372692880400,2.86888037109375,0.11016133341789244,-0.061334831732884044,0.06118102941066026
1761336372702947600,2.878947509765625,0.16087737517654896,-0.09873729147538542,0.08644947231039404
1761336372713013500,2.889013427734375,0.1515513284265995,-0.1241569063488394,0.08694982304796577
1761336372723079400,2.899079345703125,0.11374912877678871,-0.12014657472893595,0.07222323242872954
1761336372733146400,2.909146484375,0.05631868407130241,-0.09510770280137658,0.02221723863556981
1761336372743212500,2.919212646484375,0.022482465443015097,-0.07419657832831143,-0.041313861032575366
1761336372753278500,2.929278564453125,-0.015938158366084098,-0.05748341700173914,-0.05321195022761822
1761336372763345400,2.939345458984375,-0.03197802354097366,-0.06097476624883711,-0.05463160776719451
1761336372773411600,2.94941162109375,-0.059006315720081325,-0.050281084407493466,-0.05953823063969612
1761336372783477500,2.9594775390625,-0.10604513027071952,-0.025644363540038465,-0.07918824913576245
1761336372793544400,2.96954443359375,-0.0984475147485733,-0.03285539089739323,-0.07411985983029007
1761336372803610600,2.979610595703125,-0.09908522813022136,-0.04101202854178845,-0.10009162869378924
1761336372813677600,2.989677490234375,-0.14112345791459083,-0.05953114331178367,-0.11999386838525533
1761336372823743500,2.999743408203125,-0.18697160137593746,-0.09845204479321837,-0.12303645095154642
1761336372833809700,3.0098095703125,-0.22384207313358784,-0.11743329718224703,-0.0764943338766694
1761336372843876600,3.019876708984375,-0.21458967614173888,-0.11797251862548291,-0.04777867313250899
1761336372853942300,3.0299423828125,-0.18418752361536025,-0.093513273216784,-0.036262715122848746
1761336372864008400,3.040008544921875,-0.1140583408564329,-0.09080058019198477,-0.03699585170298814
1761336372874075400,3.050075439453125,0.012233458629250526,-0.08847403694055973,-0.060447892830520863
1761336372884141600,3.0601416015625,0.12555588642656804,-0.07598097752705216,-0.07303308750689029
1761336372894207500,3.07020751953125,0.15951660821735858,-0.0529093870844692,-0.05054886849820613
1761336372904274400,3.0802744140625,0.1335562375307083,-0.038929815440252424,0.0044580023221671575
1761336372914340600,3.090340576171875,0.06596621786057949,-0.04491897285245359,0.058241614957898855
1761336372924407600,3.100407470703125,-0.013026070311665534,-0.013092851937562227,0.08094166867434978
1761336372934473500,3.110473388671875,-0.11009469792246818,-0.02198657168485224,0.09446940489783882
1761336372944539600,3.12053955078125,-0.17411854954361913,-0.062865621496737,0.10690189323052764
1761336372954606600,3.130606689453125,-0.1959182934194803,-0.04730265311859548,0.07621098689064383
1761336372964672500,3.140672607421875,-0.16829203534722328,-0.007538505746051668,0.05856017938777804
1761336372974738700,3.15073876953125,-0.1311865857899189,0.010925956227257847,0.045903234649449585
1761336372984805600,3.1608056640625,-0.056384735044836994,-0.008482362467423081,0.03419350763335824
1761336372994871600,3.17087158203125,-0.011999649873375892,-0.045998146391287444,0.014963321984559297
1761336373004938500,3.1809384765625,0.015265373671054839,-0.060924716562032695,-0.004215571868419647
1761336373015004400,3.19100439453125,0.02298866139948368,-0.04621989938318729,-0.008807283572852612
1761336373025070300,3.2010703125,0.021947043392062184,-0.04497209127917885,-0.011552929019182919
1761336373035137500,3.211137451171875,-0.004542319604754447,-0.028725086159631607,-0.02391892798691988
1761336373045203500,3.221203369140625,-0.08933832561969757,0.00951915816925466,-0.04473024534732103
1761336373055269400,3.231269287109375,-0.18789982213675974,0.044251887245848776,-0.0786558958247304
1761336373065336600,3.241336669921875,-0.23090017495155332,0.03439516768530011,-0.14816460859775543
1761336373075402500,3.251402587890625,-0.2165051543742418,-0.0320545959085226,-0.19355361011475322
1761336373085468400,3.261468505859375,-0.1588759722262621,-0.11362776741944253,-0.2501185240320861
1761336373095535600,3.27153564453125,-0.04181786503195763,-0.1690145774681121,-0.3008135230027139
1761336373105601500,3.2816015625,0.08448971654474735,-0.19322101715952156,-0.31734935500100253
1761336373115668500,3.29166845703125,0.1836848347902298,-0.15992898841053246,-0.27975436836108564
1761336373125734700,3.301734619140625,0.17627543531656265,-0.08544285255111754,-0.1810730448566377
1761336373135800600,3.311800537109375,0.09556582183241843,0.0025808833386749028,-0.05734218190014362
1761336373145867500,3.321867431640625,-0.023093875339627264,0.044770504292473194,0.024079963767528533
1761336373155933700,3.33193359375,-0.14975801526904106,-0.002154693815857172,0.06008797347694635
1761336373165999400,3.341999267578125,-0.24588848524689674,-0.021180881325155495,0.05087225523367524
1761336373176066300,3.35206640625,-0.2394768646389246,-0.033321474039182064,0.0036826340354979034
1761336373186132500,3.362132568359375,-0.16949731948375701,-0.07603482660613954,0.005254267266392707
1761336373196198400,3.372198486328125,-0.12827683582305907,-0.1137356117080897,0.01706321687325835
1761336373206265300,3.382265380859375,-0.07992927676141262,-0.11793437857218086,0.0674386285007
1761336373216331500,3.39233154296875,-0.006617956835031509,-0.0949634720250964,0.09961597400605678
1761336373226398500,3.4023984375,0.04362403767108917,-0.08344985210299491,0.09727817870825528
1761336373236464400,3.41246435546875,0.09403145187199115,-0.08812653867714107,0.09359700597748159
1761336373246530600,3.422530517578125,0.09540157118141651,-0.09160093678943812,0.06518135109320282
1761336373256597500,3.432597412109375,0.08154080361127852,-0.10455803351812064,0.04845934887304902
1761336373266663400,3.442663330078125,0.01410685128569603,-0.12711071465313434,0.043996670375764366
1761336373276729600,3.4527294921875,-0.08213935402631758,-0.12860614084266125,0.0489554618269205
1761336373286796500,3.462796630859375,-0.2004670427650213,-0.1060517792072147,0.052836833304911845
1761336373296862700,3.47286279296875,-0.27200375423431394,-0.10426533418186008,0.0499896271802485
1761336373306929700,3.4829296875,-0.2682499546587467,-0.09870894216373562,0.00539294508472085
1761336373316995600,3.49299560546875,-0.22867606916129588,-0.07690328000374137,-0.042823973334580656
1761336373327061500,3.5030615234375,-0.15330080244243144,-0.07475655029863118,-0.08432765785083174
1761336373337128400,3.51312841796875,-0.04457213217616081,-0.08375672609508036,-0.1058944697536528
1761336373347194400,3.5231943359375,0.057125908800959586,-0.10745499706864356,-0.09886822437867522
1761336373357260500,3.533260498046875,0.10939385617673396,-0.12253829217106103,-0.07965688956081866
1761336373367327500,3.543327392578125,0.12073007370531558,-0.11068747618384658,-0.061049658115953205
1761336373377393400,3.553393310546875,0.12449030302166939,-0.07589761009253561,-0.028627397938817738
1761336373387459600,3.56345947265625,0.08960545212328433,-0.04942081431634724,-0.006654781714081764
1761336373397526500,3.573526611328125,0.006264905613660812,-0.04230221448279917,-0.0012583294980227947
1761336373407592400,3.583592529296875,-0.06112696113586425,-0.059501771086826916,0.020167028107494114
1761336373417659600,3.59365966796875,-0.11155191099345683,-0.06047317340224981,0.05110474881529808
1761336373427725600,3.6037255859375,-0.13323708857893943,-0.0812955236133188,0.05438640083447099
1761336373437791500,3.61379150390625,-0.16097382128834722,-0.09747158238850534,0.007652560579776763
1761336373447858700,3.623858642578125,-0.16488544177412987,-0.10907317285500466,-0.029734482397884128
1761336373457924600,3.633924560546875,-0.1530021117568016,-0.087954616176337,-0.03343056043684482
1761336373467990300,3.643990234375,-0.1156143381267786,-0.08486666009835898,0.0004300619803369045
1761336373478057700,3.6540576171875,-0.06897709011435509,-0.08361519873254,0.017756898225843906
1761336373488123400,3.664123291015625,-0.0741524469256401,-0.05930661384090781,0.03951119552478194
1761336373498189600,3.674189453125,-0.11319207941591738,-0.04334390555545688,0.06416749787554145
1761336373508256500,3.684256591796875,-0.12803309019505976,-0.06856419846452773,0.0811794229529798
1761336373518322400,3.694322509765625,-0.1434428407728672,-0.11545184104144572,0.047407209471613164
1761336373528389400,3.704389404296875,-0.1471159763276577,-0.12498919245451688,0.016003040295839308
1761336373538455600,3.71445556640625,-0.12261983297467231,-0.0867570038896054,-0.003238981921225786
1761336373548521500,3.724521484375,-0.10123743772804736,-0.07604556719586253,-0.01077536877542734
1761336373558588400,3.73458837890625,-0.07898702747523784,-0.0982706968769431,-0.007330196757614612
1761336373568654600,3.744654541015625,-0.07192951017916202,-0.1082943705022335,-0.013281798638403414
1761336373578720500,3.754720458984375,-0.05083060804903507,-0.11974098960272968,-0.039541152271628376
1761336373588787500,3.764787353515625,-0.03690495854914188,-0.1156083467774093,-0.053178340218961236
1761336373598853600,3.774853515625,-0.03254617881774902,-0.08426489481292665,-0.055468789243698115
1761336373608920600,3.784920654296875,-0.038025487011671064,-0.04166201688311994,-0.032371845164149995
1761336373618986500,3.794986572265625,-0.04720598781108856,-0.03465827560089528,-0.009141776224225759
1761336373629052400,3.805052490234375,-0.04671323585808277,-0.05628843506351113,-0.0008333820842206477
1761336373639119600,3.81511962890625,-0.011283026036620139,-0.07595810810811818,-0.0003721943132579326
1761336373649185500,3.825185546875,0.04174655336141586,-0.10615933123491704,-0.01066518639922142
1761336373659251500,3.83525146484375,0.09360299732685089,-0.11561857591047882,0.0007207154899835586
1761336373669318400,3.845318359375,0.11070610781908034,-0.10331387867592275,0.009723375504463911
1761336373679384600,3.855384521484375,0.0690156685590744,-0.0785499512322247,0.020528408765792844
1761336373689450500,3.865450439453125,0.026950550767779347,-0.004863149056956171,0.02605126384049654
1761336373699517400,3.875517333984375,-0.027307109120488164,0.0200265236582607,0.02509688572511077
1761336373709583600,3.88558349609375,-0.06827274123728275,-0.044883024756237865,0.020271657525748013
1761336373719650600,3.895650634765625,-0.08219897525906562,-0.12249328398555516,-0.015960077936947346
1761336373729716500,3.905716552734375,-0.07760814033746719,-0.1363902919128537,-0.07391001647189259
1761336373739782700,3.91578271484375,-0.07780746230185032,-0.11330058129169046,-0.11962927285656333
1761336373749849600,3.925849609375,-0.08305237721800804,-0.1127931432262063,-0.13197817455902694
1761336373759915500,3.93591552734375,-0.10461012903153896,-0.10847652213610708,-0.1260018766283989
1761336373769981700,3.945981689453125,-0.11631342630684376,-0.0763079444590956,-0.10782806816473603
1761336373780048600,3.956048583984375,-0.1746826131671667,-0.04140563096925616,-0.03975786376222968
1761336373790114300,3.9661142578125,-0.24825462985634802,-0.01996339529417455,0.0352963543087244
1761336373800181500,3.976181396484375,-0.2700502820789814,0.005527969641238451,0.05682809489816427
1761336373810247400,3.986247314453125,-0.23486790953874587,0.0150187054336071,0.0068583414621651165
1761336373820313300,3.996313232421875,-0.16567805345654488,-0.037395518545061346,-0.06364595821946858
1761336373830380500,4.006380615234375,-0.08489303664863108,-0.08689962723068892,-0.10511515594422817
1761336373840446500,4.016446533203125,-0.02171732628941536,-0.11628734201751649,-0.13905030490234493
1761336373850512400,4.026512451171875,0.02936345712840557,-0.14025558903887866,-0.1388373928040266
1761336373860579600,4.03657958984375,0.03567453997135162,-0.14589527542628347,-0.12655118107423186
1761336373870645500,4.0466455078125,-0.023358663755655287,-0.09052322455532848,-0.09274068140909075
1761336373880711700,4.056711669921875,-0.09759995800852775,-0.01847549482397735,-0.023732027112692594
1761336373890778600,4.066778564453125,-0.15490940668284892,0.023336159662902353,0.010369126062095165
1761336373900844500,4.076844482421875,-0.18895722223520278,0.006059080843254924,0.012042612232267855
1761336373910911500,4.086911376953125,-0.16704291206896305,-0.03969634283334016,0.0065315937258303165
1761336373920977700,4.096977783203125,-0.0906008929014206,-0.07577982893176376,-0.02070537276789546
1761336373931043600,4.107043701171875,0.0008007949888706207,-0.1213958441376686,-0.043281946235150096
1761336373941110500,4.117110595703125,0.08960954377651215,-0.16927388599142432,-0.056939884709566825
1761336373951176400,4.127176513671875,0.13361118258833884,-0.17117387439385057,-0.0636466888718307
1761336373961242400,4.137242431640625,0.14594517898261547,-0.11800291376374661,-0.03584010579660535
1761336373971309300,4.147309326171875,0.11587678845524788,-0.05250540939345955,0.01509425488784909
1761336373981375500,4.15737548828125,0.0672422291457653,-0.0020859394285827875,0.05317527147904038
1761336373991441400,4.16744140625,0.0038677813440561293,0.0028601386714726686,0.07569631536677479
1761336374001508400,4.17750830078125,-0.05475625706017017,-0.03449877419024706,0.05150704600587487
1761336374011574500,4.187574462890625,-0.08618833715617656,-0.06059891867376863,0.028154811991006133
1761336374021641500,4.197641357421875,-0.07571428941488266,-0.07388086344264447,-0.0014776713371276854
1761336374031707600,4.207707763671875,-0.015596213060617446,-0.10661934996210037,-0.017351386164873837
1761336374041773600,4.217773681640625,0.02182663188278675,-0.16090755111910401,-0.014741057536005972
1761336374051840500,4.227840576171875,0.029289222848415373,-0.17888591007590293,-0.020441315004229545
1761336374061906700,4.23790673828125,0.03537175763249397,-0.13851159491576254,-0.02244973221719265
1761336374071972600,4.24797265625,0.017020692905783653,-0.08079473448432982,-0.03262450475096702
1761336374082039600,4.25803955078125,-0.06649521017074585,-0.07698854713439941,-0.031820494891703126
1761336374092105500,4.26810546875,-0.13199088791012764,-0.1091227110851556,-0.03124035691618919
1761336374102171400,4.27817138671875,-0.19066285710930822,-0.11011186825297772,-0.06783011203631759
1761336374112238300,4.28823828125,-0.24408289712965486,-0.09796879132091998,-0.09811682148948311
1761336374122304500,4.298304443359375,-0.26753508438766,-0.10090294507667422,-0.11017433902993798
1761336374132371500,4.308371337890625,-0.2535533207863569,-0.0439084806356579,-0.08700915201976894
1761336374142437400,4.318437255859375,-0.217978149536252,0.019940891201421618,-0.04881254622489214
1761336374152503600,4.328503662109375,-0.16005436835587022,-0.01198788637034595,-0.009575637596845626
1761336374162570500,4.338570556640625,-0.13245733637809753,-0.04280081165470183,0.013930764066427945
1761336374172636400,4.348636474609375,-0.11063596519231796,-0.04016286436654627,-0.005984627367556095
1761336374182702600,4.35870263671875,-0.07267711367607116,-0.011749401439353824,-0.01995367761775851
1761336374192769500,4.36876953125,-0.05944412261545658,-0.002642331202328205,-0.015684037474542854
1761336374202835500,4.37883544921875,-0.02416764205098152,0.00774988347440958,-0.01626475997194648
1761336374212902700,4.388902587890625,0.000026888006925582884,0.027619755266234277,-0.005707563991844654
1761336374222968600,4.398968505859375,-0.024897125369310377,0.059670478717237706,-0.0016821078680455683
1761336374233034500,4.409034423828125,-0.05300561400055885,0.03843969383575022,-0.007687047371268272
1761336374243101700,4.419101806640625,-0.06328092429935932,0.004149813155829906,-0.024940087728202342
1761336374253167400,4.42916748046875,-0.04754676407277584,-0.004988236741349101,-0.056684594774246214
1761336374263234600,4.439234619140625,-0.0009054244071245193,-0.006220847276225685,-0.07808949411362409
1761336374273300500,4.449300537109375,0.05513035106956959,-0.018797347189486027,-0.05565992790162563
1761336374283366400,4.459366455078125,0.09367138638794421,-0.029841449903696773,-0.02493570381402969
1761336374293433300,4.469433349609375,0.10804419513344764,-0.01708360207416117,-0.01784618394449353
1761336374303499500,4.47949951171875,0.09818447989821434,-0.013644786731898784,-0.024525661708414553
1761336374313566500,4.48956640625,0.06418517966270447,-0.017074030528217553,-0.017678426162153482
1761336374323632400,4.49963232421875,0.05208557654619217,-0.0581312133859843,-0.019344898069649934
1761336374333698600,4.509698486328125,0.06086041915416717,-0.10134221327677369,-0.020219488947093484
1761336374343765500,4.519765625,0.10085399136841297,-0.12219218214713036,-0.052150750736892224
1761336374353831400,4.52983154296875,0.10151333205997944,-0.13386113876141606,-0.089262922295928
1761336374363897600,4.539897705078125,0.093371526658535,-0.12500665504597128,-0.06938479413241147
1761336374373964500,4.549964599609375,0.03901449804902077,-0.08593136672042309,-0.044240416003763675
1761336374384030500,4.560030517578125,-0.10676409219503402,-0.0069164283249527215,0.02854424970000982
1761336374394096600,4.5700966796875,-0.26150457205176353,0.025234029173478483,0.08773293624967336
1761336374404163600,4.58016357421875,-0.33765608384013174,0.012769392136856912,0.10682473634108901
1761336374414229500,4.5902294921875,-0.3564934707790613,-0.0249020207401365,0.051112201469391584
1761336374424296700,4.600296630859375,-0.28546646239757534,-0.04085618039295077,-0.02738309696614742
1761336374434362400,4.6103623046875,-0.163245857873559,-0.06469568646810948,-0.05300093782544136
1761336374444428500,4.620428466796875,-0.040433717197179794,-0.09613251580446958,-0.06159150990769267
1761336374454495500,4.63049560546875,0.0613210224032402,-0.1307836310122162,-0.05693754662200808
1761336374464561400,4.6405615234375,0.13538053034842013,-0.1279690850481391,-0.05574892135933041
1761336374474627600,4.650627685546875,0.15544249064624308,-0.09875146613121032,-0.06404547893106936
1761336374484694500,4.660694580078125,0.13847440471053124,-0.055448038716614245,-0.0778026399962604
1761336374494760200,4.67076025390625,0.06445230616629123,-0.04196085369922221,-0.09654460373669863
1761336374504827100,4.6808271484375,-0.03461889343857765,-0.062370969847589726,-0.08534384915605187
1761336374514893300,4.690893310546875,-0.12159341253638267,-0.059091363655030725,-0.04393368814215064
1761336374524959200,4.700959228515625,-0.22029460978507995,-0.04546498936265707,-0.015221534529328345
1761336374535026400,4.7110263671875,-0.2741834363609552,-0.055187195823341605,-0.0066221946187317365
1761336374545092400,4.72109228515625,-0.26843641714155675,-0.06246186300143599,-0.024274755687266586
1761336374555158300,4.731158203125,-0.2011257989346981,-0.0882752994980663,-0.04784516249746084
1761336374565225500,4.7412255859375,-0.10181845248639583,-0.09815335410758852,-0.02200344975441694
1761336374575291100,4.751291015625,0.011979191607236862,-0.09207008867114781,0.007216068858653306
1761336374585357300,4.761357421875,0.1279348905175924,-0.055226139594241976,0.013119009292125701
1761336374595424300,4.77142431640625,0.16719079610705376,-0.011401757045462728,0.02262479652315378
1761336374605490200,4.781490234375,0.14687047713398932,-0.029523250799998638,0.03228036748841405
1761336374615557000,4.79155712890625,0.07000994029343127,-0.08435871057622134,0.028471038333326575
1761336374625623300,4.801623291015625,-0.020906594428420064,-0.10960991008020937,0.005975859539210796
1761336374635689200,4.811689208984375,-0.10771101765632629,-0.1279245883192867,-0.03833732943981886
1761336374645756200,4.821756103515625,-0.14336217675209045,-0.15196509685926138,-0.06579422229453921
1761336374655822300,4.831822265625,-0.1469634161144495,-0.14043372208476065,-0.047481005360186096
1761336374665888300,4.84188818359375,-0.12355915965139865,-0.08295578497573733,-0.02746098450794816
1761336374675955200,4.851955078125,-0.09080255295336245,-0.0427270157661289,0.0023621990866959093
1761336374686021400,4.862021484375,-0.057798108974099156,-0.041243645340576764,0.02003521842136979
1761336374696088300,4.87208837890625,-0.03329495135843753,-0.05974683188907802,-0.016140256809443233
1761336374706154200,4.882154296875,-0.03645078504085541,-0.08733063905909658,-0.024962737951427696
1761336374716220200,4.89222021484375,-0.03827800046801567,-0.0923372882399708,-0.005838789156079292
1761336374726287400,4.902287353515625,-0.032848961156606675,-0.08913418134972452,0.01795636632069945
1761336374736353300,4.912353271484375,-0.0008808744877576828,-0.08478687286041676,0.036711481803655625
1761336374746419200,4.922419189453125,0.0033528175592422486,-0.06568959287628531,0.05287541174963117
1761336374756486100,4.932486083984375,-0.011187164446711539,-0.04852028528004884,0.02150251449495554
1761336374766552300,4.94255224609375,-0.054413142710924144,-0.05296922751292586,-0.02558174663260579
1761336374776618200,4.9526181640625,-0.10204816958904266,-0.06900463570840656,-0.06787292826473712
1761336374786685200,4.962685302734375,-0.12818740397393702,-0.08327500699274241,-0.10181962153017521
1761336374796751400,4.97275146484375,-0.11917056930363178,-0.07983560712859034,-0.13433847394958137
1761336374806818300,4.982818359375,-0.07991524823606014,-0.07402472889274359,-0.15613485682457684
1761336374816884200,4.99288427734375,-0.05698620806932449,-0.040045229336246844,-0.13644918249323965
1761336374826950400,5.002950439453125,-0.0728325964987278,-0.02507299339286983,-0.009830927532166241
1761336374837017300,5.013017333984375,-0.07031272263228892,0.0250262316416949,0.05568316264674067
1761336374847083300,5.023083251953125,-0.10584288569688796,0.038679274745285507,0.03804068458080292
1761336374857149400,5.0331494140625,-0.13019932831823824,-0.0005577069479972123,-0.01712342262789607
1761336374867216400,5.04321630859375,-0.08319207794964313,-0.05335165095925331,-0.05559957601651549
1761336374877282000,5.053281982421875,-0.004991816937923431,-0.0951557797268033,-0.13012246368974448
1761336374887349200,5.063349365234375,0.04201601795256137,-0.06910122795067727,-0.0963001274563372
1761336374897415200,5.073415283203125,0.03937047187983989,-0.04502535583637655,-0.05016995218321681
1761336374907481000,5.083481201171875,0.03381985201537609,-0.10857903266251087,-0.0060875032201409334
1761336374917548300,5.09354833984375,0.03399520858228206,-0.1308078886706382,0.021659458622336387
1761336374927614200,5.1036142578125,0.015190554869174956,-0.12668087186850607,0.04710661908984184
1761336374937680100,5.11368017578125,-0.016665303596854208,-0.12980368006415666,0.06037921150848269
1761336374947747300,5.123747314453125,-0.03501052310466766,-0.14013985370472073,0.07852043287679553
1761336374957813200,5.133813232421875,-0.0674602558106184,-0.10584157052263617,0.0888895589388907
1761336374967879200,5.143879150390625,-0.1522352190375328,-0.06134257664792239,0.0726759446322918
1761336374977946400,5.1539462890625,-0.26026187851428983,-0.05245791698992252,0.024984949783235788
1761336374988012300,5.16401220703125,-0.3215285403817892,-0.05851655944176018,0.014745149189233779
1761336374998079200,5.174079345703125,-0.3571528114706278,-0.09496193765513598,0.008371084112673998
1761336375008145400,5.1841455078125,-0.32186639403402806,-0.09705226099789142,-0.01618497273400426
1761336375018211300,5.19421142578125,-0.2363432427883148,-0.07923428023457527,-0.010114712909609079
1761336375028278300,5.2042783203125,-0.1355780987471342,-0.07471497617922723,0.00870586902499199
1761336375038344200,5.21434423828125,-0.02549567578434944,-0.05233969743773341,0.038671091438829894
1761336375048410000,5.22441015625,0.07203121698796748,-0.006682327308133244,0.039913931106776
1761336375058477000,5.23447705078125,0.16558336091041564,0.007065335276350378,0.011988397826999425
1761336375068543200,5.244543212890625,0.2571399471014738,-0.02118117358610034,-0.022446078955382108
1761336375078610200,5.254610107421875,0.296823138192296,-0.05987060439921915,-0.06068257836923003
1761336375088676000,5.264676025390625,0.29650223567485806,-0.0943713513508439,-0.105890378100425
1761336375098742300,5.2747421875,0.23070202203094958,-0.11547931357026099,-0.1448674667485058
1761336375108809200,5.284809326171875,0.12292729148864745,-0.13388240074515342,-0.159884126355499
1761336375118875400,5.29487548828125,-0.014537643918395042,-0.09911496568135916,-0.12182356803044676
1761336375128941300,5.30494140625,-0.1316349140793085,-0.03703837567046284,-0.00692965313270688
1761336375139008300,5.31500830078125,-0.21811668122410774,0.025111791033297776,0.10690423131808638
1761336375149074400,5.325074462890625,-0.26296003155708314,0.05232924910895526,0.14947861380577088
1761336375159140400,5.335140380859375,-0.26925708587467667,0.0211512168392539,0.139274907438457
1761336375169207300,5.345207275390625,-0.25041443823873993,-0.0040002486173063515,0.09400587903931737
1761336375179273500,5.3552734375,-0.19983400555849073,-0.02851049356088042,0.01979103440195322
1761336375189340400,5.36534033203125,-0.17439444387555122,-0.0622452245760709,-0.04262085197791457
1761336375199406000,5.375406005859375,-0.1561649597018957,-0.12354425434321165,-0.025037995144724844
1761336375209472300,5.38547216796875,-0.1517208397746086,-0.18793094792738554,0.00633753245845437
1761336375219539200,5.395539306640625,-0.15605331602096556,-0.1681781266439706,-0.0019096330136060713
1761336375229605000,5.405605224609375,-0.1578688410103321,-0.09519574641101061,-0.013313655081391334
1761336375239671300,5.41567138671875,-0.18291034328639505,-0.04263509969897568,-0.013426321675628423
1761336375249738200,5.42573828125,-0.2171025357455015,-0.02996960632801056,-0.03226531604975462
1761336375259804200,5.43580419921875,-0.20443360830843446,-0.014947101502120494,-0.06639218818768859
1761336375269870300,5.445870361328125,-0.16370412303507328,-0.014968436551094054,-0.07395370948314667
1761336375279937300,5.455937255859375,-0.09205518336296081,-0.03914411577805876,-0.07891191641241312
1761336375290003200,5.466003173828125,-0.009832827228307724,-0.07115553013198077,-0.0684350921921432
1761336375300070400,5.4760703125,0.06980009693503379,-0.09674589846245944,-0.07693184851109981
1761336375310136300,5.48613623046875,0.12256488791704177,-0.14623488264419138,-0.10769318973869085
1761336375320202200,5.4962021484375,0.17253040356934068,-0.17435973788835107,-0.12313581967279315
1761336375330269400,5.50626953125,0.22486089478731153,-0.13888305857665836,-0.07996420194432138
1761336375340335400,5.51633544921875,0.19980127233266828,-0.10665025655701756,-0.017851883032917976
1761336375350401300,5.5264013671875,0.10668342817425727,-0.06862184693589807,0.0780786804586649
1761336375360468200,5.53646826171875,0.005763970354199409,-0.05224632006585598,0.12086305243521928
1761336375370534100,5.5465341796875,-0.08815116166174411,-0.022858532213792204,0.09455153022333979
1761336375380600300,5.556600341796875,-0.22108254529237745,-0.029360315323248502,0.01716068589836359
1761336375390667300,5.566667236328125,-0.4308849871575832,-0.052039399316906924,-0.026964579293131827
1761336375400733200,5.576733154296875,-0.7269260350614786,-0.0907704773146659,-0.08142083049342036
1761336375410800000,5.586800048828125,-0.8519722184002398,-0.1301847152709961,-0.116907885068655
1761336375420866300,5.5968662109375,-0.7824801645010709,-0.15281564927399158,-0.20756006976589558
1761336375430932200,5.60693212890625,-0.6234224059671163,-0.14456658410578965,-0.2671921161688864
1761336375440999200,5.616999267578125,-0.3696247550308704,-0.09254172477088868,-0.24374314378127454
1761336375451065300,5.6270654296875,-0.07803601036071776,0.024679244834929705,-0.2059074802532792
1761336375461131300,5.63713134765625,0.17120704601109027,0.0906657748311758,-0.037911943634599446
1761336375471198200,5.6471982421875,0.3542524138540029,0.10750431610308588,0.19608254407048223
1761336375481264400,5.657264404296875,0.41738954576849935,0.14798640248663722,0.3939204073756933
1761336375491330000,5.667330078125,0.347778833925724,0.20531185244768857,0.46688978199660774
1761336375501397200,5.677397216796875,0.294963774061203,0.21399214864000676,0.42872298681810495
1761336375511463200,5.687463134765625,0.28006138848364354,0.16860431616678834,0.29064444955736396
1761336375521530000,5.697530029296875,0.30485972965359687,0.05063552386835217,0.13379150759130715
1761336375531596300,5.70759619140625,0.3380775241225958,-0.0792433403238654,-0.0422220619186759
1761336375541662200,5.717662109375,0.34701486381590363,-0.1746064061257988,-0.1655081037171185
1761336375551729200,5.727729248046875,0.26055764659047126,-0.3080328797969967,-0.20259528696537016
1761336375561795300,5.73779541015625,0.10639993505775928,-0.3800727184828371,-0.13043737485781312
1761336375571861000,5.747861083984375,-0.15471534541547297,-0.3132818863663822,-0.059126288837939495
1761336375581928000,5.757927978515625,-0.26552140647768974,-0.14862966882623732,-0.09427329780384898
1761336375591994000,5.767994140625,-0.21491350126862524,0.050135173130780454,-0.20727423856183885
1761336375602061000,5.77806103515625,-0.11628946090936661,0.02930507800467312,-0.2231504376076162
1761336375612127000,5.788126953125,0.04109364241063595,-0.1319669955778867,-0.09561156067028641
1761336375622193200,5.798193115234375,0.2771265040755272,-0.19726693154945968,-0.0716330114506185
1761336375632260000,5.808260009765625,0.4589139808118343,-0.1864027885120362,-0.10384119048565625
1761336375642326000,5.818325927734375,0.558089809834957,-0.1918690180286765,-0.2047077490746975
1761336375652392200,5.82839208984375,0.5687462284058332,-0.16802308221273124,-0.32290275134444235
1761336375662459100,5.838459228515625,0.3394610874354839,-0.1659882153842598,-0.3829205821946263
1761336375672525000,5.848525146484375,0.0286345583319664,-0.13875702104419468,-0.3639246436931193
1761336375682591200,5.85859130859375,-0.19258301151692866,-0.08378346797153353,-0.2554584237553179
1761336375692658200,5.868658203125,-0.3231716314136982,-0.07239493573382497,-0.0864154239103198
1761336375702724000,5.87872412109375,-0.33267478829622266,-0.05814378060661256,0.06233151462003588
1761336375712791300,5.888791259765625,-0.23014438814818858,-0.025378771406412124,0.20858108337670564
1761336375722857200,5.898857177734375,-0.13637304851710796,0.04983655551038682,0.3122651836045086
1761336375732923100,5.908923095703125,-0.10646949316263198,0.12023315703384578,0.3901698226705193
1761336375742990000,5.918989990234375,-0.1667752010434866,0.189590478637442,0.40082770254611966
1761336375753056000,5.929055908203125,-0.26056173824369905,0.20160824868939817,0.37798473322764037
1761336375763122200,5.9391220703125,-0.339805955350399,0.16399901432842015,0.30132687935233116
1761336375773189000,5.949189208984375,-0.3781178580880165,0.06885309840850531,0.23395590926036236
1761336375783255000,5.959255126953125,-0.4013414972871542,-0.12252682092897593,0.14867445781603456
1761336375793321200,5.9693212890625,-0.378308996745944,-0.28916290576271714,-0.017905074524879456
1761336375803388200,5.97938818359375,-0.30026714116632935,-0.35959048694632945,-0.1987481100179255
1761336375813454000,5.9894541015625,-0.2304004087358713,-0.3679255498975515,-0.3315129049099982
1761336375823521000,5.99952099609375,-0.18978490523099897,-0.30781536458879705,-0.37453020885959265
1761336375833587200,6.009587158203125,-0.15104805507957936,-0.1693027467597276,-0.3821408299937844
1761336375843653000,6.019653076171875,-0.09780044901669024,-0.06783785695135593,-0.35797508763894437
1761336375853720000,6.029719970703125,-0.040347792479395864,-0.0032727380603551864,-0.31364933143928647
1761336375863786200,6.0397861328125,-0.006985621103644371,0.0385192618779838,-0.27009207539409397
1761336375873852000,6.049851806640625,0.04163198707103729,0.07013707380443811,-0.21610081135705111
1761336375883919400,6.05991943359375,0.10105097524523735,0.07811258272826671,-0.11877426346242427
1761336375893985000,6.069985107421875,0.15929916607439518,0.025672858982160686,-0.06305646789371967
1761336375904052000,6.080052001953125,0.16824235098659993,-0.10379552471302449,-0.09284370339214801
1761336375914118100,6.0901181640625,0.17791677278280257,-0.1956972710799426,-0.1713740731410682
1761336375924184000,6.10018408203125,0.17776655065715313,-0.2826344538420439,-0.2861633586205542
1761336375934251000,6.1102509765625,0.1788613601565361,-0.3132001263670623,-0.33806495690196753
1761336375944317200,6.120317138671875,0.19716157147884367,-0.2503697953794151,-0.26591727392748
1761336375954383000,6.130383056640625,0.18803017051815984,-0.15942111195363104,-0.1291290687382221
1761336375964450000,6.140449951171875,0.1167383737206459,-0.06989508174210786,0.03339432007968426
1761336375974516200,6.15051611328125,-0.06260404795110225,0.03334989641606807,0.1921504653185606
1761336375984582100,6.16058203125,-0.25709552343785763,0.10491598011031747,0.25785744772106406
1761336375994649000,6.170649169921875,-0.42767946911454197,0.12440459749959408,0.2726103418253362
1761336376004715300,6.18071533203125,-0.479575076046586,0.1315174982447177,0.2675374224752188
1761336376014782200,6.1907822265625,-0.3313479236066341,0.1816251988466829,0.34805341308340426
1761336376024848100,6.20084814453125,-0.08617664671838283,0.10206621670238673,0.40301600637063384
1761336376034914000,6.2109140625,0.10440671541392803,-0.0632335780262947,0.4082802105091512
1761336376044981200,6.220981201171875,0.18697277041971683,-0.20980828708410262,0.3679658819079399
1761336376055047000,6.231046875,0.16953355984091759,-0.32653131710514427,0.25560528488010165
1761336376065113000,6.241113037109375,0.07350070501863956,-0.3660216159723699,0.11972265022844075
1761336376075180000,6.251179931640625,0.03242576730847359,-0.28422289207726714,0.02786503526419401
1761336376085246200,6.26124609375,0.015347791257500647,-0.20231990409009157,-0.0078067282281816
1761336376095312100,6.27131201171875,0.012261515679955481,-0.1833830753646791,0.017720219477266073
1761336376105379000,6.281379150390625,0.008120762613415718,-0.16005867920480668,0.07115750289335847
1761336376115445200,6.2914453125,0.0425812506198883,-0.09183248052299021,0.12586655981093645
1761336376125512200,6.30151220703125,0.09846797301471233,-0.006210472012683749,0.14268851527422666
1761336376135578000,6.311578125,0.17137714188098907,0.031898163237795235,0.1052672777660191
1761336376145644300,6.321644287109375,0.16954875741004943,-0.02282638350985944,0.0016350538559257984
1761336376155711200,6.331711181640625,0.05147942734658718,-0.10143617517054081,-0.06684022421613335
1761336376165777200,6.341777099609375,-0.11987374913692474,-0.13530439637228847,-0.13819383420348166
1761336376175843300,6.35184326171875,-0.24189912334978578,-0.12441153869703411,-0.22209303750917314
1761336376185910300,6.36191015625,-0.33436873273253437,-0.08783157431855797,-0.2914513820260763
1761336376195976000,6.371975830078125,-0.3816057002037763,-0.03487476789578795,-0.34095483312457797
1761336376206042000,6.3820419921875,-0.38106560197770595,0.005596797093749046,-0.3366797861538827
1761336376216109000,6.392109130859375,-0.38428339498043057,0.03517112049385905,-0.29407705435454845
1761336376226175000,6.402175048828125,-0.36028292618989943,0.0642684740319848,-0.2588460203669965
1761336376236242200,6.4122421875,-0.2965887449145317,0.10080679122582077,-0.2273589952133596
1761336376246308000,6.42230810546875,-0.2047410668224096,0.09849924493581055,-0.24106778709217905
1761336376256374000,6.4323740234375,-0.037467853128910066,0.06499240439236163,-0.26856471969634294
1761336376266441200,6.442441162109375,0.09492869297266006,0.0446639021128416,-0.24541209990680216
1761336376276507100,6.452507080078125,0.1121679970651865,0.054277095241099596,-0.1997911893300712
1761336376286573000,6.462572998046875,0.03580956452786922,0.08970394406169653,-0.1647581621326506
1761336376296640300,6.47264013671875,-0.033740357038378715,0.10399199713319539,-0.1175356615781784
1761336376306706200,6.4827060546875,-0.1064776764690876,0.0625813977278769,-0.06031681379675865
1761336376316773000,6.492773193359375,-0.1291688162267208,0.22527692824229598,0.11808978832960128
1761336376326839300,6.50283935546875,-0.06619184330999851,0.2914540123745799,0.23405542411208152
1761336376336905200,6.5129052734375,0.008408931905031204,0.1432895499072969,0.2086808904893696
1761336376346972200,6.52297216796875,0.07834463791847228,0.063031625713408,0.11607216489687561
1761336376357038000,6.5330380859375,0.11664309665262698,0.1173959608465433,-0.0030706396169960497
1761336376367104000,6.54310400390625,0.09443652554154396,0.19476970790624618,-0.07845102090239524
1761336376377171000,6.5531708984375,0.009154197314381598,0.09193521024510264,-0.09486965626180172
1761336376387237000,6.563237060546875,-0.09712766432166099,0.00428600675612688,-0.07716945665925741
1761336376397303000,6.573302978515625,-0.15518763910233974,-0.021473872922360897,-0.07029080306142568
1761336376407370000,6.583369873046875,-0.1802601210385561,-0.062164195229113095,-0.10138736759275198
1761336376417436200,6.593436279296875,-0.1681868214070797,-0.1311009533330798,-0.10803045886904
1761336376427503000,6.603503173828125,-0.09519172782301902,-0.1717513820208609,-0.08226663366779685
1761336376437569000,6.613569091796875,-0.02375847672820091,-0.2178518928080797,-0.04255640843957662
1761336376447635200,6.62363525390625,0.07227554713785649,-0.21206541836112736,0.06109773504137993
1761336376457702100,6.6337021484375,0.1914654056638479,-0.030020605862885713,0.2707631795886904
1761336376467768300,6.643768310546875,0.1798971329450607,-0.1536921398475766,0.2793166345309466
1761336376477834200,6.653834228515625,0.028448680371046066,-0.46905762755498287,0.20945055968761442
1761336376487901200,6.663901123046875,-0.04499649506807327,-0.4902423082724213,0.16519531144089997
1761336376497967600,6.673967529296875,-0.07854512892663479,-0.47478009685501454,0.06368154098950327
1761336376508033800,6.68403369140625,-0.1497644450098276,-0.5835356551282107,-0.1084591326098889
1761336376518100700,6.694100830078125,-0.07123509817421436,-0.6383996103465557,-0.2578705263983458
1761336376528166700,6.704166748046875,0.05692424874901771,-0.5398696780115365,-0.3120821551878005
1761336376538233900,6.71423388671875,0.15840192497372627,-0.35023923268988727,-0.284602685175091
1761336376548299800,6.7242998046875,0.20502689802646637,-0.1425220726661384,-0.18223901989609
1761336376558365700,6.73436572265625,0.09770926360189915,-0.007341448803991079,-0.07276698391661048
1761336376568433000,6.744432861328125,-0.07234510524272918,0.12394596701189875,0.04990925542041659
1761336376578498800,6.754498779296875,-0.17826456330716609,0.22497107716351747,0.09010536446943879
1761336376588565000,6.76456494140625,-0.24888065280020236,-0.006691898854076862,-0.11052746331654488
1761336376598632000,6.7746318359375,-0.24580197600722312,-0.14420286535993218,-0.2728296836644411
1761336376608697600,6.784697509765625,-0.15785305891931056,-0.14788330743834374,-0.3711597095131874
1761336376618764500,6.7947646484375,-0.1670668774664402,-0.18428849977180362,-0.3564076191265136
1761336376628830700,6.804830810546875,-0.20778467230200767,-0.18453721383586524,-0.2765809990219772
1761336376638896600,6.814896728515625,-0.20677403395473956,-0.14915493480935693,-0.249333145808056
1761336376648963600,6.824963623046875,-0.15193185217678545,-0.11904358192309737,-0.2561248517747968
1761336376659029800,6.83502978515625,-0.06471358745098113,-0.09714680741354823,-0.2552268069565296
1761336376669095700,6.845095703125,-0.05419628508985042,-0.11725640624538064,-0.24421572972908615
1761336376679162600,6.85516259765625,-0.05322364066541194,-0.12700389327779413,-0.15526253096945583
1761336376689228800,6.865228759765625,-0.07710603603422642,-0.04429068488627672,0.004965001996234059
1761336376699294700,6.875294677734375,-0.05826046578884125,0.04910144616886973,0.16221454206444322
1761336376709361700,6.885361572265625,0.03132218998074531,0.05235211852788925,0.2728968306165188
1761336376719427800,6.895427734375,0.07854045275151729,-0.03856207810640335,0.3442784245893359
1761336376729494800,6.905494873046875,0.07438859376907349,-0.16491598304286598,0.29959676762409504
1761336376739561000,6.91556103515625,0.019570377388596533,-0.22566315108090637,0.22515542075447736
1761336376749627000,6.925626953125,-0.05370002600550651,-0.21425781383886933,0.19748817308470606
1761336376759693800,6.93569384765625,-0.18755904587507247,-0.16434709711372852,0.1801974310658872
1761336376769759700,6.945759765625,-0.34474574984014034,-0.12256518017798662,0.15474880929365753
1761336376779825700,6.95582568359375,-0.46059740385413167,-0.11475684451460838,0.12379589101672171
1761336376789892600,6.965892578125,-0.5548211634278297,-0.12528379148691893,0.06361965473443269
1761336376799958800,6.975958740234375,-0.5368032761782408,-0.13449074190184473,0.005157601958885789
1761336376810024700,6.986024658203125,-0.4247463382720947,-0.14796177950203418,-0.004052563326433301
1761336376820091600,6.996091552734375,-0.23333120149075984,-0.12250263633579014,0.011282733775675296
1761336376830157800,7.00615771484375,-0.06723930653631686,-0.0918060309074819,-0.0032313831366598605
1761336376840224800,7.016224853515625,0.10719254674017428,-0.09270473331287503,-0.061089551734924315
1761336376850290700,7.026290771484375,0.29277532410621643,-0.10241174220442771,-0.08164090298488735
1761336376860356900,7.03635693359375,0.3710936585396528,-0.12019114452302455,-0.05057042274288833
1761336376870423800,7.046423828125,0.3096720983713865,-0.11756576445549725,-0.007211100422590971
1761336376880489700,7.05648974609375,0.20511399178802966,-0.10397913765162228,-0.0553518848657608
1761336376890556000,7.066555908203125,0.03315817323625087,-0.0659035278879106,-0.12984298916123807
1761336376900622800,7.076622802734375,-0.08442249652743339,-0.03734481127113104,-0.1357166304349899
1761336376910688500,7.0866884765625,-0.1038806457132101,-0.06126403151899576,-0.13582220970131456
1761336376920754700,7.096754638671875,-0.07653262006044387,-0.10713964750915765,-0.17392616877667605
1761336376930821600,7.106821533203125,-0.03064823624193668,-0.11422186085507273,-0.18961466323062776
1761336376940887800,7.1168876953125,-0.003016132950782776,-0.10507979236990213,-0.2248945047959685
1761336376950954800,7.126954833984375,-0.0071627312362194055,-0.11839520101696252,-0.20435265202671288
1761336376961020700,7.137020751953125,-0.04381985250413418,-0.1448274269990623,-0.1451359814915806
1761336376971086800,7.1470869140625,-0.06015256314575672,-0.14990633769854902,-0.02283398229442537
1761336376981153800,7.15715380859375,-0.048210196417570114,-0.13252952483147382,0.05879493799172342
1761336376991219700,7.1672197265625,-0.05110124168395996,-0.11324673221260309,0.042079657773301006
1761336377001286000,7.177285888671875,-0.06890344035625458,-0.1037618416391313,0.031774682988598944
1761336377011352800,7.187352783203125,-0.09277356076538562,-0.13995821352750062,0.07402202547900379
1761336377021418800,7.197418701171875,-0.08601590319871902,-0.20083397638127207,0.0764051942884922
1761336377031485000,7.20748486328125,-0.06735854900181293,-0.22093626868948338,0.06133870419040322
1761336377041552000,7.2175517578125,-0.04197919307351112,-0.19493805021047592,0.04633928797915578
1761336377051617800,7.22761767578125,-0.07077917110025882,-0.14682254633903502,-0.0069913201920688145
1761336377061684700,7.237684814453125,-0.14066460823118687,-0.13708908783197402,-0.08566014856360853
1761336377071750700,7.247750732421875,-0.07537935837209224,-0.08815817592442035,0.030138898480311035
1761336377081816600,7.257816650390625,-0.002274959194660187,-0.0694841628536582,0.19659714252911506
1761336377091883800,7.2678837890625,0.03792728733420372,-0.08889481963589788,0.21584230655133724
1761336377101949700,7.27794970703125,0.004954992058873176,-0.08919307193011045,0.10127791586890816
1761336377112015600,7.288015625,-0.14155717315673827,-0.07652765162438153,-0.04521415640674531
1761336377122082800,7.298082763671875,-0.3187000389575958,-0.10245601973757147,-0.10464030497409403
1761336377132148700,7.308148681640625,-0.33162089532911776,-0.10818331134319305,-0.1134507303521037
1761336377142215700,7.318215576171875,-0.39243747534155843,-0.18270824484303594,-0.11263897557780146
1761336377152281900,7.32828173828125,-0.4084112895429134,-0.19245660865828393,-0.27317228655703363
1761336377162347800,7.33834765625,-0.33427930088341234,0.0074107146479189395,-0.25297851657308634
1761336377172414700,7.348414794921875,-0.22589666757583618,0.10537746014222502,0.050398061850666996
1761336377182481000,7.35848095703125,-0.17000643804967402,0.06713233903050422,0.1985239458732307
1761336377192546800,7.368546875,0.007734393644332886,0.05902852755188941,0.028752412557974456
1761336377202613800,7.37861376953125,0.1221890403419733,-0.01270867492556572,-0.08785648956410587
1761336377212680000,7.388679931640625,0.13699614885151384,-0.15465221705138682,-0.10045089046023785
1761336377222747000,7.398746826171875,0.05847790793180466,-0.1993921070098877,-0.11971307868249714
