time,seconds_elapsed,z,y,x
1761336369904496400,0.080496337890625,0.34341511130332947,-0.16098317503929138,-0.43288809061050415
1761336369914563300,0.090563232421875,0.35819700360298157,-0.25892162322998047,-0.43464621901512146
1761336369924629500,0.10062939453125,0.37845301628112793,-0.35126593708992004,-0.37438446283340454
1761336369934695400,0.1106953125,0.4027620255947113,-0.41968753933906555,-0.27335068583488464
1761336369944762400,0.120762451171875,0.42125260829925537,-0.47860169410705566,-0.160908043384552
1761336369954828500,0.13082861328125,0.43663349747657776,-0.5492344498634338,-0.0742468535900116
1761336369964894500,0.14089453125,0.45268329977989197,-0.626937747001648,-0.03444431722164154
1761336369974961400,0.15096142578125,0.4641958773136139,-0.7142190337181091,-0.03487648814916611
1761336369985027600,0.161027587890625,0.47325170040130615,-0.8054602742195129,-0.08045542240142822
1761336369995094500,0.171094482421875,0.4796946048736572,-0.8833391666412354,-0.1468125581741333
1761336370005160400,0.181160400390625,0.4824288785457611,-0.9073365926742554,-0.19678784906864166
1761336370015226600,0.1912265625,0.49058079719543457,-0.8645920753479004,-0.21198980510234833
1761336370025293600,0.20129345703125,0.4923906922340393,-0.7831608653068542,-0.21310940384864807
1761336370035359700,0.21135986328125,0.48794427514076233,-0.7159725427627563,-0.21393060684204102
1761336370045425400,0.22142529296875,0.49512815475463867,-0.6589627861976624,-0.20590651035308838
1761336370055492400,0.231492431640625,0.5198810696601868,-0.5250720381736755,-0.18617697060108185
1761336370065558500,0.24155859375,0.5638264417648315,-0.32976701855659485,-0.1756710559129715
1761336370075625500,0.25162548828125,0.6153643131256104,-0.16865019500255585,-0.21477489173412323
1761336370085691400,0.26169140625,0.6669207215309143,-0.11405378580093384,-0.3246830105781555
1761336370095757600,0.271757568359375,0.7099698781967163,-0.17936043441295624,-0.48404359817504883
1761336370105824500,0.281824462890625,0.7421765327453613,-0.3546992242336273,-0.6771331429481506
1761336370115890400,0.291890380859375,0.7713528871536255,-0.619083821773529,-0.8769792914390564
1761336370125956600,0.30195654296875,0.7959405183792114,-0.8740034699440002,-1.0519269704818726
1761336370136023600,0.3120234375,0.8111045360565186,-1.0425710678100586,-1.1919643878936768
1761336370146089500,0.32208935546875,0.8070746064186096,-1.1531468629837036,-1.2958695888519287
1761336370156155600,0.33215576171875,0.7773018479347229,-1.2153443098068237,-1.3849060535430908
1761336370166222600,0.34222265625,0.7496941685676575,-1.2414544820785522,-1.4637290239334106
1761336370176288500,0.35228857421875,0.7538032531738281,-1.204612374305725,-1.5311890840530396
1761336370186355700,0.362355712890625,0.8243370652198792,-1.0316091775894165,-1.5791661739349365
1761336370196421600,0.372421630859375,0.9396611452102661,-0.7201400995254517,-1.5975815057754517
1761336370206487300,0.3824873046875,1.056891918182373,-0.3282727301120758,-1.5981512069702148
1761336370216554500,0.392554443359375,1.1325846910476685,0.024598965421319008,-1.5938823223114014
1761336370226620400,0.402620361328125,1.1498475074768066,0.23266613483428955,-1.5915274620056152
1761336370236686600,0.4126865234375,1.1128860712051392,0.3022202253341675,-1.5940947532653809
1761336370246753500,0.42275341796875,1.0399407148361206,0.27592018246650696,-1.5742757320404053
1761336370256819500,0.4328193359375,0.9366756677627563,0.21666818857192993,-1.5222200155258179
1761336370266886400,0.442886474609375,0.8079962730407715,0.16854700446128845,-1.4183732271194458
1761336370276952600,0.45295263671875,0.6724527478218079,0.12000059336423874,-1.281292200088501
1761336370287018500,0.4630185546875,0.5441019535064697,0.04352711886167526,-1.1188688278198242
1761336370297085400,0.47308544921875,0.4353311359882355,0.005415509454905987,-0.9368866682052612
1761336370307151600,0.483151611328125,0.3485589623451233,0.013445206917822361,-0.7649641633033752
1761336370317217500,0.493217529296875,0.2792547345161438,0.03635880723595619,-0.6221673488616943
1761336370327284500,0.503284423828125,0.2203139066696167,0.03448394313454628,-0.5325011610984802
1761336370337350700,0.5133505859375,0.15839074552059174,0.010617082938551903,-0.5016801357269287
1761336370347417600,0.52341748046875,0.09131477773189545,-0.024923067539930344,-0.5084077715873718
1761336370357483500,0.5334833984375,0.024759624153375626,-0.06832541525363922,-0.5418549180030823
1761336370367549400,0.543549560546875,-0.03444670885801315,-0.07491061836481094,-0.5758903622627258
1761336370377616400,0.553616455078125,-0.07610530406236649,-0.03963096812367439,-0.6003603339195251
1761336370387682600,0.5636826171875,-0.10443521291017532,0.01453959196805954,-0.6086342334747314
1761336370397748500,0.57374853515625,-0.11747369170188904,0.07052883505821228,-0.6197109222412109
1761336370407815400,0.5838154296875,-0.12770210206508636,0.114315465092659,-0.6296807527542114
1761336370417881600,0.593881591796875,-0.13148437440395355,0.15741963684558868,-0.6431565284729004
1761336370427947500,0.603947509765625,-0.13253286480903625,0.20542551577091217,-0.6479584574699402
1761336370438014500,0.614014404296875,-0.1324135661125183,0.24429644644260406,-0.6373761892318726
1761336370448080600,0.62408056640625,-0.128928542137146,0.24090145528316498,-0.5877846479415894
1761336370458147600,0.634147705078125,-0.12109439820051193,0.21449705958366394,-0.49865585565567017
1761336370468213500,0.644213623046875,-0.11628606170415878,0.16963104903697968,-0.3909318149089813
1761336370478279700,0.65427978515625,-0.12908779084682465,0.08651643991470337,-0.29696765542030334
1761336370488346000,0.66434619140625,-0.15775538980960846,0.0011810362339019775,-0.23122380673885345
1761336370498411800,0.674411865234375,-0.18087345361709595,-0.03715772554278374,-0.19065207242965698
1761336370508478000,0.68447802734375,-0.1909167617559433,-0.01530275959521532,-0.17289438843727112
1761336370518545000,0.694544921875,-0.16199590265750885,0.05327683314681053,-0.1711665391921997
1761336370528611000,0.704611083984375,-0.11349201202392578,0.14882199466228485,-0.1659429967403412
1761336370538678000,0.714677978515625,-0.05330650508403778,0.24481810629367828,-0.14365501701831818
1761336370548744000,0.724743896484375,0.002172469161450863,0.32471323013305664,-0.10203354060649872
1761336370558810000,0.73481005859375,0.04553791508078575,0.396047443151474,-0.047484803944826126
1761336370568877000,0.744876953125,0.08945930004119873,0.46805453300476074,0.011735641397535801
1761336370578943000,0.75494287109375,0.12041561305522919,0.5077922940254211,0.06762287020683289
1761336370589009200,0.765009033203125,0.15186196565628052,0.49895116686820984,0.10767015814781189
1761336370599076000,0.775076171875,0.1903001219034195,0.4535417854785919,0.13320674002170563
1761336370609142000,0.78514208984375,0.23157618939876556,0.3778643310070038,0.13882814347743988
1761336370619209000,0.795208984375,0.27761581540107727,0.30438974499702454,0.13808879256248474
1761336370629275100,0.805275146484375,0.3267543315887451,0.26767462491989136,0.12209144979715347
1761336370639341000,0.815341064453125,0.3711588978767395,0.2377464324235916,0.1077403649687767
1761336370649408000,0.825407958984375,0.41003119945526123,0.21133506298065186,0.0890313982963562
1761336370659474000,0.835473876953125,0.4439201354980469,0.19298920035362244,0.08015944063663483
1761336370669539800,0.845539794921875,0.49970537424087524,0.21694433689117432,0.0703081414103508
1761336370679607000,0.85560693359375,0.5839486718177795,0.27468985319137573,0.06193569675087929
1761336370689673000,0.8656728515625,0.682844340801239,0.3131006360054016,0.034594617784023285
1761336370699739000,0.87573876953125,0.7782297730445862,0.3157940208911896,-0.011855277232825756
1761336370709806000,0.88580615234375,0.8387186527252197,0.26269060373306274,-0.05204823613166809
1761336370719872000,0.8958720703125,0.8689289689064026,0.16705583035945892,-0.07621380686759949
1761336370729939000,0.90593896484375,0.8692744374275208,0.06584372371435165,-0.08519105613231659
1761336370740005000,0.916005126953125,0.8367346525192261,-0.014472291804850101,-0.07688754051923752
1761336370750071000,0.926071044921875,0.7922840714454651,-0.07256622612476349,-0.06170964986085892
1761336370760138000,0.936137939453125,0.752367377281189,-0.12441492825746536,-0.03478866443037987
1761336370770204200,0.9462041015625,0.7095038890838623,-0.1792704463005066,-0.01554998941719532
1761336370780270000,0.95627001953125,0.6646745800971985,-0.24778395891189575,-0.010769244283437729
1761336370790337000,0.9663369140625,0.5976819396018982,-0.31822511553764343,-0.013170083984732628
1761336370800403200,0.9764033203125,0.5138300061225891,-0.37684425711631775,-0.0347764678299427
1761336370810470100,0.98647021484375,0.4132978022098541,-0.41350823640823364,-0.07190866023302078
1761336370820535800,0.996535888671875,0.30016034841537476,-0.41860270500183105,-0.09712101519107819
1761336370830602000,1.00660205078125,0.20295573770999908,-0.3693099915981293,-0.12538647651672363
1761336370840669000,1.0166689453125,0.11941557377576828,-0.2816733419895172,-0.14814157783985138
1761336370850734800,1.02673486328125,0.05971629172563553,-0.19077222049236298,-0.1772587150335312
1761336370860801000,1.036801025390625,0.011083483695983887,-0.11502744257450104,-0.20482665300369263
1761336370870868000,1.046867919921875,-0.02873450145125389,-0.07094413042068481,-0.21976672112941742
1761336370880934000,1.056933837890625,-0.06258553266525269,-0.01817292533814907,-0.2061152309179306
1761336370891000000,1.067,-0.08381599187850952,0.03808954730629921,-0.16888956725597382
1761336370901067000,1.07706689453125,-0.09935429692268372,0.06546606123447418,-0.1182471290230751
1761336370911133000,1.0871328125,-0.09853244572877884,0.08057231456041336,-0.05004117265343666
1761336370921200000,1.0972001953125,-0.08834657073020935,0.07602623850107193,0.015728522092103958
1761336370931266000,1.10726611328125,-0.06857074052095413,0.03732145205140114,0.06880532205104828
1761336370941332200,1.117332275390625,-0.046341829001903534,-0.013318435288965702,0.10731334984302521
1761336370951399200,1.127399169921875,-0.034006599336862564,-0.07298336178064346,0.13180111348628998
1761336370961465000,1.137465087890625,-0.029913514852523804,-0.1122213751077652,0.14259688556194305
1761336370971531000,1.147531005859375,-0.02930391952395439,-0.1179242730140686,0.15004228055477142
1761336370981598000,1.157597900390625,-0.01263204962015152,-0.09608196467161179,0.15974535048007965
1761336370991663900,1.167663818359375,0.014232587069272995,-0.06844901293516159,0.16372251510620117
1761336371001730800,1.177730712890625,0.04847073554992676,-0.0388985201716423,0.16867530345916748
1761336371011797000,1.187796875,0.07759186625480652,-0.026947319507598877,0.1749395877122879
1761336371021863000,1.19786279296875,0.09807167202234268,-0.011630930937826633,0.1858731359243393
1761336371031929900,1.207929931640625,0.11488713324069977,-0.002700020559132099,0.20127606391906738
1761336371041996000,1.21799609375,0.1284254491329193,0.0033156685531139374,0.2242863029241562
1761336371052062000,1.22806201171875,0.13969995081424713,0.0181883592158556,0.23556798696517944
1761336371062129000,1.23812890625,0.152287557721138,0.03121098317205906,0.22894258797168732
1761336371072195000,1.248195068359375,0.15458321571350098,0.041544318199157715,0.20275679230690002
1761336371082261000,1.258260986328125,0.14808650314807892,0.025495782494544983,0.16229058802127838
1761336371092328200,1.268328125,0.15145087242126465,0.01874253898859024,0.11590258032083511
1761336371102394000,1.27839404296875,0.16480661928653717,0.020289301872253418,0.07789341360330582
1761336371112461000,1.2884609375,0.1824340522289276,0.02401949092745781,0.06442495435476303
1761336371122527200,1.29852734375,0.20969972014427185,0.028870046138763428,0.0679653063416481
1761336371132593000,1.308593017578125,0.23456750810146332,0.031802184879779816,0.08223878592252731
1761336371142659800,1.318659912109375,0.24083058536052704,0.021676938980817795,0.10200412571430206
1761336371152726000,1.32872607421875,0.22830787301063538,-0.002708292566239834,0.11390286684036255
1761336371162792000,1.3387919921875,0.205452099442482,-0.0058984714560210705,0.11615841090679169
1761336371172859000,1.34885888671875,0.18578971922397614,-0.00024005305022001266,0.10158079862594604
1761336371182925000,1.358925048828125,0.1586279273033142,-0.0012394050136208534,0.07988247275352478
1761336371192992000,1.368991943359375,0.130610391497612,-0.0001373887062072754,0.050304871052503586
1761336371203058000,1.379057861328125,0.10955388844013214,0.01029886957257986,0.032081443816423416
1761336371213124000,1.3891240234375,0.08366449922323227,0.04281499981880188,0.01657944917678833
1761336371223191000,1.39919091796875,0.05784081667661667,0.055193670094013214,0.006179699674248695
1761336371233257000,1.409257080078125,0.03078283555805683,0.06323003023862839,-0.004648447036743164
1761336371243323100,1.4193232421875,0.006432163063436747,0.05716396123170853,-0.008333350531756878
1761336371253390000,1.42939013671875,-0.0042348625138401985,0.04226677492260933,-0.012812787666916847
1761336371263456000,1.4394560546875,0.0032182238064706326,0.02401096746325493,-0.022107012569904327
1761336371273522000,1.44952197265625,0.022505901753902435,0.011303694918751717,-0.03396287187933922
1761336371283589000,1.459589111328125,0.05265112221240997,0.0020447280257940292,-0.057693712413311005
1761336371293655000,1.469655029296875,0.08541173487901688,-0.003848315216600895,-0.08138599246740341
1761336371303722000,1.479721923828125,0.11475324630737305,-0.0175677128136158,-0.08783403784036636
1761336371313788000,1.489787841796875,0.13286806643009186,-0.007351559586822987,-0.06588640064001083
1761336371323854000,1.49985400390625,0.1379968374967575,0.014603721909224987,-0.026949644088745117
1761336371333921000,1.509921142578125,0.12706243991851807,0.03035525232553482,0.02062186971306801
1761336371343987000,1.519987060546875,0.1071515679359436,0.04207363724708557,0.07102170586585999
1761336371354053000,1.53005322265625,0.08226006478071213,0.06604795157909393,0.09556753188371658
1761336371364120000,1.5401201171875,0.05926985293626785,0.07727441936731339,0.09811724722385406
1761336371374186000,1.55018603515625,0.04555404186248779,0.0880570262670517,0.07137031853199005
1761336371384252200,1.560252197265625,0.03927747905254364,0.09718334674835205,0.02508595958352089
1761336371394319000,1.570319091796875,0.04553643614053726,0.09410472214221954,-0.006941480562090874
1761336371404385000,1.580385009765625,0.06357208639383316,0.08330750465393066,-0.026699580252170563
1761336371414452000,1.590451904296875,0.08125653862953186,0.07922807335853577,-0.03509093448519707
1761336371424518100,1.60051806640625,0.09179817885160446,0.0802343413233757,-0.04189753532409668
1761336371434583800,1.610583740234375,0.09420141577720642,0.07394608110189438,-0.04743397980928421
1761336371444651000,1.620651123046875,0.09824007749557495,0.07315321266651154,-0.04685603454709053
1761336371454717000,1.630717041015625,0.0998172014951706,0.08760751783847809,-0.04252147302031517
1761336371464782800,1.640782958984375,0.10227429866790771,0.08298926800489426,-0.04323040693998337
1761336371474850000,1.65085009765625,0.10075230151414871,0.07064472138881683,-0.0507810041308403
1761336371484916000,1.660916015625,0.08957620710134506,0.06994470208883286,-0.06127864867448807
1761336371494982400,1.670982421875,0.07494107633829117,0.06415605545043945,-0.08498477935791016
1761336371505049300,1.68104931640625,0.059036146849393845,0.056941814720630646,-0.1028471365571022
1761336371515115500,1.691115478515625,0.04409954324364662,0.04517143964767456,-0.11568809300661087
1761336371525182500,1.701182373046875,0.03656350076198578,0.011118117719888687,-0.12470204383134842
1761336371535248600,1.71124853515625,0.031010810285806656,-0.008964247070252895,-0.12423199415206909
1761336371545314600,1.721314453125,0.031363680958747864,-0.03397665545344353,-0.10521143674850464
1761336371555381500,1.731381591796875,0.03255517780780792,-0.03764276206493378,-0.07493501901626587
1761336371565447700,1.74144775390625,0.020632755011320114,-0.021257882937788963,-0.035355016589164734
1761336371575513600,1.751513671875,0.008838945999741554,-0.00827044527977705,-0.00009422935545444489
1761336371585580500,1.76158056640625,-0.007529673166573048,0.018315788358449936,0.039174675941467285
1761336371595646700,1.771646728515625,-0.03170664608478546,0.048392996191978455,0.06775731593370438
1761336371605713700,1.781713623046875,-0.05612307786941528,0.034548722207546234,0.09455984085798264
1761336371615779300,1.791779296875,-0.05520428717136383,0.016187822446227074,0.10052265971899033
1761336371625845500,1.801845458984375,-0.05952642485499382,0.012667371891438961,0.08441565185785294
1761336371635912400,1.811912353515625,-0.05647284910082817,-0.012533588334918022,0.05789802223443985
1761336371645978400,1.821978271484375,-0.05601845681667328,-0.039483822882175446,0.025705628097057343
1761336371656044500,1.83204443359375,-0.04701484367251396,-0.05991213396191597,-0.004407267086207867
1761336371666111500,1.842111572265625,-0.03683498501777649,-0.06894713640213013,-0.02176239714026451
1761336371676177400,1.852177490234375,-0.02367737516760826,-0.051611289381980896,-0.013244809582829475
1761336371686243600,1.86224365234375,-0.01850152015686035,-0.017379552125930786,0.01263286080211401
1761336371696310500,1.872310546875,-0.018766503781080246,0.012226808816194534,0.042003002017736435
1761336371706376400,1.88237646484375,-0.018727397546172142,0.041570719331502914,0.06674824655056
1761336371716443600,1.892443603515625,-0.010996773838996887,0.05937954783439636,0.07342611998319626
1761336371726509600,1.902509521484375,0.0032866152469068766,0.06210360303521156,0.055201467126607895
1761336371736575500,1.912575439453125,0.010021217167377472,0.06117202714085579,0.01719788834452629
1761336371746642700,1.922642578125,0.041369881480932236,0.03015890344977379,-0.00864089373499155
1761336371756708600,1.93270849609375,0.06027486175298691,0.010733273811638355,-0.04549984261393547
1761336371766774500,1.9427744140625,0.07097409665584564,0.006841568276286125,-0.09835703670978546
1761336371776841500,1.952841552734375,0.08127014338970184,-0.003146084025502205,-0.13827569782733917
1761336371786907400,1.962907470703125,0.09127187728881836,0.00757994968444109,-0.14614325761795044
1761336371796973600,1.9729736328125,0.11104478687047958,0.016318578273057938,-0.12266190350055695
1761336371807040500,1.98304052734375,0.12606929242610931,0.004553863778710365,-0.08010943233966827
1761336371817106400,1.9931064453125,0.12102500349283218,0.001958346925675869,-0.048712097108364105
1761336371827173400,2.00317333984375,0.10856156051158905,-0.02365335077047348,-0.022685717791318893
1761336371837239600,2.013239501953125,0.09314984828233719,-0.022659458220005035,-0.013636562041938305
1761336371847305500,2.023305419921875,0.10121514648199081,-0.04123073071241379,0.010567471385002136
1761336371857372400,2.033372314453125,0.10975377261638641,-0.05110546201467514,0.027720358222723007
1761336371867438600,2.0434384765625,0.10001353919506073,-0.02993168868124485,0.03997073695063591
1761336371877504500,2.05350439453125,0.08412165939807892,-0.022681765258312225,0.05687275528907776
1761336371887571500,2.063571533203125,0.07012268900871277,-0.011779786087572575,0.08194562047719955
1761336371897637600,2.0736376953125,0.06213080883026123,-0.010108651593327522,0.10450445860624313
1761336371907704600,2.08370458984375,0.04622380807995796,0.010461783967912197,0.10614284127950668
1761336371917770800,2.093770751953125,0.06070554628968239,-0.002121918834745884,0.11423032730817795
1761336371927836400,2.10383642578125,0.08419620245695114,-0.01736431010067463,0.098809614777565
1761336371937903400,2.1139033203125,0.09152203053236008,-0.022814735770225525,0.07284432649612427
1761336371947969500,2.123969482421875,0.09896965324878693,-0.046101152896881104,0.048623885959386826
1761336371958035500,2.134035400390625,0.10213294625282288,-0.05089990049600601,0.028593450784683228
1761336371968102400,2.144102294921875,0.10255573689937592,-0.05708465725183487,0.005230712704360485
1761336371978168600,2.15416845703125,0.09963185340166092,-0.07244310528039932,-0.01733957603573799
1761336371988234500,2.164234375,0.10037413239479065,-0.07894425839185715,-0.04156352952122688
1761336371998301400,2.174301513671875,0.09926039725542068,-0.08129529654979706,-0.050657425075769424
1761336372008367600,2.18436767578125,0.10612928867340088,-0.08758921176195145,-0.048378828912973404
1761336372018434600,2.1944345703125,0.10384643077850342,-0.09145558625459671,-0.038395967334508896
1761336372028500500,2.20450048828125,0.09956136345863342,-0.09341470897197723,-0.01313913706690073
1761336372038566700,2.214566650390625,0.09365793317556381,-0.09181734919548035,0.011850368231534958
1761336372048633600,2.224633544921875,0.08807332813739777,-0.07168720662593842,0.038515858352184296
1761336372058699500,2.234699462890625,0.08287003636360168,-0.05112786591053009,0.06029066443443298
1761336372068765400,2.244765380859375,0.08021236211061478,-0.04123533517122269,0.07696838676929474
1761336372078832600,2.25483251953125,0.08180546760559082,-0.03770504891872406,0.0877443328499794
1761336372088898300,2.264898193359375,0.07800421118736267,-0.025847449898719788,0.0990007147192955
1761336372098964500,2.274964599609375,0.07655305415391922,-0.016145287081599236,0.10656675696372986
1761336372109031400,2.285031494140625,0.06817172467708588,-0.007627714425325394,0.11338982731103897
1761336372119097300,2.295097412109375,0.06676451116800308,0.0015498045831918716,0.10173237323760986
1761336372129164500,2.30516455078125,0.06905542314052582,0.006086952053010464,0.0807701051235199
1761336372139230500,2.31523046875,0.06799255311489105,-0.003270598128437996,0.05399707704782486
1761336372149296600,2.325296630859375,0.06936044245958328,-0.014989328570663929,0.03088213875889778
1761336372159363600,2.335363525390625,0.06094592437148094,-0.018912697210907936,0.012020033784210682
1761336372169429500,2.345429443359375,0.04965336248278618,-0.02173657715320587,0.00745302252471447
1761336372179495700,2.35549560546875,0.036923717707395554,-0.014027523808181286,0.009753992781043053
1761336372189562600,2.365562744140625,0.03172715753316879,0.0026699071750044823,0.012002761475741863
1761336372199628500,2.375628662109375,0.029144158586859703,0.014498070813715458,0.00994067545980215
1761336372209695500,2.385695556640625,0.03139573335647583,0.017295869067311287,-0.002714138012379408
1761336372219761700,2.39576171875,0.040511999279260635,0.01929323934018612,-0.019034255295991898
1761336372229827300,2.405827392578125,0.05137515068054199,0.02245287224650383,-0.027254991233348846
1761336372239894300,2.415894287109375,0.060949478298425674,0.018830176442861557,-0.029610823839902878
1761336372249960400,2.42596044921875,0.06981801986694336,0.009779835119843483,-0.020756257697939873
1761336372260026400,2.4360263671875,0.06596842408180237,0.001481158658862114,-0.006376519333571196
1761336372270093600,2.446093505859375,0.05968603491783142,-0.005071256309747696,-0.0009835069067776203
1761336372280159500,2.456159423828125,0.04959158971905708,-0.00804360955953598,0.0057100821286439896
1761336372290225400,2.466225341796875,0.044511668384075165,-0.0012433184310793877,0.0024904757738113403
1761336372300292600,2.476292724609375,0.039182148873806,0.005853472277522087,0.0020835446193814278
1761336372310358500,2.486358642578125,0.03589993715286255,0.002668723464012146,-0.009446876123547554
1761336372320425500,2.496425537109375,0.036469586193561554,-0.0044355252757668495,-0.011814958415925503
1761336372330491600,2.50649169921875,0.03326844051480293,0.003410602919757366,-0.004622773267328739
1761336372340557600,2.5165576171875,0.03228067234158516,0.01330078486353159,0.008740968070924282
1761336372350624500,2.52662451171875,0.03634827584028244,0.011951821856200695,0.01982792839407921
1761336372360690700,2.536690673828125,0.03975445777177811,0.01701342687010765,0.026010721921920776
1761336372370756600,2.546756591796875,0.03815551474690437,0.015773244202136993,0.024004928767681122
1761336372380823600,2.556823486328125,0.03314823657274246,0.0052763959392905235,0.015470032580196857
1761336372390889500,2.566889404296875,0.02513159066438675,-0.004272366873919964,-0.005287444218993187
1761336372400955400,2.576955322265625,0.02138189598917961,-0.009439336135983467,-0.022999800741672516
1761336372411022300,2.587022216796875,0.017651088535785675,-0.008454441092908382,-0.040076956152915955
1761336372421088500,2.597088623046875,0.01001154538244009,0.0007222797721624374,-0.0502702035009861
1761336372431155500,2.607155517578125,0.002687466097995639,0.01632990688085556,-0.05903375893831253
1761336372441221400,2.617221435546875,-0.0075374748557806015,0.014421218074858189,-0.0629667192697525
1761336372451287600,2.62728759765625,-0.017077580094337463,0.0013138186186552048,-0.08231112360954285
1761336372461354500,2.6373544921875,-0.0316338837146759,-0.02952265739440918,-0.1068180650472641
1761336372471420400,2.64742041015625,-0.042288944125175476,-0.06634916365146637,-0.13413101434707642
1761336372481486600,2.657486572265625,-0.0409267358481884,-0.07899785041809082,-0.14497780799865723
1761336372491553500,2.667553466796875,-0.03162320703268051,-0.054826606065034866,-0.14312179386615753
1761336372501619500,2.677619384765625,-0.018037891015410423,-0.021109919995069504,-0.1153053417801857
1761336372511686700,2.687686767578125,-0.008357874117791653,-0.0005278084427118301,-0.07598382234573364
1761336372521752600,2.697752685546875,-0.004286699928343296,0.022121578454971313,-0.02536512166261673
1761336372531818500,2.707818603515625,-0.003105864394456148,0.03236353397369385,0.01985284686088562
1761336372541885700,2.7178857421875,0.0018550720997154713,0.03213689848780632,0.05897015333175659
1761336372551951400,2.727951416015625,0.009878831915557384,0.0353524312376976,0.08355236053466797
1761336372562017500,2.738017578125,0.017788421362638474,0.03198140114545822,0.09722929447889328
1761336372572084500,2.74808447265625,0.0238429456949234,0.01525197084993124,0.09060195833444595
1761336372582150400,2.758150390625,0.025906097143888474,-0.007886904291808605,0.0679006427526474
1761336372592216600,2.768216552734375,0.03286765515804291,-0.027564583346247673,0.04554688557982445
1761336372602283500,2.778283447265625,0.035790473222732544,-0.039665721356868744,0.02641313523054123
1761336372612349400,2.788349365234375,0.03532245755195618,-0.030069027096033096,0.013837885111570358
1761336372622416400,2.79841650390625,0.03313147649168968,-0.01481550745666027,0.009631689637899399
1761336372632482600,2.808482666015625,0.035978879779577255,-0.007696772925555706,0.017154283821582794
1761336372642548500,2.818548583984375,0.045915137976408005,0.008167944848537445,0.034840334206819534
1761336372652615400,2.828615478515625,0.050236787647008896,0.0035065235570073128,0.053646497428417206
1761336372662681600,2.838681640625,0.05307251960039139,-0.0036882730200886726,0.058930739760398865
1761336372672747500,2.84874755859375,0.051281169056892395,0.008425318636000156,0.0555303655564785
1761336372682814700,2.858814697265625,0.05437310039997101,0.020720601081848145,0.04014182090759277
1761336372692880400,2.86888037109375,0.05973729491233826,0.016468238085508347,0.020016206428408623
1761336372702947600,2.878947509765625,0.06450941413640976,0.005869121290743351,-0.005250800400972366
1761336372713013500,2.889013427734375,0.07013309746980667,0.005034159868955612,-0.019584253430366516
1761336372723079400,2.899079345703125,0.07422371208667755,0.012216705828905106,-0.02857828140258789
1761336372733146400,2.909146484375,0.06456977128982544,0.009660650044679642,-0.0320003367960453
1761336372743212500,2.919212646484375,0.05704128369688988,0.010264389216899872,-0.029975533485412598
1761336372753278500,2.929278564453125,0.05331917479634285,0.008256666362285614,-0.027126476168632507
1761336372763345400,2.939345458984375,0.053842753171920776,0.003925301134586334,-0.026806097477674484
1761336372773411600,2.94941162109375,0.05490687116980553,0.004868898540735245,-0.030833441764116287
1761336372783477500,2.9594775390625,0.04669954255223274,0.004937075078487396,-0.0261625237762928
1761336372793544400,2.96954443359375,0.04169151932001114,0.002180323004722595,-0.022470418363809586
1761336372803610600,2.979610595703125,0.033542782068252563,-0.01346761267632246,-0.0215899795293808
1761336372813677600,2.989677490234375,0.02959144115447998,-0.01154030580073595,-0.017289087176322937
1761336372823743500,2.999743408203125,0.027623362839221954,-0.0015265541151165962,-0.0018376917578279972
1761336372833809700,3.0098095703125,0.028900057077407837,0.006672176532447338,0.011392944492399693
1761336372843876600,3.019876708984375,0.031157618388533592,0.014408658258616924,0.0326060876250267
1761336372853942300,3.0299423828125,0.03176034614443779,0.025136824697256088,0.04992052540183067
1761336372864008400,3.040008544921875,0.03074061870574951,0.02508782595396042,0.05726419389247894
1761336372874075400,3.050075439453125,0.025619344785809517,0.021146558225154877,0.04339141771197319
1761336372884141600,3.0601416015625,0.02155136689543724,0.007268291898071766,0.011508585885167122
1761336372894207500,3.07020751953125,0.018606062978506088,-0.0017785346135497093,-0.018571719527244568
1761336372904274400,3.0802744140625,0.02318616770207882,-0.0026888027787208557,-0.038349151611328125
1761336372914340600,3.090340576171875,0.026602376252412796,0.003722473978996277,-0.04330258071422577
1761336372924407600,3.100407470703125,0.03024185262620449,0.0002526426687836647,-0.04054807126522064
1761336372934473500,3.110473388671875,0.03202996030449867,0.012355824001133442,-0.024662572890520096
1761336372944539600,3.12053955078125,0.02846212312579155,0.025819964706897736,-0.00605054059997201
1761336372954606600,3.130606689453125,0.03015834465622902,0.03592308610677719,0.010544577613472939
1761336372964672500,3.140672607421875,0.02733619138598442,0.04835658520460129,0.016965992748737335
1761336372974738700,3.15073876953125,0.03325556218624115,0.051362134516239166,0.022027000784873962
1761336372984805600,3.1608056640625,0.02976815402507782,0.04867473617196083,0.01618349179625511
1761336372994871600,3.17087158203125,0.029142895713448524,0.038675256073474884,0.0074082715436816216
1761336373004938500,3.1809384765625,0.028197472915053368,0.029886025935411453,-0.002251013647764921
1761336373015004400,3.19100439453125,0.03146539628505707,0.02044471725821495,-0.008845578879117966
1761336373025070300,3.2010703125,0.029452312737703323,-0.0036446377635002136,-0.02361333929002285
1761336373035137500,3.211137451171875,0.0282351765781641,-0.01184045895934105,-0.03621979430317879
1761336373045203500,3.221203369140625,0.03179528936743736,-0.004300517030060291,-0.035791292786598206
1761336373055269400,3.231269287109375,0.02701287344098091,0.008641909807920456,-0.015145187266170979
1761336373065336600,3.241336669921875,0.01732775568962097,0.02221870608627796,0.011181491427123547
1761336373075402500,3.251402587890625,0.0012171613052487373,0.037672288715839386,0.03947705030441284
1761336373085468400,3.261468505859375,-0.014969532378017902,0.048430658876895905,0.0497581847012043
1761336373095535600,3.27153564453125,-0.031679585576057434,0.041431721299886703,0.04134909063577652
1761336373105601500,3.2816015625,-0.05266769230365753,0.01915571093559265,0.009677179157733917
1761336373115668500,3.29166845703125,-0.06162506714463234,-0.009652785956859589,-0.030076302587985992
1761336373125734700,3.301734619140625,-0.05673683062195778,-0.01844467967748642,-0.056985147297382355
1761336373135800600,3.311800537109375,-0.04887061193585396,-0.02992810122668743,-0.06931979954242706
1761336373145867500,3.321867431640625,-0.04127474129199982,-0.028463363647460938,-0.05820908769965172
1761336373155933700,3.33193359375,-0.03677937760949135,-0.009086623787879944,-0.035005394369363785
1761336373165999400,3.341999267578125,-0.032425377517938614,0.01061144657433033,-0.003290873486548662
1761336373176066300,3.35206640625,-0.03961137682199478,0.026835717260837555,0.020444661378860474
1761336373186132500,3.362132568359375,-0.04328467324376106,0.025149933993816376,0.03358150273561478
1761336373196198400,3.372198486328125,-0.040990155190229416,0.02946966513991356,0.03579751402139664
1761336373206265300,3.382265380859375,-0.035802584141492844,0.03417467325925827,0.03622148931026459
1761336373216331500,3.39233154296875,-0.02993275411427021,0.030287664383649826,0.02341642417013645
1761336373226398500,3.4023984375,-0.01788647659122944,0.01917802169919014,0.004382279701530933
1761336373236464400,3.41246435546875,-0.012255221605300903,0.003766840323805809,-0.01979469507932663
1761336373246530600,3.422530517578125,-0.013158567249774933,-0.0162659902125597,-0.03958091512322426
1761336373256597500,3.432597412109375,-0.013920694589614868,-0.02364567294716835,-0.055758021771907806
1761336373266663400,3.442663330078125,-0.014624567702412605,-0.021624866873025894,-0.05895834416151047
1761336373276729600,3.4527294921875,-0.014380529522895813,-0.021272514015436172,-0.04699547588825226
1761336373286796500,3.462796630859375,-0.009804686531424522,-0.011617755517363548,-0.025816690176725388
1761336373296862700,3.47286279296875,-0.007390134502202272,0.0029562516137957573,0.0027768732979893684
1761336373306929700,3.4829296875,-0.010337986052036285,0.01247838232666254,0.028601810336112976
1761336373316995600,3.49299560546875,-0.014648943208158016,0.023409267887473106,0.03776875510811806
1761336373327061500,3.5030615234375,-0.018777906894683838,0.02920563705265522,0.03776875510811806
1761336373337128400,3.51312841796875,-0.025171566754579544,0.025952782481908798,0.027337029576301575
1761336373347194400,3.5231943359375,-0.030555415898561478,0.021467752754688263,0.004897766746580601
1761336373357260500,3.533260498046875,-0.03282759338617325,0.010103078559041023,-0.016667507588863373
1761336373367327500,3.543327392578125,-0.03850438445806503,-0.004022327251732349,-0.030712485313415527
1761336373377393400,3.553393310546875,-0.036752842366695404,-0.0018891813233494759,-0.0450286790728569
1761336373387459600,3.56345947265625,-0.03872597962617874,-0.007478091400116682,-0.05233905464410782
1761336373397526500,3.573526611328125,-0.03641391545534134,-0.010693343356251717,-0.049895018339157104
1761336373407592400,3.583592529296875,-0.03195125609636307,-0.008405954577028751,-0.04614662006497383
1761336373417659600,3.59365966796875,-0.032246559858322144,-0.008361352607607841,-0.03560897335410118
1761336373427725600,3.6037255859375,-0.02837751992046833,-0.0013878652825951576,-0.026561681181192398
1761336373437791500,3.61379150390625,-0.032440900802612305,0.008228214457631111,-0.020007643848657608
1761336373447858700,3.623858642578125,-0.033355697989463806,0.009533429518342018,-0.01035794522613287
1761336373457924600,3.633924560546875,-0.030135538429021835,0.004601113498210907,-0.0006643030792474747
1761336373467990300,3.643990234375,-0.022391866892576218,-0.007820669561624527,0.003745892085134983
1761336373478057700,3.6540576171875,-0.017966052517294884,-0.012301454320549965,-0.006098695565015078
1761336373488123400,3.664123291015625,-0.006222311407327652,-0.005272307433187962,-0.012794148176908493
1761336373498189600,3.674189453125,0.004586211405694485,-0.0018166033551096916,-0.006264773663133383
1761336373508256500,3.684256591796875,0.012540807947516441,-0.0055705951526761055,0.006529584527015686
1761336373518322400,3.694322509765625,0.008684476837515831,-0.01048249565064907,0.018410490825772285
1761336373528389400,3.704389404296875,0.009213646873831749,-0.009104309603571892,0.026165349408984184
1761336373538455600,3.71445556640625,0.01363818533718586,-0.012783297337591648,0.029849503189325333
1761336373548521500,3.724521484375,0.012570790946483612,-0.01436255220323801,0.029455356299877167
1761336373558588400,3.73458837890625,0.013958575204014778,-0.01547519862651825,0.02476244792342186
1761336373568654600,3.744654541015625,0.011186223477125168,-0.018632642924785614,0.02048620954155922
1761336373578720500,3.754720458984375,0.0077591221779584885,-0.016543297097086906,0.019455725327134132
1761336373588787500,3.764787353515625,0.0007598022930324078,-0.014136065728962421,0.016653813421726227
1761336373598853600,3.774853515625,-0.004525225609540939,-0.010001987218856812,0.012669293209910393
1761336373608920600,3.784920654296875,-0.0005645719356834888,-0.006478891242295504,0.015075458213686943
1761336373618986500,3.794986572265625,0.0003684898838400841,0.00796388927847147,0.021596429869532585
1761336373629052400,3.805052490234375,-0.0004222025163471699,0.013770646415650845,0.02704685740172863
1761336373639119600,3.81511962890625,-0.0005182484164834023,0.018975015729665756,0.02568672224879265
1761336373649185500,3.825185546875,0.0006018769927322865,0.02098863199353218,0.008049406111240387
1761336373659251500,3.83525146484375,-0.0021350043825805187,0.008119320496916771,-0.014238808304071426
1761336373669318400,3.845318359375,0.0015960843302309513,-0.004834028892219067,-0.03183884173631668
1761336373679384600,3.855384521484375,0.008684886619448662,0.007002390921115875,-0.04171384125947952
1761336373689450500,3.865450439453125,0.01246616616845131,0.006895429454743862,-0.044523999094963074
1761336373699517400,3.875517333984375,0.017580192536115646,-0.00035622715950012207,-0.04064302146434784
1761336373709583600,3.88558349609375,0.01820230856537819,-0.006349937524646521,-0.029222853481769562
1761336373719650600,3.895650634765625,0.016780715435743332,-0.015144189819693565,-0.028381578624248505
1761336373729716500,3.905716552734375,0.010659173130989075,-0.026881806552410126,-0.028841238468885422
1761336373739782700,3.91578271484375,0.001835760660469532,-0.02844856120646,-0.03519628569483757
1761336373749849600,3.925849609375,-0.006630162242799997,-0.019297141581773758,-0.03700084239244461
1761336373759915500,3.93591552734375,-0.013723894022405148,-0.013943539932370186,-0.03440558537840843
1761336373769981700,3.945981689453125,-0.01665842905640602,-0.018261855468153954,-0.029791392385959625
1761336373780048600,3.956048583984375,-0.005060948897153139,-0.0054535334929823875,-0.01777537353336811
1761336373790114300,3.9661142578125,0.00015644961968064308,0.01030039507895708,0.015270194970071316
1761336373800181500,3.976181396484375,0.0024258915800601244,0.012951531447470188,0.038742706179618835
1761336373810247400,3.986247314453125,0.0014991112984716892,0.012654854916036129,0.06174282729625702
1761336373820313300,3.996313232421875,0.0016352245584130287,0.0016771163791418076,0.06605177372694016
1761336373830380500,4.006380615234375,-0.003016785252839327,-0.012705284170806408,0.05805323272943497
1761336373840446500,4.016446533203125,-0.006464659236371517,-0.029621055349707603,0.03970314934849739
1761336373850512400,4.026512451171875,-0.016485868021845818,-0.03814610093832016,0.01880478858947754
1761336373860579600,4.03657958984375,-0.021386032924056053,-0.0434110164642334,-0.001452649012207985
1761336373870645500,4.0466455078125,-0.016951335594058037,-0.035317666828632355,-0.0013178931549191475
1761336373880711700,4.056711669921875,-0.01575567200779915,-0.027904247865080833,0.01186427753418684
1761336373890778600,4.066778564453125,-0.005174666177481413,-0.02330230548977852,0.03928551450371742
1761336373900844500,4.076844482421875,-0.0011258991435170174,-0.015644486993551254,0.05913931876420975
1761336373910911500,4.086911376953125,0.002910920651629567,-0.011973319575190544,0.07767758518457413
1761336373920977700,4.096977783203125,0.005471593234688044,-0.014728235080838203,0.07489170134067535
1761336373931043600,4.107043701171875,0.004576771054416895,-0.020028457045555115,0.06103314459323883
1761336373941110500,4.117110595703125,-0.004239880945533514,-0.029384911060333252,0.029501426964998245
1761336373951176400,4.127176513671875,-0.003777822945266962,-0.025678323581814766,0.004016309045255184
1761336373961242400,4.137242431640625,0.0012097456492483616,-0.016355928033590317,-0.011883029714226723
1761336373971309300,4.147309326171875,0.006158964242786169,-0.01421448029577732,-0.023379627615213394
1761336373981375500,4.15737548828125,0.014057442545890808,-0.01084805652499199,-0.022396788001060486
1761336373991441400,4.16744140625,0.023426709696650505,-0.012278705835342407,-0.01276013907045126
1761336374001508400,4.17750830078125,0.026705972850322723,0.005380826070904732,-0.00280575267970562
1761336374011574500,4.187574462890625,0.026898520067334175,0.02624616026878357,0.004190105013549328
1761336374021641500,4.197641357421875,0.023441683501005173,0.03369459882378578,0.009143690578639507
1761336374031707600,4.207707763671875,0.02612322010099888,0.02410668507218361,0.009675790555775166
1761336374041773600,4.217773681640625,0.026750456541776657,0.015773039311170578,-0.003705790266394615
1761336374051840500,4.227840576171875,0.027444742619991302,0.012461398728191853,-0.014327808283269405
1761336374061906700,4.23790673828125,0.02260567434132099,0.0019818171858787537,-0.024838294833898544
1761336374071972600,4.24797265625,0.024957779794931412,-0.015770815312862396,-0.029157143086194992
1761336374082039600,4.25803955078125,0.025930657982826233,-0.02366461232304573,-0.027932144701480865
1761336374092105500,4.26810546875,0.025535445660352707,-0.019802764058113098,-0.01705179736018181
1761336374102171400,4.27817138671875,0.015558591112494469,-0.02438163012266159,-0.005599300377070904
1761336374112238300,4.28823828125,0.00595097104087472,-0.011040258221328259,0.008177497424185276
1761336374122304500,4.298304443359375,-0.0015803049318492413,0.008509607054293156,0.025548093020915985
1761336374132371500,4.308371337890625,-0.0030626212246716022,0.009866752661764622,0.03447580710053444
1761336374142437400,4.318437255859375,-0.002791130915284157,0.004339465871453285,0.05075574293732643
1761336374152503600,4.328503662109375,0.0015263864770531654,0.004278745502233505,0.05380053445696831
1761336374162570500,4.338570556640625,0.0010337531566619873,0.005443235859274864,0.05362305790185928
1761336374172636400,4.348636474609375,-0.0001462935470044613,0.00126713328063488,0.04625435918569565
1761336374182702600,4.35870263671875,0.00020155124366283417,0.0072034262120723724,0.04528369754552841
1761336374192769500,4.36876953125,-0.0019649299792945385,-0.004023130051791668,0.04800385236740112
1761336374202835500,4.37883544921875,-0.0020468714646995068,-0.017972778528928757,0.03937317803502083
1761336374212902700,4.388902587890625,0.0018711714074015617,-0.030058735981583595,0.032553620636463165
1761336374222968600,4.398968505859375,0.005793522112071514,-0.02948523312807083,0.027683671563863754
1761336374233034500,4.409034423828125,0.0049016294069588184,-0.020169496536254883,0.035383936017751694
1761336374243101700,4.419101806640625,-0.004364302847534418,-0.004287702962756157,0.04056430608034134
1761336374253167400,4.42916748046875,-0.00941045954823494,0.008417440578341484,0.041248470544815063
1761336374263234600,4.439234619140625,-0.008545172400772572,0.013658618554472923,0.03790215775370598
1761336374273300500,4.449300537109375,-0.0022774236276745796,0.0069391969591379166,0.02762075886130333
1761336374283366400,4.459366455078125,0.0006707124412059784,-0.004963754676282406,0.014687486924231052
1761336374293433300,4.469433349609375,0.0044268351048231125,-0.004760022275149822,0.0037187254056334496
1761336374303499500,4.47949951171875,0.004135305993258953,0.0062697213143110275,-0.0010963180102407932
1761336374313566500,4.48956640625,0.0021469900384545326,0.010660475119948387,-0.0031083361245691776
1761336374323632400,4.49963232421875,0.004518227651715279,0.01536401454359293,-0.008378513157367706
1761336374333698600,4.509698486328125,0.003387982025742531,0.009861125610768795,-0.019685495644807816
1761336374343765500,4.519765625,-0.003373726736754179,-0.001987624913454056,-0.03997170925140381
1761336374353831400,4.52983154296875,-0.006011055316776037,-0.014921000227332115,-0.06398410350084305
1761336374363897600,4.539897705078125,-0.01156499981880188,-0.02611722983419895,-0.0852288231253624
1761336374373964500,4.549964599609375,-0.009417427703738213,-0.03478981554508209,-0.08389298617839813
1761336374384030500,4.560030517578125,-0.00018379278481006622,-0.03262756019830704,-0.06779641658067703
1761336374394096600,4.5700966796875,0.0060341558419167995,-0.015324202366173267,-0.02914116531610489
1761336374404163600,4.58016357421875,0.0016481871716678143,0.008021834306418896,0.014845360070466995
1761336374414229500,4.5902294921875,-0.0007265536114573479,0.02799634262919426,0.04325356334447861
1761336374424296700,4.600296630859375,-0.009844332933425903,0.04362054541707039,0.05637747049331665
1761336374434362400,4.6103623046875,-0.010769780725240707,0.04531830921769142,0.053026679903268814
1761336374444428500,4.620428466796875,-0.011876615695655346,0.037578847259283066,0.03895841911435127
1761336374454495500,4.63049560546875,-0.016276422888040543,0.022468339651823044,0.01145009696483612
1761336374464561400,4.6405615234375,-0.015148567035794258,0.009995969943702221,-0.011018194258213043
1761336374474627600,4.650627685546875,-0.017420243471860886,0.0004935441538691521,-0.036729682236909866
1761336374484694500,4.660694580078125,-0.01958169788122177,-0.010523777455091476,-0.05413205549120903
1761336374494760200,4.67076025390625,-0.027730703353881836,-0.020687464624643326,-0.05846235528588295
1761336374504827100,4.6808271484375,-0.031671613454818726,-0.018814099952578545,-0.05517009273171425
1761336374514893300,4.690893310546875,-0.03399362415075302,-0.01693124510347843,-0.03931043669581413
1761336374524959200,4.700959228515625,-0.032061733305454254,0.005800539627671242,-0.015367351472377777
1761336374535026400,4.7110263671875,-0.03451450914144516,0.030058473348617554,0.012816616334021091
1761336374545092400,4.72109228515625,-0.0409654825925827,0.037823185324668884,0.029342859983444214
1761336374555158300,4.731158203125,-0.04372105747461319,0.04012762010097504,0.04498174041509628
1761336374565225500,4.7412255859375,-0.04505486041307449,0.04439238831400871,0.04189705848693848
1761336374575291100,4.751291015625,-0.04153336212038994,0.04264269396662712,0.027307726442813873
1761336374585357300,4.761357421875,-0.034492649137973785,0.025527149438858032,-0.00029682740569114685
1761336374595424300,4.77142431640625,-0.02650795876979828,-0.005306927487254143,-0.023561403155326843
1761336374605490200,4.781490234375,-0.02102365344762802,-0.02081912010908127,-0.04096820950508118
1761336374615557000,4.79155712890625,-0.016851812601089478,-0.021115262061357498,-0.05259610339999199
1761336374625623300,4.801623291015625,-0.019872771576046944,-0.014605581760406494,-0.04622901231050491
1761336374635689200,4.811689208984375,-0.021401159465312958,-0.005586520303040743,-0.03212810680270195
1761336374645756200,4.821756103515625,-0.028056608512997627,0.011970818042755127,-0.01610771007835865
1761336374655822300,4.831822265625,-0.02710585854947567,0.014541832730174065,-0.0005274186842143536
1761336374665888300,4.84188818359375,-0.020826151594519615,0.023750165477395058,0.00682908296585083
1761336374675955200,4.851955078125,-0.01952892728149891,0.02286147139966488,0.0059542348608374596
1761336374686021400,4.862021484375,-0.015413783490657806,0.016696862876415253,0.0048258015885949135
1761336374696088300,4.87208837890625,-0.015200464054942131,0.012541798874735832,-0.004933884833008051
1761336374706154200,4.882154296875,-0.014568460173904896,0.01191179919987917,-0.016101524233818054
1761336374716220200,4.89222021484375,-0.009586484171450138,0.008501087315380573,-0.02197006717324257
1761336374726287400,4.902287353515625,-0.005221840459853411,0.0021893708035349846,-0.02178056165575981
1761336374736353300,4.912353271484375,0.0027268962003290653,-0.0014908509328961372,-0.024912439286708832
1761336374746419200,4.922419189453125,0.01284097135066986,-0.01464017666876316,-0.02895762398838997
1761336374756486100,4.932486083984375,0.008585507050156593,-0.026523467153310776,-0.029604237526655197
1761336374766552300,4.94255224609375,0.0007612016052007675,-0.028830381110310555,-0.026692332699894905
1761336374776618200,4.9526181640625,-0.009591304697096348,-0.018497049808502197,-0.02305871620774269
1761336374786685200,4.962685302734375,-0.023723404854536057,-0.004741928540170193,-0.02084355801343918
1761336374796751400,4.97275146484375,-0.03391532227396965,0.017890414223074913,-0.020827045664191246
1761336374806818300,4.982818359375,-0.04069569334387779,0.006925751455128193,-0.01811668649315834
1761336374816884200,4.99288427734375,-0.047875575721263885,-0.011799998581409454,-0.016204271465539932
1761336374826950400,5.002950439453125,-0.03872231766581535,-0.004095285199582577,-0.012297894805669785
1761336374837017300,5.013017333984375,-0.033186402171850204,0.0052340347319841385,-0.0008162083104252815
1761336374847083300,5.023083251953125,-0.036320265382528305,0.013176019303500652,0.013667766004800797
1761336374857149400,5.0331494140625,-0.03799140080809593,0.021179884672164917,0.028283990919589996
1761336374867216400,5.04321630859375,-0.05573144555091858,0.00949626974761486,0.03618399426341057
1761336374877282000,5.053281982421875,-0.056313347071409225,0.015901971608400345,0.018610592931509018
1761336374887349200,5.063349365234375,-0.03472128137946129,0.00851236842572689,0.001796407625079155
1761336374897415200,5.073415283203125,-0.02370378188788891,-0.011114861816167831,-0.013708249665796757
1761336374907481000,5.083481201171875,-0.025680724531412125,-0.017802024260163307,-0.020664803683757782
1761336374917548300,5.09354833984375,-0.02300637774169445,-0.02461518906056881,-0.024706415832042694
1761336374927614200,5.1036142578125,-0.016149749979376793,-0.03982248529791832,-0.0381632074713707
1761336374937680100,5.11368017578125,-0.0043793777003884315,-0.06371929496526718,-0.04932158812880516
1761336374947747300,5.123747314453125,0.0026936556678265333,-0.0801653042435646,-0.05712692067027092
1761336374957813200,5.133813232421875,0.013845376670360565,-0.08931192755699158,-0.0582883283495903
1761336374967879200,5.143879150390625,0.013405155390501022,-0.08616620302200317,-0.044950682669878006
1761336374977946400,5.1539462890625,0.016134047880768776,-0.06220799684524536,-0.02201838232576847
1761336374988012300,5.16401220703125,0.010323485359549522,-0.042227596044540405,0.010468612425029278
1761336374998079200,5.174079345703125,0.0017361226491630077,-0.026868347078561783,0.04383695870637894
1761336375008145400,5.1841455078125,-0.0028340239077806473,-0.00749779911711812,0.06695272028446198
1761336375018211300,5.19421142578125,0.0000645606778562069,0.011789878830313683,0.08040221035480499
1761336375028278300,5.2042783203125,-0.0005977251566946507,0.022174470126628876,0.07639926671981812
1761336375038344200,5.21434423828125,0.009613366797566414,0.023904457688331604,0.06934481859207153
1761336375048410000,5.22441015625,0.014326415956020355,0.016471732407808304,0.05544407665729523
1761336375058477000,5.23447705078125,0.02078564651310444,0.0005718618631362915,0.03312412649393082
1761336375068543200,5.244543212890625,0.022377409040927887,-0.02322617918252945,0.0032388241961598396
1761336375078610200,5.254610107421875,0.02113317884504795,-0.036550771445035934,-0.03763031214475632
1761336375088676000,5.264676025390625,0.01434810645878315,-0.034556739032268524,-0.07466928660869598
1761336375098742300,5.2747421875,0.0030030403286218643,-0.030595285817980766,-0.09703584760427475
1761336375108809200,5.284809326171875,-0.008137844502925873,-0.02265799045562744,-0.10238730162382126
1761336375118875400,5.29487548828125,-0.016978474333882332,-0.009449778124690056,-0.09506973624229431
1761336375128941300,5.30494140625,-0.017461201176047325,0.0028511332347989082,-0.08159887790679932
1761336375139008300,5.31500830078125,-0.002435911912471056,0.00797478947788477,-0.05663839727640152
1761336375149074400,5.325074462890625,0.009122263640165329,-0.01564726047217846,-0.029458560049533844
1761336375159140400,5.335140380859375,0.02700565755367279,-0.01818551868200302,0.002172335982322693
1761336375169207300,5.345207275390625,0.026004694402217865,-0.016585132107138634,0.021237798035144806
1761336375179273500,5.3552734375,0.020954275503754616,-0.034651484340429306,0.024854905903339386
1761336375189340400,5.36534033203125,0.019032511860132217,-0.052160248160362244,0.03156585618853569
1761336375199406000,5.375406005859375,0.006758269388228655,-0.057713739573955536,0.029691524803638458
1761336375209472300,5.38547216796875,-0.0016464353539049625,-0.05222747102379799,0.021973364055156708
1761336375219539200,5.395539306640625,-0.008096344769001007,-0.058945026248693466,0.020224198698997498
1761336375229605000,5.405605224609375,-0.003821738064289093,-0.059663377702236176,0.02677110582590103
1761336375239671300,5.41567138671875,-0.001453122589737177,-0.054432399570941925,0.04492294415831566
1761336375249738200,5.42573828125,0.002351991832256317,-0.03929927945137024,0.06922311335802078
1761336375259804200,5.43580419921875,0.0003018905408680439,-0.03045571967959404,0.09308663755655289
1761336375269870300,5.445870361328125,-0.004961794707924128,-0.028044071048498154,0.10064218193292618
1761336375279937300,5.455937255859375,-0.011087331920862198,-0.03359782695770264,0.09276748448610306
1761336375290003200,5.466003173828125,-0.015297600999474525,-0.03612007573246956,0.07009641826152802
1761336375300070400,5.4760703125,-0.02001272700726986,-0.043321527540683746,0.04606112092733383
1761336375310136300,5.48613623046875,-0.0314134806394577,-0.04647878557443619,0.016145355999469757
1761336375320202200,5.4962021484375,-0.04742387309670448,-0.0617099329829216,-0.011591468006372452
1761336375330269400,5.50626953125,-0.05869966000318527,-0.10106255859136581,-0.04307876527309418
1761336375340335400,5.51633544921875,-0.06797332316637039,-0.13981953263282776,-0.0739770233631134
1761336375350401300,5.5264013671875,-0.06259835511445999,-0.16070035099983215,-0.09053704142570496
1761336375360468200,5.53646826171875,-0.060813501477241516,-0.160637766122818,-0.09627002477645874
1761336375370534100,5.5465341796875,-0.06809405237436295,-0.16637900471687317,-0.09001931548118591
1761336375380600300,5.556600341796875,-0.07342357188463211,-0.1964854896068573,-0.07635118067264557
1761336375390667300,5.566667236328125,-0.067753367125988,-0.19977536797523499,-0.018573902547359467
1761336375400733200,5.576733154296875,-0.05967307090759277,-0.16202771663665771,0.0743994489312172
1761336375410800000,5.586800048828125,-0.06588387489318848,-0.10380182415246964,0.1734658032655716
1761336375420866300,5.5968662109375,-0.092127725481987,-0.036593496799468994,0.254564106464386
1761336375430932200,5.60693212890625,-0.12616752088069916,0.027295555919408798,0.29761117696762085
1761336375440999200,5.616999267578125,-0.16081097722053528,0.05735918506979942,0.30089324712753296
1761336375451065300,5.6270654296875,-0.18466582894325256,0.06006035953760147,0.27147164940834045
1761336375461131300,5.63713134765625,-0.18466448783874512,0.0254571083933115,0.2169085443019867
1761336375471198200,5.6471982421875,-0.15369294583797455,-0.058619529008865356,0.15543843805789948
1761336375481264400,5.657264404296875,-0.11064666509628296,-0.1578422486782074,0.09464085847139359
1761336375491330000,5.667330078125,-0.06983632594347,-0.2202383428812027,0.04465188458561897
1761336375501397200,5.677397216796875,-0.0419602245092392,-0.24186427891254425,0.018316149711608887
1761336375511463200,5.687463134765625,-0.02836506813764572,-0.22792480885982513,-0.007533394265919924
1761336375521530000,5.697530029296875,-0.01934334635734558,-0.20407380163669586,-0.037738967686891556
1761336375531596300,5.70759619140625,-0.030119622126221657,-0.22656838595867157,-0.07729729264974594
1761336375541662200,5.717662109375,-0.048336710780858994,-0.2878488004207611,-0.1355598121881485
1761336375551729200,5.727729248046875,-0.06628815084695816,-0.37453773617744446,-0.1884443163871765
1761336375561795300,5.73779541015625,-0.07353248447179794,-0.41643351316452026,-0.2115807980298996
1761336375571861000,5.747861083984375,-0.05890499800443649,-0.35059356689453125,-0.18274329602718353
1761336375581928000,5.757927978515625,-0.04401686042547226,-0.28216683864593506,-0.13689671456813812
1761336375591994000,5.767994140625,-0.05157884210348129,-0.29279935359954834,-0.1119396910071373
1761336375602061000,5.77806103515625,-0.06131003051996231,-0.31183934211730957,-0.11101744323968887
1761336375612127000,5.788126953125,-0.055975206196308136,-0.2744145095348358,-0.13617882132530212
1761336375622193200,5.798193115234375,-0.045436013489961624,-0.25234171748161316,-0.18823696672916412
1761336375632260000,5.808260009765625,-0.04310459643602371,-0.22353270649909973,-0.2594793438911438
1761336375642326000,5.818325927734375,-0.055267252027988434,-0.16718314588069916,-0.3287646770477295
1761336375652392200,5.82839208984375,-0.07827484607696533,-0.14224696159362793,-0.3909245729446411
1761336375662459100,5.838459228515625,-0.08683371543884277,-0.08252476155757904,-0.3932678699493408
1761336375672525000,5.848525146484375,-0.09051571786403656,-0.03195107355713844,-0.32774537801742554
1761336375682591200,5.85859130859375,-0.10589094460010529,-0.019678961485624313,-0.2456638216972351
1761336375692658200,5.868658203125,-0.12182620167732239,-0.0004979781806468964,-0.16715416312217712
1761336375702724000,5.87872412109375,-0.13051822781562805,0.026215126737952232,-0.1230226531624794
1761336375712791300,5.888791259765625,-0.13201290369033813,0.041762061417102814,-0.11474959552288055
1761336375722857200,5.898857177734375,-0.11183493584394455,0.0739452987909317,-0.12598760426044464
1761336375732923100,5.908923095703125,-0.07546671479940414,0.12424706667661667,-0.14002543687820435
1761336375742990000,5.918989990234375,-0.04474182426929474,0.15712593495845795,-0.12762495875358582
1761336375753056000,5.929055908203125,-0.01544886827468872,0.16701173782348633,-0.08889829367399216
1761336375763122200,5.9391220703125,0.009261803701519966,0.14589527249336243,-0.026894312351942062
1761336375773189000,5.949189208984375,0.01957755908370018,0.1077747792005539,0.02884351834654808
1761336375783255000,5.959255126953125,0.01115397922694683,0.08677388727664948,0.05870527774095535
1761336375793321200,5.9693212890625,-0.025883004069328308,0.08103357255458832,0.05642961338162422
1761336375803388200,5.97938818359375,-0.06208362057805061,0.10042537748813629,0.034231897443532944
1761336375813454000,5.9894541015625,-0.0973784402012825,0.13216403126716614,0.011323545128107071
1761336375823521000,5.99952099609375,-0.12347900867462158,0.15090253949165344,0.003294646739959717
1761336375833587200,6.009587158203125,-0.1401883065700531,0.14239747822284698,0.0038005542010068893
1761336375843653000,6.019653076171875,-0.1562064290046692,0.12078353762626648,0.019906021654605865
1761336375853720000,6.029719970703125,-0.160996675491333,0.08942074328660965,0.03373388200998306
1761336375863786200,6.0397861328125,-0.16268271207809448,0.07104706019163132,0.03908576816320419
1761336375873852000,6.049851806640625,-0.150835320353508,0.06975694745779037,0.04420969635248184
1761336375883919400,6.05991943359375,-0.1339207887649536,0.06590042263269424,0.026193678379058838
1761336375893985000,6.069985107421875,-0.12216643989086151,0.07430125772953033,-0.0019189734011888504
1761336375904052000,6.080052001953125,-0.12917214632034302,0.09966014325618744,-0.026002472266554832
1761336375914118100,6.0901181640625,-0.16085736453533173,0.13646532595157623,-0.05231226608157158
1761336375924184000,6.10018408203125,-0.1977168470621109,0.17686815559864044,-0.07579175382852554
1761336375934251000,6.1102509765625,-0.22004173696041107,0.220246821641922,-0.0968831330537796
1761336375944317200,6.120317138671875,-0.22108037769794464,0.262760192155838,-0.11534550786018372
1761336375954383000,6.130383056640625,-0.21376048028469086,0.2674380838871002,-0.13472355902194977
1761336375964450000,6.140449951171875,-0.19330660998821259,0.260882169008255,-0.14244140684604645
1761336375974516200,6.15051611328125,-0.15973806381225586,0.2945863902568817,-0.11414878815412521
1761336375984582100,6.16058203125,-0.12847308814525604,0.35315996408462524,-0.06003947928547859
1761336375994649000,6.170649169921875,-0.09778761863708496,0.3976967930793762,0.010397138074040413
1761336376004715300,6.18071533203125,-0.051779117435216904,0.4437926411628723,0.06243077665567398
1761336376014782200,6.1907822265625,-0.012662540189921856,0.44880998134613037,0.08794279396533966
1761336376024848100,6.20084814453125,0.011708047240972519,0.4222281873226166,0.08269263803958893
1761336376034914000,6.2109140625,0.014616088941693306,0.3629295825958252,0.061650730669498444
1761336376044981200,6.220981201171875,0.0029599659610539675,0.30018627643585205,0.03281695395708084
1761336376055047000,6.231046875,-0.008751755580306053,0.27601030468940735,0.003954950720071793
1761336376065113000,6.241113037109375,-0.009666550904512405,0.2892771065235138,-0.019982872530817986
1761336376075180000,6.251179931640625,-0.0017021959647536278,0.2942015528678894,-0.04027876630425453
1761336376085246200,6.26124609375,0.0002608201466500759,0.27442997694015503,-0.05110824480652809
1761336376095312100,6.27131201171875,0.006990994792431593,0.2527382969856262,-0.05215039849281311
1761336376105379000,6.281379150390625,0.02576468326151371,0.22827714681625366,-0.05167476087808609
1761336376115445200,6.2914453125,0.04977311193943024,0.19228757917881012,-0.05877922102808952
1761336376125512200,6.30151220703125,0.07794696092605591,0.14373043179512024,-0.07344231754541397
1761336376135578000,6.311578125,0.09103306382894516,0.10014631599187851,-0.1064750999212265
1761336376145644300,6.321644287109375,0.09168447554111481,0.06397153437137604,-0.1413571834564209
1761336376155711200,6.331711181640625,0.0811937153339386,0.03929724544286728,-0.16657763719558716
1761336376165777200,6.341777099609375,0.07017222046852112,0.03256557509303093,-0.16948340833187103
1761336376175843300,6.35184326171875,0.05412595719099045,0.040207747370004654,-0.14453507959842682
1761336376185910300,6.36191015625,0.03356022760272026,0.05138450115919113,-0.1080297976732254
1761336376195976000,6.371975830078125,0.015346379950642586,0.06519205868244171,-0.05759800225496292
1761336376206042000,6.3820419921875,0.0006689000874757767,0.06631644070148468,-0.002160043455660343
1761336376216109000,6.392109130859375,-0.010413415729999542,0.06188036873936653,0.04001212492585182
1761336376226175000,6.402175048828125,-0.022049298509955406,0.05842385068535805,0.07646653801202774
1761336376236242200,6.4122421875,-0.03508802130818367,0.06187484785914421,0.08920007199048996
1761336376246308000,6.42230810546875,-0.05325903743505478,0.06458408385515213,0.0777687206864357
1761336376256374000,6.4323740234375,-0.06792239844799042,0.06532097607851028,0.04294629022479057
1761336376266441200,6.442441162109375,-0.06649227440357208,0.06846059858798981,0.002186729572713375
1761336376276507100,6.452507080078125,-0.05758686736226082,0.07074471563100815,-0.022877994924783707
1761336376286573000,6.462572998046875,-0.054925307631492615,0.0681300237774849,-0.036895811557769775
1761336376296640300,6.47264013671875,-0.05025288462638855,0.06989328563213348,-0.035854991525411606
1761336376306706200,6.4827060546875,-0.012694058939814568,0.1199205070734024,-0.052652083337306976
1761336376316773000,6.492773193359375,0.04195508733391762,0.15623675286769867,-0.08513801544904709
1761336376326839300,6.50283935546875,0.07363365590572357,0.16551414132118225,-0.11488872021436691
1761336376336905200,6.5129052734375,0.09660476446151733,0.17416463792324066,-0.12517958879470825
1761336376346972200,6.52297216796875,0.11125694215297699,0.18482500314712524,-0.13756197690963745
1761336376357038000,6.5330380859375,0.11734472215175629,0.17970874905586243,-0.1587628573179245
1761336376367104000,6.54310400390625,0.11237819492816925,0.16382353007793427,-0.19819948077201843
1761336376377171000,6.5531708984375,0.10253488272428513,0.15534907579421997,-0.2224997580051422
1761336376387237000,6.563237060546875,0.0940370038151741,0.16318117082118988,-0.23279181122779846
1761336376397303000,6.573302978515625,0.0847642570734024,0.20156484842300415,-0.2316386103630066
1761336376407370000,6.583369873046875,0.08124036341905594,0.2735484838485718,-0.21059563755989075
1761336376417436200,6.593436279296875,0.08583692461252213,0.33795738220214844,-0.1793052703142166
1761336376427503000,6.603503173828125,0.09507942199707031,0.3700697720050812,-0.15024244785308838
1761336376437569000,6.613569091796875,0.09642983973026276,0.3804076910018921,-0.12070905417203903
1761336376447635200,6.62363525390625,0.1077546700835228,0.3252789378166199,-0.10007701069116592
1761336376457702100,6.6337021484375,0.13469365239143372,0.21260152757167816,-0.07676178961992264
1761336376467768300,6.643768310546875,0.1320938616991043,0.1415228247642517,-0.05918385833501816
1761336376477834200,6.653834228515625,0.09857303649187088,0.0835098996758461,-0.03979465737938881
1761336376487901200,6.663901123046875,0.06138784810900688,0.04798119515180588,-0.017546340823173523
1761336376497967600,6.673967529296875,0.017678122967481613,0.05298962444067001,-0.00124274380505085
1761336376508033800,6.68403369140625,-0.029907239601016045,0.06878989189863205,-0.012265833094716072
1761336376518100700,6.694100830078125,-0.07155419886112213,0.07630690932273865,-0.04650678485631943
1761336376528166700,6.704166748046875,-0.11100573092699051,0.06255940347909927,-0.10734696686267853
1761336376538233900,6.71423388671875,-0.11839883774518967,0.03555391728878021,-0.17699655890464783
1761336376548299800,6.7242998046875,-0.1099076122045517,0.009983307681977749,-0.227212592959404
1761336376558365700,6.73436572265625,-0.0940631851553917,0.024171430617570877,-0.24806305766105652
1761336376568433000,6.744432861328125,-0.06360034644603729,-0.01722128316760063,-0.21583934128284454
1761336376578498800,6.754498779296875,-0.05787628889083862,-0.062171585857868195,-0.18422268331050873
1761336376588565000,6.76456494140625,-0.10651040822267532,-0.06826703250408173,-0.1660551279783249
1761336376598632000,6.7746318359375,-0.14828525483608246,-0.0818842202425003,-0.15380758047103882
1761336376608697600,6.784697509765625,-0.1702890843153,-0.07342761754989624,-0.1397833675146103
1761336376618764500,6.7947646484375,-0.16960585117340088,-0.045310333371162415,-0.1243654191493988
1761336376628830700,6.804830810546875,-0.15659017860889435,0.007308938540518284,-0.09579635411500931
1761336376638896600,6.814896728515625,-0.155337393283844,0.05018537491559982,-0.07391215115785599
1761336376648963600,6.824963623046875,-0.16181446611881256,0.065066859126091,-0.05251365154981613
1761336376659029800,6.83502978515625,-0.17513076961040497,0.04995141178369522,-0.030495118349790573
1761336376669095700,6.845095703125,-0.1893848031759262,0.02989993803203106,-0.018403036519885063
1761336376679162600,6.85516259765625,-0.19292445480823517,0.027930671349167824,-0.011235455051064491
1761336376689228800,6.865228759765625,-0.1771036833524704,0.04085365682840347,-0.009790956042706966
1761336376699294700,6.875294677734375,-0.14785555005073547,0.048913873732089996,-0.018261726945638657
1761336376709361700,6.885361572265625,-0.10452139377593994,0.03860504552721977,-0.030718130990862846
1761336376719427800,6.895427734375,-0.06869568675756454,0.010428200475871563,-0.04824252799153328
1761336376729494800,6.905494873046875,-0.0385710671544075,-0.018779220059514046,-0.06176845729351044
1761336376739561000,6.91556103515625,-0.024227995425462723,-0.0571279376745224,-0.06762054562568665
1761336376749627000,6.925626953125,-0.020285984501242638,-0.07285736501216888,-0.059971410781145096
1761336376759693800,6.93569384765625,-0.010434434749186039,-0.060225244611501694,-0.04861259460449219
1761336376769759700,6.945759765625,-0.0036311233416199684,-0.027388203889131546,-0.030249036848545074
1761336376779825700,6.95582568359375,-0.0015580407343804836,0.011954902671277523,0.00483822263777256
1761336376789892600,6.965892578125,-0.005318157374858856,0.036604322493076324,0.051861390471458435
1761336376799958800,6.975958740234375,-0.011418338865041733,0.051998645067214966,0.09909243881702423
1761336376810024700,6.986024658203125,-0.01705225557088852,0.07577987015247345,0.13817937672138214
1761336376820091600,6.996091552734375,-0.012434890493750572,0.09831653535366058,0.14755935966968536
1761336376830157800,7.00615771484375,-0.007816703990101814,0.10750550031661987,0.1293180286884308
1761336376840224800,7.016224853515625,-0.00588928023353219,0.08603617548942566,0.08363944292068481
1761336376850290700,7.026290771484375,0.002951615722849965,0.03261769562959671,0.036344897001981735
1761336376860356900,7.03635693359375,0.015245644375681877,-0.013555691577494144,-0.000514207873493433
1761336376870423800,7.046423828125,0.019746653735637665,-0.030921099707484245,-0.030580764636397362
1761336376880489700,7.05648974609375,0.016626570373773575,-0.03513984754681587,-0.04172438755631447
1761336376890556000,7.066555908203125,0.012162048369646072,-0.02640627697110176,-0.04017762467265129
1761336376900622800,7.076622802734375,0.00796437356621027,-0.006368919741362333,-0.024904660880565643
1761336376910688500,7.0866884765625,0.0007392177358269691,0.031446635723114014,-0.014842705801129341
1761336376920754700,7.096754638671875,-0.008244751952588558,0.06450160592794418,-0.020693939179182053
1761336376930821600,7.106821533203125,-0.01965160295367241,0.09278810769319534,-0.04157232493162155
1761336376940887800,7.1168876953125,-0.027491217479109764,0.09349284321069717,-0.05027899518609047
1761336376950954800,7.126954833984375,-0.033090248703956604,0.08375179767608643,-0.043691135942935944
1761336376961020700,7.137020751953125,-0.03716390207409859,0.07516497373580933,-0.023905545473098755
1761336376971086800,7.1470869140625,-0.03741024434566498,0.0902581736445427,-0.013651842251420021
1761336376981153800,7.15715380859375,-0.042248766869306564,0.14288197457790375,-0.01877145655453205
1761336376991219700,7.1672197265625,-0.045018453150987625,0.18611359596252441,-0.037868984043598175
1761336377001286000,7.177285888671875,-0.04594597965478897,0.20108391344547272,-0.04576669633388519
1761336377011352800,7.187352783203125,-0.033568404614925385,0.18847598135471344,-0.04237569123506546
1761336377021418800,7.197418701171875,-0.0231948085129261,0.16315028071403503,-0.02409692481160164
1761336377031485000,7.20748486328125,-0.01897849142551422,0.14508792757987976,-0.002970866858959198
1761336377041552000,7.2175517578125,-0.021775543689727783,0.16464769840240479,-0.011601375415921211
1761336377051617800,7.22761767578125,-0.02603686787188053,0.1853676438331604,-0.041161131113767624
1761336377061684700,7.237684814453125,-0.011515190824866295,0.16850526630878448,-0.05038163438439369
1761336377071750700,7.247750732421875,0.012858325615525246,0.14737121760845184,-0.048402637243270874
1761336377081816600,7.257816650390625,0.03403182327747345,0.14498700201511383,-0.05259732902050018
1761336377091883800,7.2678837890625,0.04697531834244728,0.1420133113861084,-0.07235239446163177
1761336377101949700,7.27794970703125,0.05657593533396721,0.12911592423915863,-0.09037304669618607
1761336377112015600,7.288015625,0.06929439306259155,0.1298123449087143,-0.07080520689487457
1761336377122082800,7.298082763671875,0.07986874133348465,0.15249395370483398,-0.02614399418234825
1761336377132148700,7.308148681640625,0.0417378693819046,0.28883394598960876,0.19181309640407562
1761336377142215700,7.318215576171875,-0.03481390327215195,0.2504015862941742,0.2903439402580261
1761336377152281900,7.32828173828125,-0.07671262323856354,0.13150794804096222,0.280671089887619
1761336377162347800,7.33834765625,-0.05125891789793968,0.029315028339624405,0.23623701930046082
1761336377172414700,7.348414794921875,0.0025087057147175074,0.019769728183746338,0.1590873748064041
1761336377182481000,7.35848095703125,0.03686413913965225,0.03902633860707283,0.04906197264790535
1761336377192546800,7.368546875,0.04496040940284729,-0.009153971448540688,-0.05286918580532074
1761336377202613800,7.37861376953125,0.046354662626981735,-0.06815683841705322,-0.12152232974767685
1761336377212680000,7.388679931640625,0.04072527214884758,-0.10584163665771484,-0.12562280893325806
1761336377222747000,7.398746826171875,0.028775274753570557,-0.08293404430150986,-0.046787381172180176
