time,seconds_elapsed,z,y,x
1761336088582374700,0.126374755859375,0.07324000825583935,0.09066153704747557,-0.3820201262235641
1761336088592440600,0.136440673828125,0.3097767277896404,0.2085201469697058,-0.7765314852297306
1761336088602507500,0.146507568359375,0.5980266834259033,0.20861177077591417,-1.0246398384831845
1761336088612573700,0.15657373046875,0.8459633333742618,0.19285306062996385,-1.0207489685244857
1761336088622640600,0.166640625,0.9321259515672922,0.11730828256309032,-0.7867321228571236
1761336088632706600,0.17670654296875,0.8246826449364423,0.048461686960607764,-0.5298454929295927
1761336088642773500,0.1867734375,0.6834042887210846,0.030541414866596457,-0.4084110703472048
1761336088652839700,0.196839599609375,0.7155483164787292,0.0589615997955203,-0.2678394741617143
1761336088662906600,0.20690673828125,0.854187556362152,0.20390461599826812,-0.04504157631881535
1761336088672972800,0.216972900390625,0.6817337251603603,0.07716448822319508,-0.1321655138246715
1761336088683039700,0.227039794921875,0.19796528907716274,-0.014499649995565413,-0.4085672838222235
1761336088693105400,0.23710546875,-0.033201427856087685,-0.03858852772191167,-0.45233694050908085
1761336088703172600,0.247172607421875,-0.058629299101233476,-0.08061419028565286,-0.3444675904858857
1761336088713239600,0.257239501953125,0.04138239622414112,-0.06885141790807246,-0.20206571013331412
1761336088723305500,0.267305419921875,0.21540508417785167,-0.030853403425216672,-0.0876117210227996
1761336088733372700,0.27737255859375,0.3214163121789694,-0.0443013524107635,-0.06130487498603761
1761336088743438600,0.2874384765625,0.2728776144593954,-0.11006386439278722,-0.09445793365575372
1761336088753505500,0.297505615234375,0.17423253131210803,-0.14899331450685857,-0.05221702090613543
1761336088763571500,0.307571533203125,0.205544199898839,-0.16264116997867822,0.08450242989584802
1761336088773638400,0.317638427734375,0.2618231364816427,-0.22125015694424507,0.23048998671546578
1761336088783704600,0.32770458984375,0.32337270694375037,-0.2715674086436629,0.33384332061894234
1761336088793771500,0.337771484375,0.31645956655442714,-0.4364281543679535,0.29239348518177866
1761336088803837400,0.34783740234375,0.3554460075527429,-0.5185645857848227,0.0385786273824051
1761336088813904600,0.357904541015625,0.37705636633634565,-0.857611685591936,-0.4088114678416401
1761336088823970600,0.367970458984375,0.0002887538135051727,-1.2861172302670776,-0.7145381165228784
1761336088834037500,0.37803759765625,-0.2144885538548231,-1.0603867130383848,-0.7831186085350811
1761336088844103700,0.388103759765625,-0.13534545903503895,-0.7708136921048164,-0.6982388697594404
1761336088854170600,0.398170654296875,0.012998013260960579,-0.5422361148819327,-0.38320009325575083
1761336088864236500,0.408236572265625,0.20840718811452388,-0.3613811697553843,-0.10895166536718606
1761336088874303500,0.418303466796875,0.13676935435831547,-0.1774653026882559,-0.019042992513626813
1761336088884369700,0.42836962890625,-0.3423188149541616,-0.0000979074165225029,0.018452442741952835
1761336088894436600,0.4384365234375,-1.0002478861570359,0.05177066537812352,0.22580672427006065
1761336088904502500,0.44850244140625,-1.4365689268887043,0.04957695472612977,0.4495074892368167
1761336088914569700,0.45856982421875,-1.710738334724307,0.06409589394405484,0.5155222954794764
1761336088924636700,0.46863671875,-1.6098299828201532,0.3202351395703852,0.35100561395250257
1761336088934702600,0.47870263671875,-1.1637801597565411,0.580373976226896,0.22804390873759983
1761336088944769500,0.48876953125,-0.7004699898123741,0.5537571874581277,0.25588001016825435
1761336088954835700,0.498835693359375,-0.30705577839314935,0.4443705647397786,0.18230927212070672
1761336088964902700,0.508902587890625,-0.0016045125871896743,0.34038623945638535,0.00590345189012587
1761336088974968600,0.518968505859375,0.07294307113587856,0.1940029613174498,-0.09639229925181717
1761336088985035800,0.529035888671875,0.1644435432255268,0.034173853084817525,-0.11842230821959673
1761336088995101700,0.539101806640625,0.27235797449946403,-0.06607844606339931,-0.03693082364276051
1761336089005168600,0.549168701171875,0.3423375196546316,-0.02813055433258414,0.052028841390274465
1761336089015234600,0.559234619140625,0.39755671805143356,0.07820983255766331,0.13136680119503288
1761336089025301500,0.569301513671875,0.4235527445733547,0.21356683590002357,0.19727588204089552
1761336089035367400,0.579367431640625,0.3203144884169101,0.28831717565357684,0.22199545888621358
1761336089045434400,0.589434326171875,0.08003565974533558,0.2834020041484386,0.1241839770188555
1761336089055500500,0.59950048828125,-0.062112465041875835,0.29074630249664185,0.0499761466441676
1761336089065567500,0.6095673828125,-0.12106675831377506,0.3487875725768506,0.0978987217593938
1761336089075633400,0.61963330078125,-0.2285842992246151,0.3067324647229165,0.16699388529546558
1761336089085700600,0.62970068359375,-0.13327975867688654,-0.03348550549447536,0.09697842857670039
1761336089095766500,0.6397666015625,0.09873217690885067,-0.014130305226519703,0.06502681811861694
1761336089105833500,0.64983349609375,0.17831833932101726,0.005257555202022195,0.005742233446426689
1761336089115900400,0.659900390625,0.09093523942232132,-0.05923237956091761,0.017485935797356068
1761336089125966600,0.669966552734375,-0.009879004457592964,-0.08046623318232596,-0.015449717262014745
1761336089136033500,0.680033447265625,-0.12841770559847354,-0.09705876380391418,-0.05976893412303179
1761336089146099500,0.690099365234375,-0.19263269587755202,-0.11934249180443585,-0.026218327503092585
1761336089156166700,0.700166748046875,-0.1241886897265911,-0.12851232507936655,-0.021900098977796732
1761336089166232600,0.710232666015625,-0.007818564796447753,-0.15998882883898913,-0.08449059332758188
1761336089176299500,0.720299560546875,0.024613047730922696,-0.18902868003621695,-0.13075360120013355
1761336089186365700,0.73036572265625,0.04264496350586414,-0.1703060785833746,-0.10740407059900461
1761336089196432600,0.7404326171875,0.02620060918331146,-0.1500735840242356,-0.046187129624746734
1761336089206498000,0.750498046875,-0.0483458054959774,-0.17164748325496912,0.0275915520850569
1761336089216565200,0.760565185546875,-0.09231938725709915,-0.18378106170631944,0.029776421843469143
1761336089226631200,0.770631103515625,-0.07812485768795013,-0.1858338295176625,0.02004398624971509
1761336089236698000,0.780697998046875,-0.20422434947192666,-0.20686573082618415,0.0014399696752429008
1761336089246764300,0.790764404296875,-0.5412473961055279,-0.22113909778520463,-0.05761164649128914
1761336089256831200,0.800831298828125,-0.6508756455600261,-0.24007417294494807,0.0178432613350451
1761336089266897200,0.810897216796875,-0.5385182634025811,-0.2236657667186111,0.09420366663374007
1761336089276964000,0.820964111328125,-0.3407154714107513,-0.22915347741469738,0.21308877005949614
1761336089287031300,0.83103125,-0.25299042620658874,-0.2106803206782788,0.35405411480292676
1761336089297097200,0.84109716796875,-0.2619248432904482,-0.17104761766567825,0.42289230790324506
1761336089307164200,0.8511640625,-0.3238192816674709,-0.13866488578133285,0.30041356389969587
1761336089317230300,0.861230224609375,-0.19031915823817253,-0.08878419886827468,0.08706716581732034
1761336089327297300,0.87129736328125,0.05608896696865558,-0.10282828711606562,-0.03951170698143541
1761336089337363200,0.88136328125,0.2661193723708391,-0.13860066143870353,-0.10763656418062746
1761336089347430100,0.89143017578125,0.4161386689245701,-0.1524234350860119,-0.08001308258734643
1761336089357496300,0.901496337890625,0.4168126226633787,-0.15832666778042911,-0.013186521570384501
1761336089367563300,0.911563232421875,0.3345107715517282,-0.1446951789215207,0.04507672069743275
1761336089377629200,0.921629150390625,0.2104541837722063,-0.1352365187678486,0.08893164451494813
1761336089387696400,0.9316962890625,0.09227204098403453,-0.13211787529066205,0.09058708357177674
1761336089397762300,0.94176220703125,-0.024524200403690338,-0.14157777755334972,0.019723083732277154
1761336089407829200,0.951829345703125,-0.1731137564152479,-0.14425883333086967,-0.0415564376167953
1761336089417895400,0.9618955078125,-0.23407938950955867,-0.1539041020978242,-0.027722338857874274
1761336089427962400,0.97196240234375,-0.20974340515434742,-0.17526355486027895,0.03734963357672095
1761336089438028000,0.982028076171875,-0.13375439045131204,-0.2106573781941086,0.11661423588432371
1761336089448095000,0.992094970703125,-0.11757248645722865,-0.21805333366431295,0.1616818964924663
1761336089458161200,1.0021611328125,-0.14843758032023907,-0.19236374274305998,0.142203435171023
1761336089468228000,1.01222802734375,-0.3800608088493347,-0.16426182998307048,0.08658931917250155
1761336089478295000,1.022294921875,-0.5063906022578477,-0.14227715799435972,0.05836860233843326
1761336089488361200,1.032361328125,-0.4264332684457302,-0.12728848237283527,0.011195420818403362
1761336089498428200,1.04242822265625,-0.23490765702724456,-0.12212510826028883,-0.016493819487467407
1761336089508494000,1.052494140625,-0.039349429091811175,-0.12266411050781607,-0.07276669165566563
1761336089518561000,1.06256103515625,0.1172217733234167,-0.12937734441086648,-0.14819127740897237
1761336089528627200,1.072627197265625,0.19243629652261732,-0.1538593861732632,-0.18390929119586943
1761336089538694100,1.082694091796875,0.15268530089259147,-0.20028912891484796,-0.17855463229492305
1761336089548760000,1.092760009765625,0.044326632982492446,-0.2162114321246743,-0.17435564623512326
1761336089558827300,1.1028271484375,-0.1080628998339176,-0.1956149996239692,-0.15298377238251268
1761336089568893200,1.11289306640625,-0.23353169249892233,-0.19262451257109642,-0.0852658154837787
1761336089578960100,1.122960205078125,-0.25815759971141816,-0.184851467416808,-0.0026746260367333887
1761336089589026300,1.1330263671875,-0.19339841955304143,-0.1886792090114206,0.05198102019317448
1761336089599093200,1.14309326171875,-0.15351356841027736,-0.17456497813686728,0.08194083577953279
1761336089609159200,1.1531591796875,-0.1758405510306358,-0.16697547285594044,0.07776464607343077
1761336089619226000,1.16322607421875,-0.10376900203227996,-0.16095562804453073,0.08510331839844584
1761336089629292300,1.173292236328125,-0.024420155507326124,-0.15241189077869058,0.054933440257981414
1761336089639359200,1.183359130859375,-0.08408815000653266,-0.13698043982572852,-0.023246800879016517
1761336089649425200,1.193425048828125,-0.06541852084994315,-0.12859781140573323,-0.06012435996457934
1761336089659492400,1.203492431640625,0.050418520116806025,-0.1522865108333528,-0.08623561036400497
1761336089669558300,1.213558349609375,0.1621726756840944,-0.15895700157321987,-0.09949358973540365
1761336089679625200,1.223625244140625,0.27557050680518147,-0.13677381133772432,-0.06712379039786756
1761336089689692200,1.233692138671875,0.31402211027443405,-0.0981038889426738,0.003509834751859307
1761336089699758300,1.24375830078125,0.12302198403477668,-0.08298749528825282,-0.00263122528642416
1761336089709825300,1.2538251953125,-0.021418635603785513,-0.06860876825861632,-0.09159823337569832
1761336089719891200,1.26389111328125,-0.026074352455139158,-0.06304528891257942,-0.17578282949402926
1761336089729958400,1.27395849609375,-0.016814356678724288,-0.09352715561166405,-0.2270471527852118
1761336089740024000,1.284024169921875,0.06284019479453563,-0.13766637626327574,-0.2132814430873841
1761336089750091300,1.29409130859375,0.06895078662931918,-0.18688100048303602,-0.1408370421886444
1761336089760157200,1.3041572265625,0.007282558223605156,-0.18646986239887772,-0.018862229119241236
1761336089770224000,1.31422412109375,-0.11781564756333827,-0.15185031137317417,0.0929259748481214
1761336089780290000,1.3242900390625,-0.24880291138887403,-0.1169341154884547,0.154904584377259
1761336089790357000,1.33435693359375,-0.39862405502200127,-0.09443447971493005,0.1433037245631218
1761336089800423200,1.344423095703125,-0.40549510983526704,-0.08087927096262573,0.13006883380636572
1761336089810490000,1.354489990234375,-0.21278759515583515,-0.10299589876793325,0.06948693933263421
1761336089820556300,1.364556396484375,0.013024901267886161,-0.12486768496669828,-0.008976941051334142
1761336089830623200,1.374623291015625,0.19026421318054199,-0.14927739214524627,-0.03922711788639426
1761336089840689200,1.384689208984375,0.24374562799930571,-0.17020992473252117,-0.022887977503985166
1761336089850756000,1.394756103515625,0.23400983140468595,-0.17572598474025725,0.02950549594759941
1761336089860822300,1.404822265625,0.1891781715095043,-0.1892172614108771,0.1156750553380698
1761336089870889200,1.41488916015625,0.07783844196200371,-0.21136684163771569,0.17583843213878572
1761336089880955100,1.424955078125,-0.08692951091229915,-0.20165252622254193,0.15857129019126295
1761336089891022000,1.43502197265625,-0.1334212129741907,-0.18775069598965347,0.1433390150722116
1761336089901088300,1.445088134765625,-0.08453647829592227,-0.2162093132328242,0.10274638098627328
1761336089911155200,1.4551552734375,-0.01860065557360649,-0.21975136975385248,0.0742320880331099
1761336089921222100,1.46522216796875,-0.0189139593064785,-0.2102833572499454,0.1209239157769829
1761336089931288300,1.475288330078125,-0.12010755789279937,-0.17904738424792885,0.12737791422195732
1761336089941355300,1.485355224609375,-0.2190600995540619,-0.1433821966268122,0.06727014006599784
1761336089951421200,1.495421142578125,-0.2842389664292335,-0.12572883184067904,-0.016040157435834406
1761336089961488100,1.505488037109375,-0.31907354844510555,-0.11873743858337402,-0.0682508216664195
1761336089971554300,1.51555419921875,-0.29602585033476353,-0.11986446985192596,-0.07666676783412694
1761336089981621200,1.525621337890625,-0.2316466094046831,-0.1353398330118507,-0.07803761779591441
1761336089991687400,1.5356875,-0.15608137307167053,-0.12510836185477672,-0.09510733747519552
1761336090001754400,1.54575439453125,-0.11244622948467731,-0.09606127719916403,-0.10332162359096109
1761336090011820300,1.5558203125,-0.10325170015990734,-0.080492244406417,-0.12496712675318121
1761336090021887200,1.56588720703125,-0.0929009865373373,-0.09587868717387318,-0.1503117766942829
1761336090031953200,1.575953125,-0.06794248636960983,-0.13445318637043238,-0.1538872240282595
1761336090042020000,1.58602001953125,-0.09979659126996994,-0.1355185505796224,-0.14727175141125917
1761336090052086000,1.5960859375,-0.20995266399085522,-0.11608195563852787,-0.12386135746836661
1761336090062153200,1.6061533203125,-0.27091362091004845,-0.08903189001902938,-0.005632233733311295
1761336090072219100,1.61621923828125,-0.25273732822835443,-0.0923771087937057,0.07632306896299124
1761336090082286000,1.6262861328125,-0.1767915681451559,-0.0909870426747948,0.04453165403530002
1761336090092352300,1.636352294921875,-0.09561609071493148,-0.061521805672347545,0.06449095767624675
1761336090102419200,1.646419189453125,-0.0010959785431623459,-0.06738894414007664,0.11223667838722466
1761336090112485000,1.656485107421875,0.05434066199660301,-0.15173245714716613,0.009975012177973985
1761336090122552000,1.666552001953125,0.03678045538663864,-0.1611794999282807,-0.07321933079399168
1761336090132618200,1.6766181640625,-0.005927051961421966,-0.12440569347813725,-0.0285468069832772
1761336090142685200,1.686685302734375,-0.016486439898610115,-0.13851086426340042,-0.03303257409520447
1761336090152751000,1.696751220703125,0.006486439409852027,-0.13300883278101683,-0.029264234537631273
1761336090162818300,1.706818359375,-0.10115677370727062,-0.13632716354876756,-0.09219203455038368
1761336090172884200,1.71688427734375,-0.22189853785037994,-0.1535989086061716,-0.1592594916511327
1761336090182951200,1.726951171875,-0.22574001570940017,-0.15054390494972467,-0.1518039149481803
1761336090193017300,1.737017333984375,-0.13022563180327415,-0.15371055228710173,-0.1360162709686905
1761336090203083800,1.747083740234375,-0.029903555354475975,-0.1484093771390617,-0.10067914625816046
1761336090213149400,1.7571494140625,0.08698620953559875,-0.12429616868905723,-0.11055705473721027
1761336090223217000,1.767216796875,0.14426935472488403,-0.12687785574533045,-0.14723434201031924
1761336090233283800,1.777283935546875,0.10522446153759955,-0.13804595016539095,-0.16147482961304485
1761336090243349500,1.787349609375,0.008750292688608169,-0.14416962067745626,-0.16408347774147986
1761336090253416700,1.797416748046875,-0.0472042342454195,-0.1561070189695805,-0.09025317544229328
1761336090263482600,1.807482666015625,-0.071185413813591,-0.147423142580688,-0.014704451852664351
1761336090273549600,1.817549560546875,-0.10214929187595843,-0.15339308383576572,0.0034829467449337243
1761336090283615500,1.827615478515625,-0.16338555860519408,-0.1659806896649301,-0.046012247981876135
1761336090293682700,1.8376826171875,-0.21283494142889975,-0.1721565287556499,-0.09684497492276131
1761336090303748600,1.84774853515625,-0.2194476375669241,-0.17502791947349905,-0.07600318935886025
1761336090313815600,1.857815673828125,-0.12347498849928379,-0.160715535678342,-0.027662206168472765
1761336090323881700,1.8678818359375,0.03116729167997837,-0.16584537284746764,0.009189926214888691
1761336090333948700,1.87794873046875,0.1802162818968296,-0.15617328913882375,0.05160349211767316
1761336090344014600,1.8880146484375,0.1914829413205385,-0.1458704332459718,0.09074395463392138
1761336090354081500,1.89808154296875,0.048612931999564166,-0.16802731999643147,0.06177483058534562
1761336090364147700,1.908147705078125,-0.08658639656305313,-0.1964124336119741,-0.02645955238044262
1761336090374214700,1.918214599609375,-0.17066636326313017,-0.21351758993081746,-0.05762925521321594
1761336090384280600,1.928280517578125,-0.26744331445097924,-0.22150500848814844,-0.05302409950532019
1761336090394347800,1.93834765625,-0.2708294497579336,-0.21282485842630267,-0.02992795914337039
1761336090404413700,1.94841357421875,-0.1202677168905735,-0.19444873232357202,0.002943798366934061
1761336090414480600,1.958480712890625,0.09197451934218406,-0.1760677839152515,0.023374591977149247
1761336090424546800,1.968546875,0.20612346109151838,-0.13768983020409942,0.08142017290629446
1761336090434613800,1.97861376953125,0.14732114351093767,-0.14030863440036773,0.105671693848446
1761336090444679700,1.9886796875,0.05320025978982448,-0.16274550713598726,0.03643595279790461
1761336090454746600,1.99874658203125,0.027003742259740827,-0.16879150930196046,-0.06256861131154
1761336090464812800,2.008812744140625,0.03949848217368126,-0.1392491154100746,-0.11079144801497459
1761336090474879700,2.018879638671875,0.021596914780139923,-0.11111381183713674,-0.04160860619544983
1761336090484945700,2.028945556640625,-0.015775076758861542,-0.14385668227076528,0.02316606379300356
1761336090495012900,2.039012939453125,-0.08727028717398642,-0.188376791998744,-0.03192548963613808
1761336090505078500,2.04907861328125,-0.1861030018478632,-0.2080393777154386,-0.10740100185908377
1761336090515145500,2.0591455078125,-0.27591128306686874,-0.19996581524461507,-0.0710254009462893
1761336090525211600,2.069211669921875,-0.3147790661215782,-0.16710530978068708,0.07669453262388706
1761336090535278600,2.079278564453125,-0.3839689222037792,-0.16170447365045545,0.16339819889105855
1761336090545344500,2.089344482421875,-0.4057388554632663,-0.17460998632237315,0.11635375831723213
1761336090555411500,2.099411376953125,-0.31112638883292676,-0.15964856403395533,-0.05337232842110097
1761336090565477600,2.1094775390625,-0.14632979438602922,-0.1609627153724432,-0.15344934406764804
1761336090575544600,2.119544677734375,0.004838672202825546,-0.18502324378713964,-0.17475165981538593
1761336090585610800,2.12961083984375,0.11687632088661193,-0.18882818902805446,-0.1427805774718523
1761336090595677700,2.139677734375,0.1646656615436077,-0.1735464487440884,-0.1255252720925957
1761336090605743600,2.14974365234375,0.06617781478464603,-0.1628174033284187,-0.0902559519212693
1761336090615810600,2.159810546875,-0.0659440060287714,-0.14807546900957821,-0.07575812855660916
1761336090625877500,2.16987744140625,-0.12793196790814398,-0.13578838049694894,-0.06713336194381117
1761336090635943700,2.179943603515625,-0.15204115777015687,-0.1461884862191975,-0.04268215371109545
1761336090646010600,2.1900107421875,-0.18717092334032057,-0.15550313479229808,-0.03589263970144093
1761336090656076500,2.20007666015625,-0.24754209767282007,-0.14694076589122415,-0.05181581969410181
1761336090666143700,2.210143798828125,-0.23940029227137563,-0.12379735232144594,-0.06732282010130584
1761336090676209700,2.220209716796875,-0.15278291604816913,-0.12681100105419754,-0.05234861139655113
1761336090686276600,2.230276611328125,-0.044673838984966276,-0.13704875582158565,0.012965791491791605
1761336090696342800,2.2403427734375,-0.021377719071507453,-0.12379413745105265,0.04087853835523128
1761336090706409700,2.25040966796875,-0.1133224277973175,-0.12930844389311968,0.01884469346255064
1761336090716475600,2.2604755859375,-0.24570377632975576,-0.13984094382338225,0.009684870124980807
1761336090726542600,2.27054248046875,-0.32189678917229175,-0.14178309086710214,-0.004470350347086787
1761336090736608800,2.28060888671875,-0.2964449525296688,-0.14241649339981377,0.009563216506689787
1761336090746675700,2.29067578125,-0.23257190755605697,-0.12346190982200204,0.00009440028518438338
1761336090756742000,2.300741943359375,-0.13598901763558388,-0.09493855677954852,-0.03670855919420719
1761336090766808800,2.310808837890625,-0.007417582780122756,-0.0748194594670087,-0.0938366599522531
1761336090776874500,2.32087451171875,0.11588497176170348,-0.07050239998549222,-0.12233319805301725
1761336090786941700,2.330941650390625,0.1897574327021837,-0.09130801825746894,-0.1419934456821531
1761336090797007600,2.341007568359375,0.17916414249539375,-0.09594605332165956,-0.12883147403113543
1761336090807074600,2.351074462890625,0.14812544563114644,-0.0700984953597188,-0.10825652270987629
1761336090817140500,2.361140380859375,0.1514116276949644,-0.07446655437611042,-0.07442804899662733
1761336090827207700,2.371207763671875,0.09388415235579013,-0.09955343016386031,-0.07081329256556927
1761336090837273600,2.381273681640625,0.014628244811296463,-0.10271028675958514,-0.0504513994731009
1761336090847340500,2.391340576171875,-0.0703577308177948,-0.09284823343679309,-0.017502265877649185
1761336090857406700,2.40140673828125,-0.11211012939810752,-0.07883899730667471,-0.022066870379447937
1761336090867473700,2.4114736328125,-0.11466916623115539,-0.061210328570380806,-0.05850260398164391
1761336090877539600,2.42153955078125,-0.07941840462982654,-0.03609130407869816,-0.06250219501182437
1761336090887606500,2.4316064453125,-0.02098141323029995,-0.03618870003856718,-0.05874320780448615
1761336090897672700,2.441672607421875,0.04250993894934654,-0.01602247564867139,-0.022535656934976576
1761336090907739600,2.45173974609375,0.08411036183834075,-0.02840652172975242,0.029477658092603085
1761336090917805600,2.4618056640625,0.06983399920463562,-0.028658889055624602,0.07374043205864728
1761336090927872800,2.471872802734375,-0.032843115937709805,-0.022753756665065884,0.06843662656210363
1761336090937938700,2.481938720703125,-0.1619295145779848,-0.031233781044930218,-0.015758564015477896
1761336090948005600,2.492005615234375,-0.24552023645639418,-0.04336224492974579,-0.09951390187107026
1761336090958071800,2.50207177734375,-0.26668343599438665,-0.06960114029683172,-0.13326346512921153
1761336090968138800,2.512138671875,-0.22199732204973696,-0.07726444146633148,-0.07897957482114434
1761336090978204700,2.52220458984375,-0.10665011042654514,-0.0879742707248777,-0.03105367523767054
1761336090988271600,2.532271728515625,0.022096096473932264,-0.09442176636382937,-0.031621392123028634
1761336090998337800,2.542337890625,0.14012509452700614,-0.08972316021881997,-0.06989566626399756
1761336091008404700,2.55240478515625,0.17699907341599463,-0.10237447893396019,-0.13258958445563912
1761336091018470700,2.562470703125,0.13686580047011374,-0.12131247670315205,-0.1658909655548632
1761336091028537900,2.572537841796875,-0.0048608840346336364,-0.10358575441986322,-0.20251411148793994
1761336091038603500,2.582603515625,-0.1510463015139103,-0.11314524459950626,-0.17606763778477907
1761336091048670700,2.592670654296875,-0.24580548313856124,-0.13007307159006595,-0.16020838987380265
1761336091058737700,2.602737548828125,-0.2680804433107376,-0.11441409549154341,-0.14816183211877942
1761336091068803600,2.612803466796875,-0.2413724691271782,-0.10911467390917241,-0.12172763337530194
1761336091078870800,2.622870849609375,-0.12411971614360809,-0.09275551365204154,-0.06379457290992141
1761336091088936400,2.6329365234375,-0.017574819657206534,-0.06396810284592211,-0.01022752563431859
1761336091099003600,2.643003662109375,-0.04892623573243618,-0.07571304730586707,0.025975422125309705
1761336091109069600,2.653069580078125,-0.12377367918491362,-0.08902765223532914,0.017943506839126346
1761336091119136500,2.663136474609375,-0.13035071948766708,-0.09858677708879113,-0.008366334872320294
1761336091129202700,2.67320263671875,-0.16821137132644653,-0.10819814358614384,-0.0028545126482844353
1761336091139269600,2.68326953125,-0.2541635616391897,-0.1292431235719472,0.042740313639119266
1761336091149335600,2.69333544921875,-0.18431202677786349,-0.1320182873737067,0.11318455369658767
1761336091159402500,2.703402587890625,-0.019800094491243363,-0.12914499695971607,0.181652963636443
1761336091169468700,2.71346875,0.07800152356922627,-0.1180520866677165,0.16921945239044725
1761336091179535600,2.72353564453125,0.11344225478470325,-0.1128518876761198,0.14326843405403197
1761336091189601500,2.7336015625,-0.03926291985213756,-0.08905936254784465,0.06140804309956729
1761336091199668700,2.743668701171875,-0.3124760498762131,-0.08333272852934896,-0.05213613768965006
1761336091209734700,2.753734619140625,-0.40580490643680095,-0.09556552957147359,-0.08502053548581898
1761336091219801900,2.7638017578125,-0.30364918482005593,-0.12255246682688593,-0.1024487862791866
1761336091229867800,2.77386767578125,-0.16403145529329777,-0.10975969381444156,-0.12557897504121066
1761336091239934700,2.783934814453125,-0.07538929524421692,-0.08326645836010575,-0.14074205738157033
1761336091250000600,2.794000732421875,-0.015626023676991462,-0.07944339294061065,-0.15448226731196044
1761336091260067600,2.804067626953125,-0.003993453550338745,-0.04686718431077897,-0.13738755932189523
1761336091270133800,2.8141337890625,-0.038270401683449744,-0.08086692293770611,-0.11801920731142163
1761336091280200700,2.82420068359375,-0.08640987095236778,-0.06461969862245023,-0.12046258187554776
1761336091290267000,2.834266845703125,-0.11538052937090396,-0.06219597860686481,-0.1703868887346238
1761336091300333800,2.844333740234375,-0.03577741582393646,-0.0530329403989017,-0.22841128074526784
1761336091310399700,2.854399658203125,0.08852584019303321,-0.08724259544946253,-0.21939926838055251
1761336091320466700,2.864466796875,0.2363824057549238,-0.1299275987047702,-0.18629837828949092
1761336091330532900,2.874532958984375,0.2786427538573742,-0.1252465282164514,-0.18355302510410546
1761336091340599800,2.884599853515625,0.1990074916064739,-0.08814524337761104,-0.22193112494572995
1761336091350665700,2.894665771484375,0.12015665773153304,0.12067176764681935,-0.21503449729979038
1761336091360732700,2.904732666015625,0.1996604025572538,0.3352510685250163,-0.06723360744789242
1761336091370798800,2.914798828125,0.3297878346830606,0.40931503344960507,0.130500064830482
1761336091380865800,2.92486572265625,0.44067689785361286,0.37133228960111736,0.2331864592578262
1761336091390932000,2.934931884765625,0.4332721745550632,0.34661337034292516,0.1977651633951813
1761336091400999000,2.9449990234375,0.31047230883836746,0.25063326862119134,0.07653634638749063
1761336091411064800,2.95506494140625,0.023537527453899382,0.05338204609751701,-0.01006733010392636
1761336091421131800,2.9651318359375,-0.2939046203970909,-0.18216149768047032,-0.07940857735555619
1761336091431198000,2.975197998046875,-0.4406184456646442,-0.37576413456872104,-0.1318922133086249
1761336091441265000,2.985264892578125,-0.428121367663145,-0.4686668746717274,-0.15370324576348066
1761336091451330800,2.995330810546875,-0.2998696662813425,-0.4960565475091338,-0.1253201049093157
1761336091461397800,3.005397705078125,-0.13538929817676543,-0.3834491361133754,0.0628494375469163
1761336091471463700,3.015463623046875,0.13573650417923927,-0.12665449531823397,0.17865232051573693
1761336091481530600,3.025530517578125,0.3274234436392784,0.08800006275326012,0.16826083649136125
1761336091491596800,3.0355966796875,0.13613748619556426,0.03965235756114125,0.10546462696902453
1761336091501663700,3.045663818359375,-0.06915595381259917,-0.09571122165247797,0.014150398166477679
1761336091511729700,3.055729736328125,-0.14505261405706404,-0.21786212194114923,-0.016082827533781527
1761336091521796600,3.065796630859375,-0.16222645169794558,-0.3672143328882754,0.0007090615848079323
1761336091531862800,3.07586279296875,-0.154793671348691,-0.5111195304758847,0.16620156587399543
1761336091541929700,3.0859296875,-0.23208616986572742,-0.4510815336205065,0.31356563521120695
1761336091551996700,3.09599658203125,-0.2929448354542255,-0.28618878532275555,0.19872644617538898
1761336091562062800,3.106062744140625,-0.18013678691983223,-0.12325213952884077,0.010603574138786643
1761336091572129800,3.1161298828125,-0.15490356146395207,-0.3078304160274565,0.06312191607905551
1761336091582195700,3.12619580078125,-0.14044599704444408,-0.46277387111037965,-0.025971038211137054
1761336091592262700,3.1362626953125,-0.04491115487217903,-0.5014167593680322,-0.2166956902439706
1761336091602328800,3.146328857421875,0.05192541754841804,-0.5615425806373358,-0.26721167938588186
1761336091612395800,3.156395751953125,-0.04347790719866752,-0.7276634094253182,-0.19087923980634658
1761336091622461700,3.166461669921875,-0.17512451171576976,-0.885083337624371,-0.2908954286437481
1761336091632529000,3.17652880859375,-0.04675882856547832,-0.379981898394227,-0.1870433879705146
1761336091642594800,3.1865947265625,-0.13382862473130225,-0.16541721056327222,0.2534471204655245
1761336091652661800,3.196661865234375,-0.3603893091738224,-0.25552330568507314,0.376056980035454
1761336091662728000,3.20672802734375,-0.5165735580980777,-0.2008098648533225,0.4291379608271643
1761336091672795000,3.216794921875,-0.6341863765656948,-0.16294599814414978,0.48121100668534633
1761336091682860800,3.22686083984375,-0.589466944873333,-0.17237813561707735,0.5656909690210595
1761336091692927700,3.236927734375,-0.5959568914145231,-0.1488584360808134,0.6599662761189043
1761336091702994000,3.246993896484375,-0.7151835748195647,-0.10814750937744974,0.6909394334662705
1761336091713060900,3.257060791015625,-0.7303320441126823,-0.07769143470674753,0.6545557953774929
1761336091723126800,3.267126708984375,-0.6443740085810422,-0.021797698049247263,0.43546972113195803
1761336091733194000,3.277194091796875,-0.5360375525027513,0.02972746813520789,0.1841995976456441
1761336091743259600,3.287259765625,-0.3011749036610126,0.04833513797149062,-0.014859551082830874
1761336091753326800,3.297326904296875,-0.01084814175069332,0.013849661654233932,-0.19027502683550118
1761336091763392800,3.307392822265625,0.29879239243865013,-0.038992140086740255,-0.3280006590053439
1761336091773459700,3.317459716796875,0.5141624053031206,-0.06294087869003415,-0.4520208602972328
1761336091783525600,3.327525634765625,0.5161258143305778,-0.06129954122379422,-0.6247763047941028
1761336091793592600,3.337592529296875,0.18109774090647696,-0.0019352058462798595,-0.8068984933774918
1761336091803658800,3.34765869140625,-0.14038520676791666,0.05190320571660995,-0.826053933289647
1761336091813725700,3.3577255859375,-0.16201953094899654,0.08646832314133644,-0.6304481398854405
1761336091823791600,3.36779150390625,-0.0346469504892826,0.04734627306461334,-0.42671515412703154
1761336091833858800,3.37785888671875,0.12957096728682518,0.013510346697270869,-0.37477329690046607
1761336091843924700,3.3879248046875,0.2518459323465824,0.06846870220080017,-0.4865745064798742
1761336091853991700,3.39799169921875,0.2813894222170114,0.14087635128572581,-0.5055215278057381
1761336091864057900,3.408057861328125,0.27382453992068767,0.1136762096710503,-0.26984853069549425
1761336091874124800,3.418124755859375,0.2400204699963331,0.09149053521752357,0.03174496370377019
1761336091884190700,3.428190673828125,0.18202713071107862,0.020701719506084917,0.09017674920521676
1761336091894257700,3.438257568359375,0.05897475153803825,-0.02937617047950625,0.052153271487541494
1761336091904323800,3.44832373046875,-0.07372399238049984,-0.011440408555418252,0.022697825226746498
1761336091914390800,3.458390869140625,-0.15083353554606438,-0.0371960504502058,0.028436186215654014
1761336091924457000,3.46845703125,-0.18833061476945875,-0.06198766961842775,0.028475933704152703
1761336091934524000,3.47852392578125,-0.2290191835105419,-0.07119374325051904,-0.008749635101482271
1761336091944589800,3.48858984375,-0.2626473123461008,-0.08732450157925487,-0.11031827754527329
1761336091954656800,3.49865673828125,-0.2646212427675724,-0.11637582401856779,-0.15657083708904682
1761336091964723000,3.508722900390625,-0.15435001923441885,-0.12621230450868606,-0.1655546462725848
1761336091974790000,3.518789794921875,0.05140168593525886,-0.11023059926182031,-0.12065887163262813
1761336091984855800,3.528855712890625,0.16573650564551354,-0.11333806375786662,-0.0387068934045732
1761336091994922800,3.5389228515625,-0.036520927667617796,-0.09822349673435092,0.028813568160682916
1761336092004990000,3.548989990234375,-0.31603987983763215,-0.06990604152753949,0.05829520830865949
1761336092015056000,3.559055908203125,-0.32888357931971546,-0.054198330916464324,0.14495799457617103
1761336092025122800,3.569122802734375,-0.22211422642767428,-0.09119681296795606,0.1819768983611837
1761336092035188700,3.579188720703125,-0.13272972357869148,-0.0824513425849378,0.19386965379398316
1761336092045256000,3.589255859375,0.019205635729432104,-0.09333104851767421,0.1844781405923888
1761336092055321600,3.599321533203125,0.20500001001954077,-0.09124342858865857,0.1575772011199966
1761336092065388800,3.609388916015625,0.35843759058415886,-0.07809548546299337,0.06936422626841814
1761336092075454700,3.619454833984375,0.3090191874206066,-0.05755246364995837,-0.031747977644763885
1761336092085521700,3.629521728515625,0.06223813724815845,-0.0732188193373382,-0.11903211068101227
1761336092095587800,3.639587890625,-0.06786591400206089,-0.11752514018416405,-0.0853285419890657
1761336092105654800,3.64965478515625,-0.08014438081681728,-0.15411314173862337,-0.0018620310122147202
1761336092115720700,3.659720703125,-0.14262860178053377,-0.18368118152841925,0.04573679204136133
1761336092125787600,3.66978759765625,-0.25182664312422276,-0.15107845021784305,-0.038598902985453605
1761336092135853800,3.679853759765625,-0.3579933539479971,-0.08628317583277821,-0.17573541015572844
1761336092145920800,3.689920654296875,-0.46222354375123975,-0.07214081484228373,-0.31579266361091285
1761336092155986700,3.699986572265625,-0.387494173720479,-0.10248919135481119,-0.3728056866219267
1761336092166054000,3.710053955078125,-0.2474626026958227,0.012591039895266293,-0.28301168965660034
1761336092176119800,3.720119873046875,-0.030834114202857015,-0.040684257892146705,-0.1862537354301661
1761336092186186800,3.730186767578125,0.24799101048409938,-0.16575163014940916,-0.10014854651279746
1761336092196253000,3.7402529296875,0.3266343390882015,-0.23801767880655825,-0.07427311416324228
1761336092206320400,3.7503203125,0.1766734947234392,-0.16722177576720715,-0.08185677422527224
1761336092216386300,3.76038623046875,-0.09223989228010177,-0.08286291906051338,-0.1528360710075125
1761336092226453200,3.770453369140625,-0.3063654580414295,-0.05919409337714314,-0.2600367279889062
1761336092236519400,3.78051953125,-0.39630291859805583,0.0002329319730401039,-0.4152863629441708
1761336092246586400,3.79058642578125,-0.35988603582680223,0.009771087103709579,-0.6294391820386052
1761336092256652300,3.80065234375,-0.288057647934556,0.05044760008081794,-0.704780619553104
1761336092266719200,3.81071923828125,-0.2981652004510164,0.18537147270292043,-0.5521113199472427
1761336092276785400,3.820785400390625,-0.38400223995149135,0.35851832767017183,-0.3849664818737656
1761336092286852400,3.830852294921875,-0.27331600587666033,0.44526203368678685,-0.23359193478617815
1761336092296918300,3.840918212890625,-0.012274375161528586,0.2510352004855871,-0.26787993403626603
1761336092306985500,3.8509853515625,0.2983656914591789,0.16875073890015482,-0.6314321094214916
1761336092317051100,3.861051025390625,0.5529781659096479,-0.0944888402506709,-0.8516632985815406
1761336092327118300,3.871118408203125,0.697532767316699,-0.2976324818138033,-0.9230912889793514
1761336092337184300,3.881184326171875,0.6002595570445061,-0.4871863547679037,-0.8704315658070146
1761336092347251200,3.891251220703125,0.6321539939552545,-0.6596466887757182,-0.6579379851616919
1761336092357317000,3.901317138671875,0.7226736383140087,-0.6970637615654617,-0.3370636343723163
1761336092367384300,3.91138427734375,0.8392483459055423,-0.5501781599275768,0.015328465502522886
1761336092377450200,3.9214501953125,1.0674188036322594,-0.35280857172124086,0.31154687926732
1761336092387517200,3.93151708984375,1.3715817831933497,-0.13782733897864818,0.6031110009528696
1761336092397583400,3.941583251953125,1.5992887150615454,0.013221081427112221,0.8635809692598879
1761336092407650300,3.951650390625,1.7439415161460636,0.18922018402032553,0.9689587216630577
1761336092417716200,3.96171630859375,1.6603560549646614,0.34334370102249084,0.8463535017356276
1761336092427783200,3.971783203125,1.5093535925924777,0.402166622999683,0.6728849405333399
1761336092437849300,3.981849365234375,1.3711732023924588,0.43414903045482933,0.5831168451942503
1761336092447916300,3.991916259765625,1.285824823191762,0.5210912547182291,0.498577590419352
1761336092457982200,4.001982177734375,1.2589561054885388,0.5945650717299431,0.4610841644577682
1761336092468049400,4.01204931640625,1.4405109425127505,0.5059696734320372,0.6218119020305574
1761336092478115300,4.022115234375,1.8190426420986652,0.40989655966460703,0.6970346085362136
1761336092488182300,4.032182373046875,2.1955442971616983,0.3808803816039115,0.6608906974874437
1761336092498248400,4.04224853515625,2.2062521536588666,0.3913806597650051,0.6886746303394436
1761336092508315400,4.0523154296875,1.8151427120506762,0.32859957474656404,0.7162907323438674
1761336092518381300,4.06238134765625,1.5196020148843525,0.20429244627207516,0.8738832406308501
1761336092528448300,4.0724482421875,1.1554337716937064,0.0636636400066316,1.0040483744185418
1761336092538514400,4.082514404296875,0.8221884900331496,-0.07356193368658423,1.0261446900881825
1761336092548581400,4.092581298828125,0.5880512328565121,-0.16579093924649058,0.8927477347724139
1761336092558647300,4.102647216796875,0.26962767275273797,-0.201620669779554,0.43962826558351514
1761336092568714500,4.112714599609375,-0.26549334942698477,-0.22806699735224245,-0.304346154108271
1761336092578780200,4.1227802734375,-0.7761924625337123,-0.2950441458210349,-0.8940209695786238
1761336092588847400,4.132847412109375,-1.0317220518290995,-0.36119039642363787,-1.2189191325239837
1761336092598913300,4.142913330078125,-1.4783517206072807,-0.8437272448852657,-1.0142610678099095
1761336092608980200,4.152980224609375,-1.818535861620307,-1.1085476634867488,-0.5478728055946529
1761336092619046100,4.163046142578125,-2.0341163023650646,-0.866413562337309,-0.25313641054853797
1761336092629113000,4.173113037109375,-2.192051778870821,-0.5052969618022441,-0.347628757930547
1761336092639179300,4.18317919921875,-2.180033424296975,-0.26529329681023955,-0.4415249660503119
1761336092649246200,4.19324609375,-2.036743143737316,-0.24290596230477093,-0.3463812420874834
1761336092659312000,4.20331201171875,-1.578461031088233,-0.2568951785601675,-0.11242131423912942
1761336092669379300,4.21337939453125,-1.0641793833196163,-0.3336062239274382,0.08858524223007261
1761336092679445200,4.2234453125,-0.39427521216273304,-0.4819052725598216,0.2741993280498311
1761336092689512200,4.23351220703125,0.6761562172889709,-0.7442154619060456,0.7164965571142733
1761336092699578400,4.243578369140625,1.4181535647541283,-0.9857762932121753,1.358953480027616
1761336092709645300,4.253645263671875,0.5190782343953848,-0.7427820681020617,0.49282797738406803
1761336092719711200,4.263711181640625,0.8134189081221819,-0.21533084989786147,0.03473212628839537
1761336092729778200,4.273778076171875,1.3009528342187404,-0.16950521052926779,0.1289689188736025
1761336092739844400,4.28384423828125,0.7216366964817047,-0.3009932634837925,0.13467411737842486
1761336092749911300,4.293911376953125,-0.21830606631636618,-0.010969576173275708,0.05968730198787525
1761336092759977200,4.303977294921875,-0.8279103748112916,0.366330097399652,-0.8172619934163987
1761336092770044400,4.31404443359375,-2.204800785806775,0.5026125450238585,-1.2372485699407756
1761336092780111400,4.324111328125,-2.358424828854203,-0.05584829008057713,-0.1742937599800527
1761336092790177300,4.33417724609375,-2.0861147851496935,-0.7843560413755476,-0.6894514599308371
1761336092800244200,4.344244140625,-2.292623446166515,-0.7920970108911395,-1.606199955754727
1761336092810310400,4.354310302734375,-2.21394855338037,-0.8693731427952647,-2.516737906500697
1761336092820377300,4.36437744140625,-1.8209540286779402,-0.5075881414793432,-2.9095351550653574
1761336092830443300,4.374443359375,-1.3535720792502164,-0.3762275142967701,-2.7170199480876325
1761336092840510500,4.384510498046875,-1.1000672737807036,-0.4969518889136612,-2.3687974620476364
1761336092850576400,4.394576416015625,-1.1641232741057872,-0.723508627833426,-2.0041274068146944
1761336092860643300,4.404643310546875,-1.3046581184774637,-1.0621158749185502,-1.521758900657296
1761336092870709200,4.414709228515625,-1.2452040589898823,-1.2718247932814062,-0.830259568285942
1761336092880776200,4.424776123046875,-0.8552724289894104,-1.2390201096579432,-0.26058804172873495
1761336092890842000,4.434842041015625,-0.41089433853030205,-0.9029040948666631,0.20790333024561403
1761336092900909300,4.444909423828125,0.08731587988138198,-0.5449230158783495,0.7809294279277325
1761336092910975200,4.454975341796875,0.46932723827660083,-0.2390551320955157,1.3787278555557132
1761336092921042200,4.465042236328125,0.635189416128397,0.005040624515712261,1.9835536976024508
1761336092931108400,4.4751083984375,0.5484679950088263,0.18677768623903393,2.5491581208512186
1761336092941175300,4.48517529296875,0.008726911813020705,0.4516641558140516,3.166622787457704
1761336092951241200,4.4952412109375,-1.0081628970652818,0.9313556978471577,3.688818861612677
1761336092961308200,4.50530810546875,-1.9228689272761343,1.3271779933214187,3.837174901129305
1761336092971374300,4.515374267578125,-3.0720424695312976,1.4708457288913428,3.780008952578902
1761336092981441300,4.525441162109375,-5.1630479493319985,1.9202866556979714,4.208224136005342
1761336092991507200,4.535507080078125,-4.617376307043433,0.9057337653346359,2.3965675125047565
1761336093001574400,4.545574462890625,-4.632614792707562,0.1176065348573029,1.4098350876115262
1761336093011640300,4.555640380859375,-4.198322042933106,0.7341808284953236,0.5971174596264958
1761336093021707300,4.565707275390625,-3.285437382930517,0.7762151127569377,0.4188134410917759
1761336093031773400,4.5757734375,-2.3361317485034463,0.6620211628220976,0.3946596814356744
1761336093041840400,4.58584033203125,-1.4183973103821277,0.5584145848099142,0.3066410601124167
1761336093051906300,4.59590625,-0.8809586589097976,0.15794504805169998,0.5861290326222777
1761336093061973200,4.60597314453125,-0.5497779085636139,0.07126600476913153,1.1644278100103138
1761336093072039400,4.616039306640625,0.19813187781572342,0.40283681387882675,1.3092328790470957
1761336093082106400,4.6261064453125,0.7831348290175199,0.8172311598867178,1.0882838970065116
1761336093092172300,4.63617236328125,1.5467507185727356,1.1978685995802283,0.5486531423173845
1761336093102239500,4.646239501953125,1.9207488663822412,1.3370708801738918,0.179900347815454
1761336093112305400,4.656305419921875,3.163025639748573,0.8098105814319103,-0.7445704128235578
1761336093122372400,4.666372314453125,3.401777112722397,0.49609757363926615,-1.008321302497387
1761336093132438300,4.676438232421875,3.3247453109681606,0.5273321584017947,-0.9478992016952484
1761336093142505200,4.686505126953125,3.114823042115569,0.9817553671330213,-0.9406102137308567
1761336093152571100,4.696571044921875,3.1894875302165744,1.4421858899876474,-0.8440377721391618
1761336093162638000,4.70663818359375,2.801925551956892,1.3735675501830875,-0.6403447530649602
1761336093172704300,4.716704345703125,2.3182576536387205,1.1597758925512431,-0.419276163232699
1761336093182771200,4.726771240234375,1.538982422658801,0.8385774609066545,-0.21846419775383547
1761336093192837000,4.736837158203125,0.5313917725235223,0.5510700672660023,-0.1674200748182833
1761336093202904300,4.746904296875,0.07686229040622711,0.4395418294090777,-0.25467357525425033
1761336093212970800,4.756970703125,0.14951076250970363,0.5384332154676318,-0.6003642595279961
1761336093223037700,4.76703759765625,0.1181371346026659,0.6517233484305441,-0.7606215300448238
1761336093233104000,4.777103759765625,-0.4200234014034271,1.2920720470182596,-0.7877147772189229
1761336093243170800,4.7871708984375,-0.934075332069397,1.3868361970789729,-0.8082220701314509
1761336093253237800,4.79723779296875,-1.2047452073514462,1.0412738701589406,-0.8023103618696331
1761336093263303700,4.8073037109375,-1.1871195342898369,0.8538163118969648,-0.7338685476757586
1761336093273370600,4.81737060546875,-1.0573346319913863,0.9084671358212828,-0.6145085932798683
1761336093283436800,4.827436767578125,-1.0194307255327701,0.9304224355850368,-0.5584934952650219
1761336093293503700,4.837503662109375,-1.2517659017235039,0.7685567069582641,-0.5590799899160862
1761336093303569700,4.847569580078125,-1.5210557208240032,0.4513900515804067,-0.5363020486578345
1761336093313636600,4.85763671875,-1.2382692912906408,-0.01233013306991197,-0.5594635093409568
1761336093323702500,4.86770263671875,-0.8252280038595199,-0.5051918574599549,-0.8420347617536783
1761336093333769500,4.87776953125,-0.33768355636894704,-0.7925835522990673,-1.2983296461082994
1761336093343835600,4.887835693359375,0.08869301345348357,-0.9399799530033022,-1.5388719480216502
1761336093353902600,4.897902587890625,0.5561310769826173,-1.112174914073199,-1.3887896692343056
1761336093363968500,4.907968505859375,0.9787935947179793,-1.1584139565482734,-0.5361685219386593
1761336093374035700,4.91803564453125,1.6722241874128578,-0.5794535369137301,-0.16138126957807689
1761336093384101600,4.9281015625,2.3757278458327056,0.24363688866151495,0.09122717157360166
1761336093394168600,4.93816845703125,2.45971838068366,0.16684844894278794,0.951727308616042
1761336093404234800,4.94823486328125,2.2968296656847,-0.3058072396367788,1.4741655209638178
1761336093414301700,4.9583017578125,2.0326503214657308,-0.6576034194450825,1.657450250520557
1761336093424367600,4.96836767578125,1.7532073571413755,-0.6940615840747952,1.797737842132896
1761336093434434600,4.9784345703125,1.2766782246619461,-0.5774484441690146,2.1049583095684645
1761336093444500700,4.988500732421875,0.49778994717299935,-0.4915579209156334,2.431292788927257
1761336093454567700,4.998567626953125,-0.3312351108819246,-0.4821536212977022,2.6593340673163532
1761336093464633600,5.008633544921875,-0.9949392583549022,-0.48144616714809085,2.661590906332433
1761336093474700800,5.01870068359375,-1.5919249082952738,-0.49680312809273597,2.4182070973828433
1761336093484766700,5.0287666015625,-1.744631251975894,-0.6167398594632745,2.0879605591468513
1761336093494833700,5.038833740234375,-1.3615601553946732,-0.7581400154273956,1.5315920201465487
1761336093504899800,5.04889990234375,-0.4847779053866863,-0.9126054777350276,0.4700251939455047
1761336093514966800,5.058966796875,0.7101596091777086,-1.143367047933489,-2.1943327294148505
1761336093525032700,5.06903271484375,1.315008247578144,-0.6536192451797426,-5.573282362648844
1761336093535099600,5.079099609375,1.4573019183158873,0.4101327795732766,-5.352728225144744
1761336093545165800,5.089165771484375,1.3802192631572485,0.42020719700511544,-4.307764706687629
1761336093555232800,5.099232666015625,0.7759604073435068,-1.1064609203405678,-3.1998087254837153
1761336093565298400,5.10929833984375,0.4034709105312824,-1.3781746055871247,-1.2679654875047504
1761336093575365600,5.11936572265625,0.40158290482759473,-0.2711365429457277,-0.10138455458115786
1761336093585431600,5.129431640625,-0.1593903514891863,1.1817295848798006,0.580414162106812
1761336093595498500,5.13949853515625,-0.962094973373413,2.117931626779586,1.4106396819926799
1761336093605564700,5.149564697265625,-1.249720075109601,1.217309797631204,1.1604510153338312
1761336093615631600,5.159631591796875,-1.1505360627800225,-0.5672206262737512,0.5317799315908923
1761336093625697500,5.169697509765625,-0.7757973257362842,-0.46362478885129094,0.5347646464901045
1761336093635764500,5.179764404296875,-0.344531814828515,-0.31762678370289504,0.47135757506042714
1761336093645830700,5.18983056640625,-0.14630816707611083,-0.1719047459516674,0.17290548395942895
1761336093655897600,5.199897705078125,0.03324175986647606,-0.1637576798532158,-0.055919309490174054
1761336093665963800,5.2099638671875,0.030586276921629903,-0.021563377836719154,-0.4571551544457674
1761336093676030700,5.22003076171875,0.19658347932994363,-0.11096928879991173,-0.15532284632194787
1761336093686096600,5.2300966796875,0.1585433792710304,-0.27459179796613753,0.15577723902594298
1761336093696163600,5.24016357421875,0.2183972517311573,-0.24973390862867234,0.3847918559592217
1761336093706230500,5.25023046875,0.11636311066746712,-0.103326445896551,0.10822700435444713
1761336093716296700,5.260296630859375,-0.5318436079442501,0.07831818830296397,-0.19164278979105873
1761336093726363600,5.27036376953125,-0.8486883744239807,0.13180077216550706,-0.3957154010336846
1761336093736429600,5.2804296875,-0.6070721596688031,0.14976875585876404,-0.4944041041269898
1761336093746496800,5.290496826171875,-0.29103870957195754,0.25389913854934276,-0.43029198970049615
1761336093756562700,5.300562744140625,0.13683014463484286,0.014521423435956238,-0.14973171178400516
1761336093766629600,5.310629638671875,0.5377542932927608,-0.24147921743728218,-0.10813254927033558
1761336093776695800,5.32069580078125,0.6874684694200753,-0.09323233738355338,-0.3457635485805571
1761336093786762800,5.3307626953125,0.5156120195895433,-0.0025104484509676692,-0.403350170228444
1761336093796828700,5.34082861328125,0.25203239482939244,-0.037926995073258876,-0.13764747063340618
1761336093806895600,5.3508955078125,0.022078560817241667,-0.07276333065479994,0.14206260192822665
1761336093816961800,5.3609619140625,-0.1297182668030262,-0.16325455263666808,0.17776434043375774
1761336093827028700,5.37102880859375,-0.1806909136712551,-0.06476772879101336,0.05650675398930907
1761336093837094700,5.3810947265625,-0.08867723136246204,-0.12527363541908562,-0.03022568171462044
1761336093847161900,5.391161865234375,-0.20080431189537049,-0.2359443796638399,-0.10564526249924674
1761336093857227500,5.4012275390625,-0.21995792517662047,-0.1543537455614656,-0.22088523262199014
1761336093867294500,5.41129443359375,-0.16453882029354572,-0.12456760604158043,-0.27623549178624524
1761336093877360600,5.421360595703125,-0.1427712251216173,-0.12738682818077504,-0.28591674518203364
1761336093887427600,5.431427490234375,0.003799392282962799,-0.10993578103370964,-0.2717456147547811
1761336093897493500,5.441493408203125,0.10883505325019359,-0.12903934462815522,-0.20991231371415778
1761336093907560700,5.451560791015625,0.06160568456351757,-0.07104848956093192,-0.15391367364376782
1761336093917626600,5.461626708984375,-0.012712182056903838,-0.08271269693486392,-0.07764547667317091
1761336093927693600,5.471693603515625,-0.08400339433252811,-0.17813874497041104,0.03363349913042039
1761336093937759700,5.481759765625,-0.14550503399968145,-0.20826134990304707,0.05497848497610539
1761336093947826700,5.49182666015625,-0.1605705011844635,-0.2162728069230914,-0.03239283315325156
1761336093957892600,5.501892578125,-0.15363105731010437,-0.21273754546903073,-0.0236044917428866
1761336093967959600,5.51195947265625,-0.1387549752175808,-0.23215602023154497,0.016236721187550575
1761336093978025700,5.522025634765625,-0.11639350580573081,-0.25063392620831726,0.08444386810902506
1761336093988092700,5.5320927734375,-0.12825579303503035,-0.21590843059010803,0.09260909091867506
1761336093998158600,5.54215869140625,-0.1361667122900486,-0.18819032951593398,0.03141761317923665
1761336094008225800,5.552225830078125,-0.11516893244683742,-0.18101057407967744,-0.04824274698030203
1761336094018291700,5.562291748046875,-0.12162906837165355,-0.2006445182237774,-0.0958403279248625
1761336094028358700,5.572358642578125,-0.22664660916030405,-0.18606303516365585,-0.0672705053921789
1761336094038424800,5.5824248046875,-0.3406383145213127,-0.1306802437029779,-0.04819927316475659
1761336094048491800,5.59249169921875,-0.2889507973819971,-0.12570092092044652,-0.07021360963936894
1761336094058557700,5.6025576171875,-0.13944412652552127,-0.12075389297232031,-0.07359653007593006
1761336094068624600,5.612624755859375,-0.01535597456395626,-0.11100289880856871,-0.09152619105279446
1761336094078690800,5.62269091796875,0.02389057867527008,-0.08756145214028656,-0.15913370984699576
1761336094088757800,5.6327578125,0.0037906244546175,-0.051196737947687504,-0.19569117013271897
1761336094098823400,5.642823486328125,-0.09256196384131908,-0.03942052156664431,-0.14442607965655624
1761336094108891000,5.652890869140625,-0.1839367637246847,-0.02218793947584927,-0.09052589143645018
1761336094118956500,5.66295654296875,-0.2755459568858146,0.021467735442519186,-0.04419328892640769
1761336094129023500,5.6730234375,-0.1589665731191635,0.0037690702099353072,-0.03256345874611288
1761336094139089700,5.683089599609375,0.06380056425929069,0.0030590222444385287,0.019972345785610378
1761336094149156600,5.693156494140625,0.17002689631581305,0.02090849412456155,0.0631183724150993
1761336094159222500,5.703222412109375,0.10204466245770454,0.017783493971824646,0.04646145305410027
1761336094169289500,5.71328955078125,-0.029842765077948568,0.016533347780257463,0.007556461527850478
1761336094179355600,5.723355712890625,-0.18879414062798022,0.005064736043661832,-0.03237000026693568
1761336094189422600,5.733422607421875,-0.3076642656803131,-0.058860623639076945,-0.08690514365602284
1761336094199488500,5.743488525390625,-0.2743552857965231,-0.12450776561312377,-0.10376962308678775
1761336094209555200,5.75355517578125,-0.12657821521162985,-0.1491865720566362,-0.07419772910578176
1761336094219622100,5.7636220703125,0.00449906498491764,-0.15687997610345483,-0.05214656775211915
1761336094229688000,5.77368798828125,0.04971475576162338,-0.13032207791507244,-0.0004648775653913617
1761336094239755300,5.78375537109375,0.028425299495458602,-0.10808204292580485,0.01895127737587318
1761336094249821200,5.7938212890625,-0.040324996125698086,-0.09759447811581194,0.008474142628349363
1761336094259888000,5.80388818359375,-0.12106149761676788,-0.06848514187894761,0.005790346904471516
1761336094269954300,5.813954345703125,-0.2848550525009632,-0.023626447846367953,0.011229998941440134
1761336094280021200,5.824021240234375,-0.2312204929471016,-0.018672259505093096,-0.015420509433839468
1761336094290087200,5.834087158203125,-0.010844634619355201,-0.014708543505892157,-0.09292707082666456
1761336094300154000,5.844154052734375,0.2032160492122173,-0.005408361849561333,-0.15344134342428295
1761336094310220300,5.85422021484375,0.29318215134143827,0.0027958412636071442,-0.12264619125863536
1761336094320287200,5.864287353515625,0.11579612443447113,-0.018635434626042842,-0.058380585037171834
1761336094330353200,5.874353271484375,-0.12717033588588236,-0.04345255356170237,-0.11333362504476681
1761336094340420400,5.88442041015625,-0.11796762325465679,-0.025146643150970337,-0.21187192334933205
1761336094350486300,5.894486328125,0.013943185156583784,-0.024977935520559547,-0.20355532763656228
1761336094360553200,5.90455322265625,0.07286883685588837,-0.02333952066376805,-0.0732120242703706
1761336094370619400,5.914619384765625,-0.058065819999575614,-0.01737842030227184,0.055712461806461215
1761336094380686300,5.924686279296875,-0.22448154008090496,-0.0267659149158746,0.04067212906293571
1761336094390752300,5.934752197265625,-0.23098376158177852,-0.05375402121506631,-0.05882905945703387
1761336094400819200,5.944819091796875,-0.07221124972999096,-0.07227467035502196,-0.1185044700777158
1761336094410885000,5.954885009765625,0.05629004249870777,-0.09169964792355895,-0.0812618405394256
1761336094420952000,5.9649521484375,0.01581131711602211,-0.0587638122010976,0.03325049116220325
1761336094431018200,5.975018310546875,-0.24992636246085165,-0.01919365303069353,0.12148681035675107
1761336094441085200,5.985085205078125,-0.4577683179080486,-0.04117737517133355,-0.010042743651941417
1761336094451151000,5.995151123046875,-0.4472568607658148,-0.040131519380211825,-0.20041922156792133
1761336094461218000,6.005218017578125,-0.27506664893627164,-0.06567512595951557,-0.28244653005450965
1761336094471284200,6.0152841796875,-0.1405886203855276,-0.07526464595124124,-0.27840704540535804
1761336094481351200,6.02535107421875,-0.08144786463081836,-0.04905979898422956,-0.3204031165484339
1761336094491417000,6.0354169921875,-0.04589958138763904,0.0031005232986062764,-0.30122623198945075
1761336094501484000,6.045484130859375,0.0070353054642677305,0.020257336739450692,-0.2182755433139391
1761336094511550200,6.05555029296875,0.06927461175620556,-0.0008710837461054325,-0.12370280590578912
1761336094521617200,6.0656171875,0.09277122267782688,-0.021075886580720543,-0.04973497656574472
1761336094531683300,6.075683349609375,0.10189034867882728,0.028926307820156216,0.02991595817832276
1761336094541750300,6.085750244140625,0.1401268480926752,0.01350508600026369,0.11786754214735701
1761336094551816200,6.095816162109375,0.13265665834248064,-0.025513576767221092,0.272996345468238
1761336094561883100,6.105883056640625,-0.01579261241555214,-0.06241999662108719,0.39149814866483207
1761336094571949300,6.11594921875,-0.23820611405074596,-0.07600669649019837,0.40415699309930203
1761336094582016300,6.126016357421875,-0.3541980533182621,-0.09213971984125673,0.29107091307481747
1761336094592082200,6.136082275390625,-0.346907896310091,-0.08373341828472912,0.1739126699742861
1761336094602149400,6.1461494140625,-0.2425397593408823,-0.10595628294348716,-0.015104429221991449
1761336094612215300,6.15621533203125,-0.04087093957066536,-0.05626899971067905,-0.10260070717157796
1761336094622282200,6.1662822265625,0.0741524469256401,-0.05234093954674899,-0.043408184697013345
1761336094632348400,6.176348388671875,0.03810147485733032,-0.07241707450039685,-0.00212409774819389
1761336094642415400,6.186415283203125,-0.05837970825433731,-0.07414893979430198,-0.04024730951329693
1761336094652481300,6.196481201171875,-0.056258478316664695,-0.049501405271887775,-0.05381104863192886
1761336094662548200,6.20654833984375,0.03434416815042496,-0.05163797890916466,-0.006528342322818934
1761336094672615200,6.216615234375,0.10847440324425697,-0.05396408376917243,0.05470454513924196
1761336094682681000,6.22668115234375,0.14473404962718486,-0.060592561998218296,0.034248014299571514
1761336094692748300,6.236748291015625,0.05889759464859962,-0.040462358769774436,-0.021551815263088792
1761336094702814200,6.246814208984375,-0.07257014617025852,-0.049396483592689035,-0.03756983393235132
1761336094712881200,6.256881103515625,-0.1358691906481981,-0.05946377716399729,-0.04350408281954005
1761336094722947000,6.266947021484375,-0.18761223736703395,-0.07892879448197782,-0.059433528156206006
1761336094733014000,6.277013916015625,-0.28322014477550983,-0.07182685352228582,-0.018153697257395834
1761336094743080200,6.287080078125,-0.28868776253163814,-0.07597089452445506,0.04058277027904987
1761336094753147100,6.297147216796875,-0.14109540086388586,-0.09550715044774115,0.007752824350167066
1761336094763213000,6.307213134765625,-0.02486731475293636,-0.11087021233960985,-0.01457172885108739
1761336094773280300,6.3172802734375,-0.05022036719620228,-0.10237433280348777,-0.0455411781377159
1761336094783346200,6.32734619140625,-0.07778992664515971,-0.0825491769362241,-0.0984627305840142
1761336094793413000,6.3374130859375,-0.0184825821518898,-0.08362944645360111,-0.06412910209391266
1761336094803479300,6.347479248046875,0.08929857813119887,-0.09977795963473618,-0.0119794473355636
1761336094813546200,6.357546142578125,0.12489245408177375,-0.09940803034380077,0.047295839785318816
1761336094823612200,6.367612060546875,0.07518997327983379,-0.10464826908484101,0.1009287553713657
1761336094833679000,6.37767919921875,-0.040217444097995755,-0.1119175294354558,0.09619336087992414
1761336094843745300,6.387745361328125,-0.2297691250950098,-0.09942929232753812,0.021513638677168635
1761336094853812200,6.397812255859375,-0.3398281671822071,-0.09801372644118964,-0.13348149179406463
1761336094863878100,6.407878173828125,-0.2854343136936426,-0.09888787892721593,-0.2638327775373123
1761336094873945300,6.4179453125,-0.1271077920436859,-0.0752656688645482,-0.23378981371214613
1761336094884011300,6.42801123046875,-0.01706570109128952,-0.06471124936342239,-0.05431423064740375
1761336094894078200,6.438078125,0.03078209175467491,-0.04810688217356801,0.021890107306744903
1761336094904144400,6.448144287109375,0.035460020437836644,-0.02948869094327092,0.03211693882131949
1761336094914211300,6.45821142578125,0.024191022926568984,-0.04162015050277114,0.01755757626146078
1761336094924277200,6.46827734375,-0.04886544545590877,-0.05718772199079394,0.016371818809304384
1761336094934344200,6.47834423828125,-0.13623685491681098,-0.07591200394406915,0.006976506215427071
1761336094944410000,6.48841015625,-0.17606500743627548,-0.0928632118102163,-0.03876691649612039
1761336094954477300,6.498477294921875,-0.13815408671498297,-0.07832505643516778,-0.0942079774826765
1761336094964543200,6.508543212890625,-0.0862958891838789,-0.057110638166591524,-0.11348534500775859
1761336094974610200,6.518610107421875,-0.012358546313643455,-0.05934131982810795,-0.07097832866786047
1761336094984676000,6.528676025390625,0.06650748513042927,-0.048515974431112406,-0.015957045729644594
1761336094994743000,6.538742919921875,0.06531155334413051,-0.04858363283984363,-0.018644275519624352
1761336095004809200,6.548809326171875,0.015061960053443908,-0.05555084150396287,-0.02126158187855035
1761336095014876200,6.558876220703125,-0.0427121835231781,-0.047086014693230385,0.03668340648664161
1761336095024942000,6.568942138671875,-0.08328150979876518,-0.09032667906992137,0.09018299628291279
1761336095035009000,6.579009033203125,-0.12838146524131297,-0.12064224929139017,0.08460037384498864
1761336095045075200,6.5890751953125,-0.24373802921473978,-0.11745295173078775,0.04182175575578585
1761336095055142100,6.59914208984375,-0.25417525207698344,-0.10969466575421392,0.03202911440739408
1761336095065208300,6.609208251953125,-0.1579085884988308,-0.09484291438534856,-0.00509354201303795
1761336095075275300,6.619275146484375,-0.05515665455460548,-0.08101100758351384,-0.06512457940466701
1761336095085341200,6.629341064453125,-0.003971241718530655,-0.07518515097424387,-0.08854269999628886
1761336095095408000,6.639408203125,-0.024642273825407027,-0.1286132281705737,-0.06561017096452415
1761336095105474300,6.649474365234375,-0.08226853336393833,-0.13582871250733733,-0.08107119507184252
1761336095115541200,6.659541259765625,-0.1276695175796747,-0.09616203415989875,-0.13575104416124523
1761336095125607200,6.669607177734375,-0.15914192968606947,-0.08482092126049101,-0.16315887370985
1761336095135674000,6.679674072265625,-0.10992927822768687,-0.07346504918336867,-0.1468122076081112
1761336095145741300,6.6897412109375,-0.012892214798927307,-0.07384199273698032,-0.0813512906548567
1761336095155807200,6.69980712890625,-0.022445056042075157,-0.09120061236023902,-0.007298943102825433
1761336095165874200,6.709874267578125,-0.08807225120663642,-0.09419073408693075,0.00826362341651693
1761336095175940400,6.7199404296875,-0.09191256002187728,-0.07116612459123134,-0.04423645221469923
1761336095186007300,6.73000732421875,-0.02405658289194107,-0.0621595190539956,-0.05183227763855829
1761336095196073200,6.7400732421875,0.05769932477474212,-0.06797076261602342,-0.05490750209912657
1761336095206140200,6.75014013671875,0.0718260498046875,-0.05812704866752028,-0.05633744357069954
1761336095216205800,6.760205810546875,0.020468787533044815,-0.07387392224520445,-0.02751950976215303
1761336095226272800,6.770272705078125,-0.09935060106813907,-0.08012721048630773,-0.05241073511363938
1761336095236339000,6.7803388671875,-0.23031389949619768,-0.0628136721137911,-0.09670819680057466
1761336095246406000,6.790406005859375,-0.26978607818484307,-0.06397906263135374,-0.13006125328810886
1761336095256471800,6.800471923828125,-0.21521803717315197,-0.07004362336732446,-0.14900034703584386
1761336095266538800,6.810538818359375,-0.11464987700879573,-0.052481955452635884,-0.1449337917166762
1761336095276605000,6.82060498046875,-0.019150106149911878,-0.04148001137971878,-0.10717448136052116
1761336095286672000,6.830671875,-0.015699088913202285,-0.037406770591437814,-0.02849995390055701
1761336095296737800,6.84073779296875,-0.09042261372506619,-0.033759938521683214,-0.022087840102240443
1761336095306805000,6.850804931640625,-0.11441957538425922,-0.03185636992268264,-0.07930172858075238
1761336095316870700,6.86087060546875,-0.09210486772358417,-0.05731427097991108,-0.06459530396671034
1761336095326937600,6.8709375,-0.0017664251506328583,-0.08498451432436704,-0.07123636768269352
1761336095337003800,6.881003662109375,0.10271627810895442,-0.0962022200398147,-0.06258648489494807
1761336095347070700,6.89107080078125,0.08928747221529483,-0.11875789684951304,-0.009141840156307443
1761336095357136600,6.90113671875,-0.034164719930291174,-0.14798998268321156,0.00926890973523259
1761336095367203800,6.911203857421875,-0.1309118605017662,-0.12457045558579265,-0.010253107600146904
1761336095377269800,6.921269775390625,-0.14153729941248894,-0.10170907382778822,-0.030017317927256225
1761336095387336700,6.931336669921875,-0.09561375262737273,-0.09366101112440228,-0.03998604649491608
1761336095397403000,6.94140283203125,-0.06304653102159499,-0.10323708711266517,-0.061527888353262096
1761336095407469800,6.9514697265625,-0.06973696857094765,-0.10794080782420933,-0.09229090094813146
1761336095417535700,6.96153564453125,-0.04309738344848156,-0.08904160769544542,-0.11347906139744444
1761336095427602700,6.971602783203125,-0.03920739027261734,-0.07548793331310152,-0.10016240150821394
1761336095437668900,6.9816689453125,-0.10351181240081786,-0.0821123929541558,-0.077484176031081
1761336095447735800,6.99173583984375,-0.1473380946457386,-0.08848163572512567,-0.07242001537615433
1761336095457801700,7.0018017578125,-0.21792671160995958,-0.07930917210169136,-0.09841919283638707
1761336095467869000,7.011868896484375,-0.23776129289269446,-0.061545478808879846,-0.0969834244122263
1761336095477934800,7.021934814453125,-0.16803718380331992,-0.06407353598177433,-0.10521892684595659
1761336095488001800,7.032001708984375,-0.049285716694593425,-0.07272540979720651,-0.14028132626833392
1761336095498068000,7.04206787109375,0.04957330146431923,-0.059971215229481456,-0.13663764513689092
1761336095508135000,7.052135009765625,0.06528875699043274,-0.05689297682791948,-0.11956338627981021
1761336095518200800,7.062200927734375,-0.01660860497355461,-0.08234700542762875,-0.07817781171789392
1761336095528267800,7.072267822265625,-0.19718904400765894,-0.13367518773525952,-0.057415174071118236
1761336095538334000,7.082333984375,-0.24040157826840877,-0.062288333065435283,-0.10965024209059775
1761336095548401000,7.09240087890625,-0.1650356638997793,-0.036675168381258845,-0.1624519675495103
1761336095558466600,7.102466552734375,-0.06169511641263961,-0.1257258361659944,-0.12267668686159885
1761336095568534000,7.112533935546875,0.024288053560256956,-0.13657500082999466,-0.05727584779881872
1761336095578599700,7.122599609375,0.07787059066593646,-0.1273392627120018,0.01856767575261183
1761336095588666600,7.13266650390625,0.08279168045520782,-0.10312332453988492,0.08540742504470981
1761336095598732800,7.14273291015625,0.07541209159791469,-0.08555946466811001,0.1113259019515477
1761336095608799700,7.1527998046875,-0.03098375180661678,-0.09818491828963159,0.15858762027155607
1761336095618865700,7.16286572265625,-0.1340057348638773,-0.020460238900408146,0.12919370407280512
1761336095628932600,7.1729326171875,-0.2305488772958517,0.02136683235131204,-0.0026673012468032536
1761336095638999800,7.182999755859375,-0.31524434554576874,-0.06108027244992554,-0.030607776367384938
1761336095649065700,7.193065673828125,-0.23788462701141833,-0.09931589508093892,0.005726606619032099
1761336095659132700,7.203132568359375,-0.10011866283118724,-0.1322903823133558,0.05202323363339528
1761336095669198800,7.21319873046875,-0.01829611966907978,-0.05530556150600314,-0.04872604611837305
1761336095679265800,7.223265869140625,0.03629004152119159,-0.08397124562859534,-0.05935754487712402
1761336095689331700,7.233331787109375,0.03920154505372047,-0.08647869840487837,0.06733559281791095
1761336095699398700,7.243398681640625,0.0009264671951532363,-0.018411124350875614,0.1175266197551973
1761336095709464800,7.25346484375,-0.03131576023995876,-0.013907090929895638,0.033843420120631344
1761336095719531800,7.26353173828125,-0.11677461407780647,-0.0472717465236783,-0.05821084536029957
1761336095729597700,7.27359765625,-0.1731312920719385,-0.001298661508411169,-0.1603557624552399
1761336095739665000,7.283664794921875,-0.14538111535906792,0.02875438531935215,-0.2558721921879798
1761336095749730800,7.293730712890625,-0.08083703925609588,-0.04134747104123235,-0.21912801369111984
1761336095759797800,7.3037978515625,0.04907938046753406,-0.0027902883056551216,-0.16062212177384644
1761336095769864000,7.313864013671875,0.137822078281641,-0.01818257629200816,-0.17598958584619684
1761336095779931000,7.323930908203125,0.12876140446960926,-0.06831475374810397,-0.1313840628570877
1761336095789996800,7.333996826171875,0.12140227387845516,-0.06824716840460895,-0.012839164870860986
1761336095800063700,7.344063720703125,-0.015737082836031913,-0.09514292024523019,0.1359586407636292
1761336095810130000,7.3541298828125,-0.22118600566685198,-0.06470825368873774,0.18749272090690208
1761336095820196900,7.36419677734375,-0.19927228002250194,-0.0021069822166115046,0.01863744392003864
1761336095830262800,7.3742626953125,-0.08351824116408825,-0.05269428302906453,-0.1429430928234942
1761336095840330000,7.384330078125,-0.072779989528656,-0.08795549295917153,-0.16096295283446088
1761336095850395600,7.394395751953125,-0.1127560260862112,-0.08646094355247914,-0.09642776329084299
1761336095860462600,7.404462646484375,-0.2083113265246153,-0.10777115034572779,-0.059974338768329465
1761336095870528800,7.41452880859375,-0.21668284902870655,-0.10060432745628059,-0.011323033820022829
1761336095880595700,7.424595703125,-0.1589718338161707,-0.09160364020317792,0.06508738006628118
1761336095890661600,7.43466162109375,-0.05198211617171764,-0.061239627730101345,0.0958764404178597
1761336095900728600,7.444728515625,0.07453647780716419,0.003571428745985031,0.09666598336035385
1761336095910794800,7.454794677734375,0.14229834691286086,0.024343144748359916,0.02682306106374599
1761336095920861700,7.46486181640625,0.07037409743070602,-0.02077281198091805,-0.07301621400390286
1761336095930927900,7.474927978515625,-0.12470131542384624,-0.0008737871598452329,-0.09458423604969866
1761336095940994800,7.484994873046875,-0.26645371889173985,0.009703063368797301,-0.09436927812476642
1761336095951060700,7.495060791015625,-0.2781219448536634,-0.01226480361558497,-0.2197599731854163
1761336095961127700,7.505127685546875,-0.23442951812148094,-0.03929879488311708,-0.28893483262788505
1761336095971193900,7.51519384765625,-0.10513795229792594,0.0009649725746363401,-0.19096293603442607
1761336095981260800,7.5252607421875,0.015407412490248679,-0.001936594085767865,-0.08991609810818918
1761336095991326700,7.53532666015625,0.05816109706759452,-0.025938085789605974,-0.07204053280558437
1761336096001394000,7.545393798828125,0.03485913193523884,-0.03342135421708226,0.003901190423313528
1761336096011459800,7.5554599609375,-0.08161094623804092,-0.01443798293620348,0.06615824243449606
1761336096021526800,7.56552685546875,-0.19182897827923298,0.0014319324992597103,0.051369774693343785
1761336096031593000,7.575593017578125,-0.26871289599537845,-0.08394567279592156,-0.014806128978717605
1761336096041660000,7.585659912109375,-0.2811035910129547,-0.1362343706987798,-0.04057302520317025
1761336096051725800,7.595725830078125,-0.15337386767864225,-0.12448460393324494,-0.005133610303589375
1761336096061792800,7.605792724609375,0.048853170496225354,-0.024579291591793298,0.06934604215775617
1761336096071859700,7.615859619140625,0.2063496710628271,-0.04270443860813975,0.001353090542810969
1761336096081926000,7.62592578125,0.21760230196118355,-0.09654796473756432,-0.04715254515737761
1761336096091992800,7.635992919921875,0.1764554680585861,-0.09984013815075159,0.08456097341636196
1761336096102059000,7.64605908203125,0.08133622094988822,-0.1528231749933213,0.07628487867733928
1761336096112126000,7.6561259765625,0.002788753935694694,-0.1244195758730173,0.06494858808352146
1761336096122191600,7.666191650390625,0.008359832066297531,-0.13147205166779458,0.06455342388662975
1761336096132258800,7.6762587890625,-0.07336977211534977,-0.16285620096884668,0.02407729688640684
1761336096142324700,7.68632470703125,-0.2722194428116083,-0.13628142471089957,-0.011540590127417817
1761336096152391700,7.6963916015625,-0.4260544982612133,-0.1151728049043566,-0.06851053204853087
1761336096162457600,7.70645751953125,-0.45270285121202464,-0.15340820833966134,-0.13218267502202652
1761336096172524800,7.71652490234375,-0.4010036436349153,-0.10560776176676154,-0.1434281089946162
1761336096182590700,7.7265908203125,-0.10689268701076507,-0.04241502720750868,-0.22484250061409547
1761336096192657700,7.73665771484375,0.13834639441668986,-0.08065985605828463,-0.21855580329373478
1761336096202723800,7.746723876953125,0.20225626426935195,-0.0826652775965631,-0.054002479550801216
1761336096212791300,7.756791259765625,0.017800445106625557,-0.06942468775138258,0.07195818828437477
1761336096222857200,7.766857177734375,-0.27906185605227946,-0.06291070274747908,0.04559126435713842
1761336096232924200,7.776924072265625,-0.3800292446672916,-0.08948606352731585,-0.04987381878085434
1761336096242990300,7.786990234375,-0.2826812155932188,-0.10057042518667876,-0.10315231317235156
1761336096253057300,7.797057373046875,0.038951369684934616,0.04141381427571177,-0.1494324000438675
1761336096263123200,7.807123291015625,0.43616964956223964,0.07278240068145096,-0.21970031542005017
1761336096273190100,7.817190185546875,0.5904173774659633,-0.025094109246134755,-0.1646029350383207
1761336096283256000,7.827256103515625,0.4185720335513353,-0.054179333955049515,-0.021243059841170905
1761336096293323000,7.837322998046875,0.05169686948955059,-0.06217208627462387,0.006237524416390806
1761336096303389200,7.84738916015625,-0.14770283630490302,-0.06693667032793164,-0.008330405042413622
1761336096313456000,7.8574560546875,-0.2315022324979305,-0.08427980012111365,0.0008945742195472121
1761336096323522000,7.86752197265625,-0.3166103732019663,-0.1250852001748979,-0.025815555388480422
1761336096333589000,7.877589111328125,-0.28081425267755983,-0.0237813461471349,-0.07383587352344766
1761336096343655200,7.8876552734375,-0.22547814990282058,-0.01549794031791389,-0.1480547367488034
1761336096353722000,7.89772216796875,-0.1966764183104038,-0.05785882618539035,-0.18541441679550333
1761336096363788000,7.9077880859375,-0.07497019304931163,0.0001220189444720745,-0.11389374314555897
1761336096373855200,7.917855224609375,0.03416179732084274,0.02505195060484111,-0.11733851330457254
1761336096383921200,7.927921142578125,0.026437340548634527,-0.011510916508361696,-0.16631636962639168
1761336096393988000,7.937988037109375,0.030323826593160626,-0.02570683431699872,-0.1624807004536502
1761336096404054300,7.94805419921875,0.06852233208417892,0.03087276571281254,-0.06085882998527958
1761336096414121200,7.958121337890625,0.004754501050710678,-0.06921309082731604,-0.0700444636175409
1761336096424187100,7.968187255859375,-0.092608725592494,-0.1455322142675519,0.02682783770356327
1761336096434254000,7.978254150390625,-0.1269996554940939,-0.19371325765587388,0.15154758383324368
1761336096444320300,7.9883203125,-0.11525135003328323,-0.21097112031839788,0.17101590735316274
1761336096454387200,7.99838720703125,-0.22782968146502972,-0.193809996028617,0.18887758112773298
1761336096464453000,8.008453125,-0.3655857087731361,-0.23849369882047175,0.14937683393172918
1761336096474520300,8.018520263671874,-0.4131266276270151,-0.21801950445994733,0.11913434721278025
1761336096484586200,8.028586181640625,-0.29729250926971434,-0.18450944904610514,0.16636035489859058
1761336096494653200,8.038653076171874,-0.036598669078946114,-0.1570089362453669,0.15016579235233365
1761336096504719400,8.04871923828125,0.20537235046327112,-0.14124664590284228,0.09741890235319733
1761336096514786300,8.058786376953124,0.28855507606267927,-0.14135500164814294,0.01463613585680723
1761336096524852200,8.068852294921875,0.15115209997594356,-0.11357209170944987,-0.029871388384234157
1761336096534919200,8.078919189453124,-0.10603694696426391,-0.1028416580542922,-0.019976766232401133
1761336096544985000,8.088985107421875,-0.3345721463501453,-0.12501593433097005,-0.024605010554939508
1761336096555052000,8.099052001953124,-0.34928806944489477,-0.1389959443666041,-0.06436161394184454
1761336096565118000,8.109117919921875,-0.17362755115628242,-0.06502170355208217,-0.12225185817880556
1761336096575185200,8.11918505859375,0.09792144504785537,-0.007470335880666971,-0.14704682008158415
1761336096585252000,8.129252197265625,0.25254677409231663,-0.0528020542524755,-0.0916581103367731
1761336096595318000,8.139318115234374,0.16685177341103552,-0.10656572007872164,-0.010226137394830585
1761336096605385000,8.149385009765625,-0.03513327270150184,-0.10653773609325289,0.04694673408670351
1761336096615451100,8.159451171875,-0.25110768119990823,-0.12676840402148662,0.10973242221502587
1761336096625518000,8.16951806640625,-0.33011750502884385,-0.15782069101966917,0.16536946243140846
1761336096635584000,8.179583984375,-0.30683132198750973,-0.12581658318936825,0.11083481223266571
1761336096645651200,8.189651123046875,-0.25955694511532784,-0.09642799161970615,-0.0019235154084861277
1761336096655717000,8.199717041015624,-0.1912345195174217,-0.09062653879933058,-0.052584940903075035
1761336096665784000,8.2097841796875,-0.11346037496328354,-0.09139445443190634,-0.05752696388252079
1761336096675850200,8.219850341796874,-0.009525953236222266,-0.05385178250111639,-0.0764417269065976
1761336096685917200,8.229917236328125,0.1010270098477602,0.004184007686376571,-0.07674392472356557
1761336096695983000,8.239983154296874,0.12758885355889796,0.01760894112251699,-0.07416267605870962
1761336096706050000,8.250050048828125,0.0385293448805809,0.01921498807966709,-0.12744641288090497
1761336096716116200,8.2601162109375,-0.054527124479413026,0.022278905694931746,-0.1886428590564057
1761336096726183200,8.27018310546875,-0.16797347091734408,0.010117854714766145,-0.20209745697844772
1761336096736249000,8.2802490234375,-0.2041273188382387,-0.005083075417950749,-0.15236991480048745
1761336096746316300,8.29031640625,-0.10676584576070308,-0.023637407631799577,-0.14671667481176554
1761336096756382200,8.30038232421875,-0.002273205628991127,-0.05138173912577331,-0.15637169778775423
1761336096766450200,8.3104501953125,0.025284663382172584,-0.09716573130972683,-0.12024963324461131
1761336096776516000,8.32051611328125,0.01899929950237274,-0.11600940185897052,-0.06381265655588358
1761336096786583300,8.330583251953126,0.0027197803527116773,-0.11036503929644823,-0.016219642188586295
1761336096796649200,8.340649169921875,-0.023023732712864873,-0.11768632209524511,0.07622614792715758
1761336096806716200,8.350716064453126,-0.02439560558795929,-0.1555889133796096,0.15457725211903453
1761336096816782300,8.3607822265625,-0.06483925965726375,-0.15423369937837123,0.13674984594024717
1761336096826849300,8.370849365234376,-0.1306850660085678,-0.13106712412871419,0.10523648076895624
1761336096836915200,8.380915283203125,-0.2319856321007013,-0.08814612016044557,0.10668850620817392
1761336096846982100,8.390982177734376,-0.28958792624175544,-0.06923449894152581,0.10301091367397457
1761336096857048300,8.40104833984375,-0.1492541574001312,-0.019144260931015015,0.11230901297107339
1761336096867115300,8.411115234375,0.0759083506822586,-0.0018585604134947061,0.08103351167626678
1761336096877181000,8.421180908203125,0.18238778071701525,0.029585575446486472,0.04327032886259258
1761336096887248400,8.431248291015624,0.23878946689665317,0.034851094759255644,-0.03975041110813617
1761336096897314000,8.44131396484375,0.14351006079018117,-0.02850691336430609,-0.13753511456642298
1761336096907381000,8.451381103515626,-0.06658347297608852,0.00815649151392281,-0.17998130409717558
1761336096917447200,8.461447265625,-0.19435235927700995,-0.023540669259056447,-0.20845340187642722
1761336096927514000,8.47151416015625,-0.2311070957005024,0.009413944229111074,-0.17969883389398456
1761336096937580000,8.481580078125,-0.27215865253508087,-0.10162146860957146,-0.27865941273123024
1761336096947647000,8.49164697265625,-0.21433190198838709,-0.15528240471370516,-0.1869949091862887
1761336096957713200,8.501713134765625,-0.13214227907955645,-0.13391696060188113,-0.054834071536734696
1761336096967780000,8.511780029296874,-0.04019640130996704,-0.1123186575822532,-0.02063712983727455
1761336096977846300,8.52184619140625,0.08354805178046226,-0.08357377074360847,0.03683339115027338
1761336096987913200,8.531913330078124,0.09368658395707606,-0.06483728689588605,0.04025496309679001
1761336096997979100,8.541979248046875,0.01989654060304165,-0.07797419717088341,0.12943634458910674
1761336097008046000,8.552046142578124,0.014171148693561553,-0.07739603195674717,0.12486425090059637
1761336097018112300,8.5621123046875,0.022065701335668562,-0.0748936937469989,0.03965345353968441
1761336097028179200,8.57217919921875,0.008733926075696945,-0.12260171279609203,0.006120674837380647
1761336097038246100,8.58224609375,-0.0030792613148689267,-0.1567367682404816,-0.005537760382890701
1761336097048312000,8.59231201171875,-0.09658288992047309,-0.15612214347347617,-0.03763356508463621
1761336097058379300,8.602379150390625,-0.1689841092646122,-0.14861410593092442,-0.08431300827097148
1761336097068445200,8.612445068359374,-0.10205810646116734,-0.12126586108244955,-0.10534523837305605
1761336097078512000,8.62251220703125,-0.12413608275651931,-0.10930858904607593,-0.07150836215764284
1761336097088578300,8.632578369140624,-0.0968745663434267,-0.10589257005751132,-0.004197195961512625
1761336097098645200,8.642645263671875,-0.06690437549352646,-0.09946940514221787,-0.031606267619132995
1761336097108711200,8.652711181640624,-0.09993044678270817,-0.08705152985677123,-0.08197893930021673
1761336097118778000,8.662778076171875,-0.09754735103845595,-0.09184080995991825,-0.1291619846271351
1761336097128844300,8.67284423828125,-0.09676876788139342,-0.12184344177469611,-0.15976024424750357
1761336097138911200,8.6829111328125,-0.05527063632309436,-0.12869995660595596,-0.11937551729120313
1761336097148977200,8.69297705078125,-0.006862871506810188,-0.0779606801021844,-0.20473858260437844
1761336097159044400,8.70304443359375,0.08305705339312552,-0.07947408033981919,-0.24504732171501964
1761336097169110000,8.713110107421874,0.16634440841078757,-0.10334178959615528,-0.21078648446649312
1761336097179177000,8.723177001953125,0.18619594082832336,-0.09664389939270913,-0.21240780205801127
1761336097189243100,8.7332431640625,0.18712766872048378,-0.08472082188688218,-0.2080327653115615
1761336097199310000,8.74331005859375,0.1322410632789135,-0.06760119865126907,-0.15780425134152173
1761336097209376300,8.753376220703124,0.12333996394276618,-0.09621953650079668,-0.16316906631030142
1761336097219443200,8.763443115234375,0.09796586871147155,-0.13407967688292263,-0.1367844788622111
1761336097229509400,8.77350927734375,0.14516016608476637,-0.12040931731835007,-0.1616520128108561
1761336097239576300,8.783576416015626,0.18158172503113745,-0.11522709237486123,-0.15935666841529308
1761336097249642500,8.793642578125,-0.004117372190952301,-0.14914894345998764,0.17422544398419557
1761336097259709400,8.80370947265625,-0.0016267244189977644,-0.13062675995007156,0.2912185231182724
1761336097269775400,8.813775390625,-0.07292553547918797,-0.2323541731521487,0.09115911130607128
1761336097279842300,8.82384228515625,-0.16278467010259629,-0.2560958448760211,0.08644194659106433
1761336097289908500,8.833908447265625,-0.3716594757288694,-0.22457886297553775,0.14005743611827493
1761336097299975400,8.843975341796876,-0.7004284887582063,-0.18880875367522237,0.21021087653562426
1761336097310041300,8.854041259765625,-0.9588152210503816,-0.1444488029450178,0.24183716402947902
1761336097320108300,8.8641083984375,-1.0120423688471316,-0.09892901465520262,0.25889848120659587
1761336097330174500,8.874174560546875,-0.7545172218203544,-0.022489479705691335,0.12831117648407817
1761336097340241400,8.884241455078126,-0.23752222343981264,0.011366028144955635,-0.07725560057274997
1761336097350307600,8.8943076171875,0.16838906598091125,0.0179269940957427,-0.23515783239603041
1761336097360374500,8.90437451171875,0.41030572498738765,-0.02690335062518716,-0.31145123687312004
1761336097370440400,8.9144404296875,0.4143810116022825,-0.05393778028413653,-0.2900757097586989
1761336097380507400,8.92450732421875,0.23461130442917347,-0.053474985077977176,-0.2503810474257916
1761336097390573600,8.934573486328125,-0.03539280042052269,-0.0425474944807589,-0.20135989995151757
1761336097400640500,8.944640625,-0.17978782735168933,0.007036912899464369,-0.17291019666716456
1761336097410706400,8.95470654296875,-0.21696984927654264,0.004936287358403206,-0.08250928331725299
1761336097420773600,8.964773681640626,-0.21603870590627192,-0.011626432646811008,0.021661504448950288
1761336097430840600,8.974840576171875,-0.13851181411147118,-0.04016089160516858,0.02138188378997147
1761336097440906500,8.984906494140626,-0.05513970341980457,-0.04194631371721625,0.02974339635670185
1761336097450973400,8.994973388671875,0.05119418066442012,-0.04537833399251103,0.04247537909261882
1761336097461039400,9.005039306640626,0.16679565930962562,-0.08819850793480873,0.0029289661239832636
1761336097471106300,9.015106201171875,0.17640519917607306,-0.059533700595051045,-0.015154679838195443
1761336097481172200,9.025172119140626,0.005823591586947441,-0.0438591616012156,0.10687463989742099
1761336097491239400,9.035239501953125,-0.15930033511817454,-0.08329641510695218,0.18470899020619688
1761336097501305300,9.045305419921876,-0.2607213127195835,-0.08144976432695984,0.15119710816144943
1761336097511372300,9.055372314453125,-0.2560474756896496,-0.07527838221564888,0.0684013360530138
1761336097521438500,9.0654384765625,-0.18291911111474035,-0.09607654783353209,-0.013980448427051305
1761336097531505400,9.07550537109375,-0.059040802511572836,-0.0959342167533934,-0.0703868107818067
1761336097541571300,9.0855712890625,0.02439209845662117,-0.0997140275530517,-0.08382073124200105
1761336097551638300,9.09563818359375,0.008680734583735465,-0.09167246765568852,-0.038456791101023555
1761336097561704400,9.105704345703124,-0.059517772373557085,-0.06752966778501868,0.00760791772045195
1761336097571771400,9.115771484375,-0.27602584935724733,-0.018026508947461842,0.0008247603863477706
1761336097581837300,9.12583740234375,-0.3854828338980675,0.004885433954000473,-0.07576163568794726
1761336097591904500,9.135904541015625,-0.3729179513573646,-0.04968260705769062,-0.18008352236263453
1761336097601970400,9.145970458984374,-0.2341565463989973,-0.07459639130085706,-0.25863252374678847
1761336097612037400,9.156037353515625,0.0057733227044343945,-0.08948927839770912,-0.354278425078094
1761336097622103600,9.166103515625,0.24013678985238074,-0.06146218443959951,-0.2998668167371303
1761336097632170500,9.17617041015625,0.4601870694875717,-0.10915259476676582,-0.043169937228038906
1761336097642236400,9.186236328125,0.4482628229379654,-0.1492148483030498,0.06687580698616802
1761336097652303400,9.196303466796875,0.08397066110670566,-0.18832228533253073,0.1576001801367849
1761336097662369500,9.20636962890625,-0.2488093411296606,-0.24081176650449632,0.30575002955682573
1761336097672436500,9.2164365234375,-0.2702285612553358,-0.06692059597596525,0.3432116721406579
1761336097682502400,9.22650244140625,0.0002449146717786789,-0.02340878650769591,0.1353911248076707
1761336097692569600,9.236569580078125,0.2862128968507051,-0.08042261323630809,0.001339066584035754
1761336097702635500,9.246635498046874,0.44894905163645743,-0.09444470884799956,-0.07188735153786838
1761336097712702500,9.256702392578125,0.2983399724960327,-0.09597922493889928,-0.1870704586405307
1761336097722768400,9.266768310546874,-0.09594166940748691,-0.1382042094670236,-0.16733743803612885
1761336097732835300,9.27683544921875,-0.433225997325778,-0.09950623002126813,-0.0592154284261167
1761336097742901200,9.2869013671875,-0.5338438418507576,-0.034315964969247575,-0.1082991197425872
1761336097752968200,9.29696826171875,-0.3823345990002155,0.0008181845150887966,-0.13084990118145942
1761336097763034400,9.307034423828124,-0.14557868375778196,0.0014995909079909323,-0.10696684822551905
1761336097773101300,9.317101318359375,0.045485155367851256,-0.02187280911207199,-0.06896452289372682
1761336097783167500,9.32716748046875,0.008418284255266188,-0.016817425418645143,-0.13196604572981596
1761336097793234400,9.337234375,-0.10801321547329425,-0.03565978079363703,-0.18982158397957682
1761336097803300400,9.34730029296875,-0.2116214739859104,-0.05711757936403155,-0.057653074480220674
1761336097813367300,9.3573671875,-0.2517027244836092,-0.09063377225771546,0.06780782713927329
1761336097823433500,9.36743359375,-0.2146153951048851,-0.0632915918238461,0.046208793467283245
1761336097833500400,9.37750048828125,-0.09241115719377994,-0.02221285472139716,0.05420044980831444
1761336097843566300,9.38756640625,0.05075578924715519,-0.06964023019820452,0.04282996468394994
1761336097853633300,9.39763330078125,0.14271394197642803,-0.16665362049043178,-0.03492204110361635
1761336097863699500,9.407699462890625,0.19242285251915453,-0.1816542057454586,0.03151084442064166
1761336097873766400,9.417766357421876,0.189139593064785,-0.1602830625452101,0.09155614779964089
1761336097883832600,9.42783251953125,0.14499533091187478,-0.06845584271922707,-0.03035224897004664
1761336097893899500,9.4378994140625,0.035032150414586065,-0.05371054739952087,-0.19846995066367087
