time,seconds_elapsed,z,y,x
1761336088582374700,0.126374755859375,0.35830268263816833,-0.45617517828941345,0.5276513695716858
1761336088592440600,0.136440673828125,0.2517043948173523,-0.3638536036014557,0.501456618309021
1761336088602507500,0.146507568359375,0.1576966792345047,-0.29879018664360046,0.43721529841423035
1761336088612573700,0.15657373046875,0.07688688486814499,-0.24950581789016724,0.3409845232963562
1761336088622640600,0.166640625,0.009548059664666653,-0.20527736842632294,0.2428760677576065
1761336088632706600,0.17670654296875,-0.046524763107299805,-0.13923399150371552,0.16699054837226868
1761336088642773500,0.1867734375,-0.10918548703193665,-0.05726401507854462,0.10420945286750793
1761336088652839700,0.196839599609375,-0.1487138718366623,-0.025661297142505646,0.02205011248588562
1761336088662906600,0.20690673828125,-0.17323119938373566,0.0018891040235757828,-0.053686462342739105
1761336088672972800,0.216972900390625,-0.2090146243572235,0.06728693842887878,-0.07388963550329208
1761336088683039700,0.227039794921875,-0.255118727684021,0.1497354805469513,-0.050248220562934875
1761336088693105400,0.23710546875,-0.27961426973342896,0.21667328476905823,-0.03186480700969696
1761336088703172600,0.247172607421875,-0.2942286431789398,0.26982730627059937,-0.024863090366125107
1761336088713239600,0.257239501953125,-0.29819294810295105,0.310018390417099,-0.03959698602557182
1761336088723305500,0.267305419921875,-0.2904769778251648,0.3539978265762329,-0.05776587128639221
1761336088733372700,0.27737255859375,-0.2694316506385803,0.39310258626937866,-0.07187214493751526
1761336088743438600,0.2874384765625,-0.24492286145687103,0.4454992115497589,-0.06948302686214447
1761336088753505500,0.297505615234375,-0.21324841678142548,0.4975375533103943,-0.0709785595536232
1761336088763571500,0.307571533203125,-0.17175796627998352,0.5162494778633118,-0.09260556101799011
1761336088773638400,0.317638427734375,-0.13854438066482544,0.5167492628097534,-0.10889018326997757
1761336088783704600,0.32770458984375,-0.08531231433153152,0.5158796906471252,-0.09571978449821472
1761336088793771500,0.337771484375,-0.04846050217747688,0.49519282579421997,-0.10196344554424286
1761336088803837400,0.34783740234375,-0.08212152868509293,0.3292592465877533,-0.07008061558008194
1761336088813904600,0.357904541015625,-0.1807880699634552,0.21653059124946594,0.0759027898311615
1761336088823970600,0.367970458984375,-0.30258721113204956,0.07828883081674576,0.2234317809343338
1761336088834037500,0.37803759765625,-0.39661213755607605,-0.07293269783258438,0.3125132620334625
1761336088844103700,0.388103759765625,-0.4454475939273834,-0.14321351051330566,0.31944626569747925
1761336088854170600,0.398170654296875,-0.4701390862464905,-0.10074198991060257,0.23643718659877777
1761336088864236500,0.408236572265625,-0.4764883518218994,0.09118776768445969,0.033332813531160355
1761336088874303500,0.418303466796875,-0.49416735768318176,0.3053540587425232,-0.19232705235481262
1761336088884369700,0.42836962890625,-0.5278720855712891,0.3675884008407593,-0.30104926228523254
1761336088894436600,0.4384365234375,-0.5269156098365784,0.23408246040344238,-0.2256566733121872
1761336088904502500,0.44850244140625,-0.4861793518066406,0.22402448952198029,-0.03848838433623314
1761336088914569700,0.45856982421875,-0.44639918208122253,0.25292935967445374,0.13254621624946594
1761336088924636700,0.46863671875,-0.4035884737968445,0.21024541556835175,0.20987480878829956
1761336088934702600,0.47870263671875,-0.3540920913219452,0.1730167269706726,0.2442382276058197
1761336088944769500,0.48876953125,-0.2976780831813812,0.13339342176914215,0.2639818489551544
1761336088954835700,0.498835693359375,-0.2607846260070801,0.10363467037677765,0.25662970542907715
1761336088964902700,0.508902587890625,-0.2575683295726776,0.06341560930013657,0.2345544695854187
1761336088974968600,0.518968505859375,-0.26133546233177185,0.03353813663125038,0.21049663424491882
1761336088985035800,0.529035888671875,-0.27736184000968933,-0.004562908783555031,0.17035214602947235
1761336088995101700,0.539101806640625,-0.2769244313240051,-0.039093829691410065,0.12554918229579926
1761336089005168600,0.549168701171875,-0.26064878702163696,-0.07264193147420883,0.07842905819416046
1761336089015234600,0.559234619140625,-0.23084022104740143,-0.09885430335998535,0.02462899312376976
1761336089025301500,0.569301513671875,-0.19360311329364777,-0.10959883034229279,-0.016653997823596
1761336089035367400,0.579367431640625,-0.1607467234134674,-0.07546107470989227,-0.028293052688241005
1761336089045434400,0.589434326171875,-0.13007217645645142,-0.030521031469106674,-0.02500724606215954
1761336089055500500,0.59950048828125,-0.09896034002304077,-0.0006942665204405785,-0.016565483063459396
1761336089065567500,0.6095673828125,-0.0739751011133194,0.02940824255347252,0.005894817411899567
1761336089075633400,0.61963330078125,-0.0776391327381134,0.057649485766887665,0.020101409405469894
1761336089085700600,0.62970068359375,-0.07213623821735382,0.04596646502614021,0.0026390627026557922
1761336089095766500,0.6397666015625,-0.07293213903903961,-0.004242610186338425,-0.03308076411485672
1761336089105833500,0.64983349609375,-0.07914582639932632,-0.03591025993227959,-0.06225143373012543
1761336089115900400,0.659900390625,-0.08124548196792603,-0.07006087899208069,-0.08332255482673645
1761336089125966600,0.669966552734375,-0.08698964864015579,-0.10644099116325378,-0.10053030401468277
1761336089136033500,0.680033447265625,-0.09216737002134323,-0.121586874127388,-0.09697676450014114
1761336089146099500,0.690099365234375,-0.09127867221832275,-0.11738494038581848,-0.09135589748620987
1761336089156166700,0.700166748046875,-0.0881233736872673,-0.1295175850391388,-0.10551407188177109
1761336089166232600,0.710232666015625,-0.09042301028966904,-0.14077210426330566,-0.11431874334812164
1761336089176299500,0.720299560546875,-0.09698538482189178,-0.14043159782886505,-0.12411177158355713
1761336089186365700,0.73036572265625,-0.10306884348392487,-0.15069623291492462,-0.13925743103027344
1761336089196432600,0.7404326171875,-0.096513532102108,-0.15731261670589447,-0.13933426141738892
1761336089206498000,0.750498046875,-0.0951414704322815,-0.1491423100233078,-0.140297532081604
1761336089216565200,0.760565185546875,-0.09244436025619507,-0.14438633620738983,-0.13567116856575012
1761336089226631200,0.770631103515625,-0.08868744224309921,-0.15830135345458984,-0.13197150826454163
1761336089236698000,0.780697998046875,-0.08973788470029831,-0.14798977971076965,-0.08186597377061844
1761336089246764300,0.790764404296875,-0.0871727243065834,-0.09553641080856323,-0.011510051786899567
1761336089256831200,0.800831298828125,-0.07582039386034012,-0.05663761496543884,0.05406394973397255
1761336089266897200,0.810897216796875,-0.0654982477426529,-0.05085669085383415,0.0786859393119812
1761336089276964000,0.820964111328125,-0.04608593136072159,-0.06913774460554123,0.08794380724430084
1761336089287031300,0.83103125,-0.01878027245402336,-0.06997743993997574,0.10995430499315262
1761336089297097200,0.84109716796875,0.0014456696808338165,-0.02871530130505562,0.13950467109680176
1761336089307164200,0.8511640625,0.012516429647803307,0.0011581750586628914,0.1652425229549408
1761336089317230300,0.861230224609375,0.01489342376589775,0.00703718326985836,0.16554628312587738
1761336089327297300,0.87129736328125,0.021003512665629387,0.001673310063779354,0.13425201177597046
1761336089337363200,0.88136328125,0.022953201085329056,-0.017195215448737144,0.08168528228998184
1761336089347430100,0.89143017578125,0.027292292565107346,-0.034285519272089005,0.02686438336968422
1761336089357496300,0.901496337890625,0.03706429526209831,-0.04202200472354889,-0.01786130666732788
1761336089367563300,0.911563232421875,0.045932356268167496,-0.0479147806763649,-0.051753491163253784
1761336089377629200,0.921629150390625,0.057445887476205826,-0.04766678437590599,-0.07160584628582001
1761336089387696400,0.9316962890625,0.059783343225717545,-0.04702869430184364,-0.0728687196969986
1761336089397762300,0.94176220703125,0.06342241168022156,-0.04235534742474556,-0.06754550337791443
1761336089407829200,0.951829345703125,0.06092303246259689,-0.02754870429635048,-0.042798880487680435
1761336089417895400,0.9618955078125,0.06355694681406021,-0.01310270931571722,-0.023670073598623276
1761336089427962400,0.97196240234375,0.0747227817773819,-0.016065742820501328,-0.018018046393990517
1761336089438028000,0.982028076171875,0.08352785557508469,-0.014338253997266293,-0.015229279175400734
1761336089448095000,0.992094970703125,0.09013329446315765,-0.015199519693851471,-0.014460690319538116
1761336089458161200,1.0021611328125,0.0928950086236,-0.023436836898326874,0.012557539157569408
1761336089468228000,1.01222802734375,0.09635286033153534,-0.00024656206369400024,0.06101188808679581
1761336089478295000,1.022294921875,0.09164439141750336,0.014109942130744457,0.09894908219575882
1761336089488361200,1.032361328125,0.09203561395406723,-0.006924769841134548,0.1100669801235199
1761336089498428200,1.04242822265625,0.08966495096683502,-0.03799325227737427,0.10224505513906479
1761336089508494000,1.052494140625,0.086377814412117,-0.07095412909984589,0.07442860305309296
1761336089518561000,1.06256103515625,0.08117242157459259,-0.11054132878780365,0.030385784804821014
1761336089528627200,1.072627197265625,0.07577472925186157,-0.13904035091400146,-0.0008147456683218479
1761336089538694100,1.082694091796875,0.07179690152406693,-0.15655292570590973,-0.022286921739578247
1761336089548760000,1.092760009765625,0.06340234726667404,-0.15870928764343262,-0.02237826958298683
1761336089558827300,1.1028271484375,0.06354957818984985,-0.15212516486644745,-0.005507336463779211
1761336089568893200,1.11289306640625,0.06636826694011688,-0.14057636260986328,0.017387326806783676
1761336089578960100,1.122960205078125,0.0750042200088501,-0.1320389211177826,0.038150105625391006
1761336089589026300,1.1330263671875,0.07842105627059937,-0.12845750153064728,0.044639963656663895
1761336089599093200,1.14309326171875,0.08169808983802795,-0.12426219880580902,0.055942874401807785
1761336089609159200,1.1531591796875,0.08659005165100098,-0.11216612160205841,0.06617288291454315
1761336089619226000,1.16322607421875,0.086472287774086,-0.10549671202898026,0.06794429570436478
1761336089629292300,1.173292236328125,0.08669359982013702,-0.08919364213943481,0.07288871705532074
1761336089639359200,1.183359130859375,0.07712387293577194,-0.06167825683951378,0.08505861461162567
1761336089649425200,1.193425048828125,0.06825421750545502,-0.026404423639178276,0.09031090140342712
1761336089659492400,1.203492431640625,0.062295835465192795,-0.001444428227841854,0.07541206479072571
1761336089669558300,1.213558349609375,0.05943160876631737,0.014963572844862938,0.04369594156742096
1761336089679625200,1.223625244140625,0.05501054972410202,0.008176801726222038,0.0112907188013196
1761336089689692200,1.233692138671875,0.05687342956662178,-0.0031877057626843452,-0.014207982458174229
1761336089699758300,1.24375830078125,0.0505673885345459,-0.0026137661188840866,-0.017277419567108154
1761336089709825300,1.2538251953125,0.038567714393138885,0.00016790535300970078,-0.019258279353380203
1761336089719891200,1.26389111328125,0.030031152069568634,0.013497505336999893,-0.026106111705303192
1761336089729958400,1.27395849609375,0.02080915868282318,0.018793733790516853,-0.036600299179553986
1761336089740024000,1.284024169921875,0.00864794384688139,0.0072065843269228935,-0.061871934682130814
1761336089750091300,1.29409130859375,0.00702448096126318,-0.009377717971801758,-0.0796879455447197
1761336089760157200,1.3041572265625,0.012487668544054031,-0.030156072229146957,-0.08626827597618103
1761336089770224000,1.31422412109375,0.018165793269872665,-0.03928006440401077,-0.07045495510101318
1761336089780290000,1.3242900390625,0.022159891203045845,-0.03722090646624565,-0.03639755770564079
1761336089790357000,1.33435693359375,0.02699113078415394,-0.025948014110326767,0.003519497811794281
1761336089800423200,1.344423095703125,0.031075233593583107,-0.009678041562438011,0.027171924710273743
1761336089810490000,1.354489990234375,0.038890548050403595,0.001375407911837101,0.027353819459676743
1761336089820556300,1.364556396484375,0.041978128254413605,0.019793348386883736,0.008132671937346458
1761336089830623200,1.374623291015625,0.0479033961892128,0.040442436933517456,-0.019798561930656433
1761336089840689200,1.384689208984375,0.054103486239910126,0.05188441649079323,-0.04389157146215439
1761336089850756000,1.394756103515625,0.06420458853244781,0.054107893258333206,-0.06907203048467636
1761336089860822300,1.404822265625,0.08737817406654358,0.050454188138246536,-0.0821140855550766
1761336089870889200,1.41488916015625,0.1022825539112091,0.05464760586619377,-0.08156254142522812
1761336089880955100,1.424955078125,0.1146608516573906,0.06677417457103729,-0.06851150840520859
1761336089891022000,1.43502197265625,0.13167579472064972,0.07867530733346939,-0.06407707929611206
1761336089901088300,1.445088134765625,0.1394967883825302,0.08057115972042084,-0.06992719322443008
1761336089911155200,1.4551552734375,0.15218354761600494,0.07523391395807266,-0.08085440844297409
1761336089921222100,1.46522216796875,0.1633192002773285,0.07594496756792068,-0.08097116649150848
1761336089931288300,1.475288330078125,0.17442405223846436,0.08449291437864304,-0.06254395842552185
1761336089941355300,1.485355224609375,0.17908458411693573,0.09106361865997314,-0.04265354201197624
1761336089951421200,1.495421142578125,0.17705020308494568,0.08426962792873383,-0.021269425749778748
1761336089961488100,1.505488037109375,0.17361916601657867,0.06998288631439209,-0.0016323905438184738
1761336089971554300,1.51555419921875,0.1687660813331604,0.038360510021448135,0.0005772337317466736
1761336089981621200,1.525621337890625,0.1636759489774704,0.005546741187572479,-0.001612992025911808
1761336089991687400,1.5356875,0.16018666326999664,-0.028356365859508514,-0.009940430521965027
1761336090001754400,1.54575439453125,0.15039052069187164,-0.054932527244091034,-0.01505518238991499
1761336090011820300,1.5558203125,0.14682215452194214,-0.06664804369211197,-0.01796841435134411
1761336090021887200,1.56588720703125,0.14189663529396057,-0.07350826263427734,-0.014614427462220192
1761336090031953200,1.575953125,0.1374313235282898,-0.08182184398174286,-0.013939849101006985
1761336090042020000,1.58602001953125,0.12345833331346512,-0.0749102532863617,-0.00008477829396724701
1761336090052086000,1.5960859375,0.12131395936012268,-0.06502699851989746,0.02048148214817047
1761336090062153200,1.6061533203125,0.1306217610836029,-0.04157120734453201,0.04263065755367279
1761336090072219100,1.61621923828125,0.13530492782592773,-0.020287491381168365,0.06069594621658325
1761336090082286000,1.6262861328125,0.13625919818878174,-0.0005510952323675156,0.06338977813720703
1761336090092352300,1.636352294921875,0.14849242568016052,-0.01628212071955204,0.05885494127869606
1761336090102419200,1.646419189453125,0.16197969019412994,-0.04155919700860977,0.04505166411399841
1761336090112485000,1.656485107421875,0.1593809723854065,-0.047403234988451004,0.029905730858445168
1761336090122552000,1.666552001953125,0.15007692575454712,-0.043060556054115295,0.02349512092769146
1761336090132618200,1.6766181640625,0.14814719557762146,-0.03742077946662903,0.02067323587834835
1761336090142685200,1.686685302734375,0.14464275538921356,-0.037697695195674896,0.014018111862242222
1761336090152751000,1.696751220703125,0.13553768396377563,-0.047011833637952805,0.009403652511537075
1761336090162818300,1.706818359375,0.12978975474834442,-0.050239447504282,0.02607039362192154
1761336090172884200,1.71688427734375,0.11996933817863464,-0.04412936046719551,0.04040086269378662
1761336090182951200,1.726951171875,0.11387388408184052,-0.041345104575157166,0.047568224370479584
1761336090193017300,1.737017333984375,0.10573979467153549,-0.04366684705018997,0.04544568806886673
1761336090203083800,1.747083740234375,0.09779398888349533,-0.03884413093328476,0.02463121898472309
1761336090213149400,1.7571494140625,0.09690248221158981,-0.035430409014225006,0.0028347475454211235
1761336090223217000,1.767216796875,0.08133026957511902,-0.02704416960477829,-0.013999574817717075
1761336090233283800,1.777283935546875,0.06233527511358261,-0.019511684775352478,-0.021532058715820312
1761336090243349500,1.787349609375,0.045706331729888916,-0.014781992882490158,-0.024387333542108536
1761336090253416700,1.797416748046875,0.037206318229436874,-0.015916764736175537,-0.027161814272403717
1761336090263482600,1.807482666015625,0.03231484442949295,-0.020411061123013496,-0.025708382949233055
1761336090273549600,1.817549560546875,0.024107515811920166,-0.023725632578134537,-0.017211034893989563
1761336090283615500,1.827615478515625,0.01603536307811737,-0.026879344135522842,-0.006017138250172138
1761336090293682700,1.8376826171875,0.009826470166444778,-0.025294765830039978,0.007204391062259674
1761336090303748600,1.84774853515625,0.00832170620560646,-0.018080130219459534,0.015473988838493824
1761336090313815600,1.857815673828125,0.008283623494207859,-0.00867384485900402,0.011943702585995197
1761336090323881700,1.8678818359375,0.011032560840249062,-0.013023210689425468,-0.01126555260270834
1761336090333948700,1.87794873046875,0.020033245906233788,-0.018408387899398804,-0.040022898465394974
1761336090344014600,1.8880146484375,0.022773928940296173,-0.017913201823830605,-0.05045697093009949
1761336090354081500,1.89808154296875,0.027410225942730904,-0.01535550132393837,-0.04426592215895653
1761336090364147700,1.908147705078125,0.02139321155846119,-0.02410995028913021,-0.03973837196826935
1761336090374214700,1.918214599609375,0.015899643301963806,-0.02399463579058647,-0.021057896316051483
1761336090384280600,1.928280517578125,0.013927128165960312,-0.01266831997781992,0.00020235776901245117
1761336090394347800,1.93834765625,0.016606267541646957,0.006054234690964222,0.007796893827617168
1761336090404413700,1.94841357421875,0.01682896353304386,0.015862420201301575,-0.001912602223455906
1761336090414480600,1.958480712890625,0.02169669046998024,0.024763766676187515,-0.02428688481450081
1761336090424546800,1.968546875,0.026696573942899704,0.024126525968313217,-0.040386974811553955
1761336090434613800,1.97861376953125,0.027854517102241516,0.028886128216981888,-0.04969179630279541
1761336090444679700,1.9886796875,0.024756206199526787,0.03810681402683258,-0.05147325620055199
1761336090454746600,1.99874658203125,0.015835950151085854,0.043006766587495804,-0.061099518090486526
1761336090464812800,2.008812744140625,0.010528558865189552,0.05281475931406021,-0.07400526851415634
1761336090474879700,2.018879638671875,0.01267613098025322,0.06618542969226837,-0.07975156605243683
1761336090484945700,2.028945556640625,0.016149913892149925,0.0698864758014679,-0.0823565274477005
1761336090495012900,2.039012939453125,0.017367245629429817,0.07171820104122162,-0.07630955427885056
1761336090505078500,2.04907861328125,0.017069436609745026,0.05517992004752159,-0.06475122272968292
1761336090515145500,2.0591455078125,0.02246260456740856,0.0338171049952507,-0.0451735258102417
1761336090525211600,2.069211669921875,0.03472154587507248,0.009517010301351547,-0.022707799449563026
1761336090535278600,2.079278564453125,0.05228535830974579,-0.005996169056743383,0.011244574561715126
1761336090545344500,2.089344482421875,0.05203315615653992,-0.01428951881825924,0.033566124737262726
1761336090555411500,2.099411376953125,0.04190515726804733,-0.01688769832253456,0.040250927209854126
1761336090565477600,2.1094775390625,0.028636986389756203,-0.017653489485383034,0.03420303389430046
1761336090575544600,2.119544677734375,0.018855996429920197,-0.013129045255482197,0.014236517250537872
1761336090585610800,2.12961083984375,0.007546428125351667,-0.007246844470500946,-0.009847274050116539
1761336090595677700,2.139677734375,-0.0010545169934630394,-0.0013103922829031944,-0.01996755227446556
1761336090605743600,2.14974365234375,-0.00404341658577323,0.016383521258831024,-0.01604270562529564
1761336090615810600,2.159810546875,-0.006521488074213266,0.019735906273126602,-0.009275346994400024
1761336090625877500,2.16987744140625,-0.005332319997251034,0.021999381482601166,-0.0005579749122262001
1761336090635943700,2.179943603515625,-0.0033392105251550674,0.027883633971214294,0.007879185490310192
1761336090646010600,2.1900107421875,-0.0020891670137643814,0.03716161102056503,0.026291096583008766
1761336090656076500,2.20007666015625,-0.0036465832963585854,0.05333765223622322,0.04604536294937134
1761336090666143700,2.210143798828125,-0.0014275480061769485,0.05662867799401283,0.05530461296439171
1761336090676209700,2.220209716796875,0.003437514416873455,0.037189729511737823,0.04618781432509422
1761336090686276600,2.230276611328125,0.01963081955909729,0.007398865185678005,0.030556268990039825
1761336090696342800,2.2403427734375,0.02546926960349083,-0.020015981048345566,0.019312936812639236
1761336090706409700,2.25040966796875,0.03634003549814224,-0.03562495484948158,0.03178851678967476
1761336090716475600,2.2604755859375,0.04469330981373787,-0.042071402072906494,0.0521094985306263
1761336090726542600,2.27054248046875,0.0483245924115181,-0.046633075922727585,0.07394959777593613
1761336090736608800,2.28060888671875,0.05191932991147041,-0.051815055310726166,0.09064016491174698
1761336090746675700,2.29067578125,0.05244690179824829,-0.053085118532180786,0.10212823748588562
1761336090756742000,2.300741943359375,0.05127697438001633,-0.050549522042274475,0.10312613099813461
1761336090766808800,2.310808837890625,0.04597467929124832,-0.04695587977766991,0.09068655222654343
1761336090776874500,2.32087451171875,0.04308567941188812,-0.04028812423348427,0.06899670511484146
1761336090786941700,2.330941650390625,0.03752129524946213,-0.028546616435050964,0.04774361103773117
1761336090797007600,2.341007568359375,0.03289831057190895,-0.0021632136777043343,0.03082508221268654
1761336090807074600,2.351074462890625,0.0337594673037529,0.023557808250188828,0.016960687935352325
1761336090817140500,2.361140380859375,0.033611394464969635,0.03746030852198601,0.008391699753701687
1761336090827207700,2.371207763671875,0.03083135560154915,0.04685159772634506,-0.0023150783963501453
1761336090837273600,2.381273681640625,0.033317681401968,0.048918213695287704,-0.0032865991815924644
1761336090847340500,2.391340576171875,0.029545001685619354,0.05559028685092926,0.005782941356301308
1761336090857406700,2.40140673828125,0.030412927269935608,0.06134297698736191,0.011189958080649376
1761336090867473700,2.4114736328125,0.03065986931324005,0.06934956461191177,0.019373100250959396
1761336090877539600,2.42153955078125,0.03028143383562565,0.08216575533151627,0.01729556918144226
1761336090887606500,2.4316064453125,0.0304973516613245,0.08364449441432953,0.009154696948826313
1761336090897672700,2.441672607421875,0.038949958980083466,0.07362009584903717,-0.007969961501657963
1761336090907739600,2.45173974609375,0.04749041423201561,0.054492074996232986,-0.02819785848259926
1761336090917805600,2.4618056640625,0.05652545392513275,0.03852669149637222,-0.040460117161273956
1761336090927872800,2.471872802734375,0.05846671387553215,0.03187072277069092,-0.03537483140826225
1761336090937938700,2.481938720703125,0.05387142673134804,0.02664054185152054,-0.01934713125228882
1761336090948005600,2.492005615234375,0.04759058356285095,0.02619798108935356,-0.00437336228787899
1761336090958071800,2.50207177734375,0.041417110711336136,0.023945216089487076,0.009577873162925243
1761336090968138800,2.512138671875,0.039253778755664825,0.03128339722752571,0.016921227797865868
1761336090978204700,2.52220458984375,0.04000452160835266,0.04074161499738693,0.009308049455285072
1761336090988271600,2.532271728515625,0.03359410539269447,0.04567094147205353,-0.007983884774148464
1761336090998337800,2.542337890625,0.024659201502799988,0.0531885102391243,-0.03332838788628578
1761336091008404700,2.55240478515625,0.01095485221594572,0.058062173426151276,-0.04828070476651192
1761336091018470700,2.562470703125,-0.006646778434514999,0.06129764765501022,-0.056474719196558
1761336091028537900,2.572537841796875,-0.021624384447932243,0.06312992423772812,-0.046527888625860214
1761336091038603500,2.582603515625,-0.030250094830989838,0.07241663336753845,-0.030586738139390945
1761336091048670700,2.592670654296875,-0.04033925011754036,0.07402186840772629,-0.016199130564928055
1761336091058737700,2.602737548828125,-0.052696581929922104,0.07985498756170273,0.005858502350747585
1761336091068803600,2.612803466796875,-0.06045284867286682,0.07949106395244598,0.015373926609754562
1761336091078870800,2.622870849609375,-0.06282812356948853,0.07137987017631531,0.008332796394824982
1761336091088936400,2.6329365234375,-0.05716002359986305,0.05388021469116211,-0.002577399369329214
1761336091099003600,2.643003662109375,-0.047550003975629807,0.05050625652074814,0.005857364274561405
1761336091109069600,2.653069580078125,-0.040542203933000565,0.048847634345293045,0.0105808200314641
1761336091119136500,2.663136474609375,-0.03499137610197067,0.043369777500629425,0.017254170030355453
1761336091129202700,2.67320263671875,-0.025910932570695877,0.05072905123233795,0.035239726305007935
1761336091139269600,2.68326953125,-0.014452947303652763,0.05085395276546478,0.04796484485268593
1761336091149335600,2.69333544921875,0.001170699018985033,0.04049636423587799,0.04175928980112076
1761336091159402500,2.703402587890625,0.021252797916531563,0.02617521584033966,0.02611348405480385
1761336091169468700,2.71346875,0.03818517550826073,0.005677396431565285,-0.0036523984745144844
1761336091179535600,2.72353564453125,0.05613461509346962,-0.02624697983264923,-0.01942470297217369
1761336091189601500,2.7336015625,0.05108262225985527,-0.03897971287369728,-0.004889775533229113
1761336091199668700,2.743668701171875,0.04786978289484978,-0.04373052716255188,0.025387700647115707
1761336091209734700,2.753734619140625,0.045442476868629456,-0.07022330164909363,0.03695790469646454
1761336091219801900,2.7638017578125,0.038028500974178314,-0.1126495897769928,0.029644064605236053
1761336091229867800,2.77386767578125,0.021821148693561554,-0.15657177567481995,0.02072317525744438
1761336091239934700,2.783934814453125,0.011401796713471413,-0.18370166420936584,0.008198595605790615
1761336091250000600,2.794000732421875,-0.004123421851545572,-0.1931186318397522,-0.002920755185186863
1761336091260067600,2.804067626953125,-0.01914205215871334,-0.18679176270961761,-0.001594501081854105
1761336091270133800,2.8141337890625,-0.02838776260614395,-0.16013354063034058,0.014889740385115147
1761336091280200700,2.82420068359375,-0.04478910565376282,-0.10998062789440155,0.03616706654429436
1761336091290267000,2.834266845703125,-0.05779419466853142,-0.05657132714986801,0.05572260543704033
1761336091300333800,2.844333740234375,-0.07770878821611404,-0.002339515835046768,0.056858714669942856
1761336091310399700,2.854399658203125,-0.10396860539913177,0.030633635818958282,0.03965888172388077
1761336091320466700,2.864466796875,-0.12230180203914642,0.056647125631570816,0.008076987229287624
1761336091330532900,2.874532958984375,-0.1454930454492569,0.11614610999822617,-0.007162977010011673
1761336091340599800,2.884599853515625,-0.1550561934709549,0.16844713687896729,-0.0020012385211884975
1761336091350665700,2.894665771484375,-0.13739325106143951,0.20804144442081451,-0.008734653703868389
1761336091360732700,2.904732666015625,-0.09447267651557922,0.2135520577430725,-0.04369556903839111
1761336091370798800,2.914798828125,-0.042767733335494995,0.20626774430274963,-0.09305550903081894
1761336091380865800,2.92486572265625,0.006392358802258968,0.19988736510276794,-0.14836271107196808
1761336091390932000,2.934931884765625,0.035885922610759735,0.17979787290096283,-0.1836494356393814
1761336091400999000,2.9449990234375,0.0525306835770607,0.16400933265686035,-0.192105233669281
1761336091411064800,2.95506494140625,0.06101223826408386,0.1765173226594925,-0.16838282346725464
1761336091421131800,2.9651318359375,0.057356782257556915,0.19454452395439148,-0.12129494547843933
1761336091431198000,2.975197998046875,0.033559441566467285,0.20569981634616852,-0.08124809712171555
1761336091441265000,2.985264892578125,-0.0010139821097254753,0.22569136321544647,-0.05890071764588356
1761336091451330800,2.995330810546875,-0.03441358357667923,0.2567954957485199,-0.0576372891664505
1761336091461397800,3.005397705078125,0.0011622533202171326,0.2282533496618271,-0.07463597506284714
1761336091471463700,3.015463623046875,0.045040782541036606,0.19421586394309998,-0.11946237832307816
1761336091481530600,3.025530517578125,0.04741818830370903,0.18870338797569275,-0.1584225594997406
1761336091491596800,3.0355966796875,0.06926782429218292,0.1794254630804062,-0.16396726667881012
1761336091501663700,3.045663818359375,0.08214603364467621,0.2031601369380951,-0.14529703557491302
1761336091511729700,3.055729736328125,0.06809301674365997,0.21322135627269745,-0.12743133306503296
1761336091521796600,3.065796630859375,0.0299240592867136,0.22086170315742493,-0.13366712629795074
1761336091531862800,3.07586279296875,0.03632823005318642,0.18553809821605682,-0.11403930932283401
1761336091541929700,3.0859296875,0.0774809941649437,0.21564647555351257,-0.08523935079574585
1761336091551996700,3.09599658203125,0.07399458438158035,0.1970064342021942,-0.11945569515228271
1761336091562062800,3.106062744140625,0.08535642921924591,0.2559317946434021,-0.08737365901470184
1761336091572129800,3.1161298828125,0.1004696637392044,0.34346941113471985,-0.04042740911245346
1761336091582195700,3.12619580078125,0.09398247301578522,0.37023818492889404,-0.025691071525216103
1761336091592262700,3.1362626953125,0.07499866932630539,0.3228646218776703,-0.0532771572470665
1761336091602328800,3.146328857421875,0.06100482493638992,0.25780147314071655,-0.082621730864048
1761336091612395800,3.156395751953125,0.03295658901333809,0.18328098952770233,-0.10429690778255463
1761336091622461700,3.166461669921875,0.03978200629353523,-0.013974281027913094,-0.1931692510843277
1761336091632529000,3.17652880859375,0.08531470596790314,-0.05475694686174393,-0.20425929129123688
1761336091642594800,3.1865947265625,0.13429395854473114,0.0014051273465156555,-0.15270955860614777
1761336091652661800,3.196661865234375,0.17121480405330658,0.04840909689664841,-0.07659562677145004
1761336091662728000,3.20672802734375,0.21315959095954895,0.03787203133106232,-0.014627866446971893
1761336091672795000,3.216794921875,0.26620766520500183,-0.03714388981461525,0.012170123867690563
1761336091682860800,3.22686083984375,0.31767112016677856,-0.10949558019638062,0.0393064059317112
1761336091692927700,3.236927734375,0.361703485250473,-0.14628151059150696,0.07900449633598328
1761336091702994000,3.246993896484375,0.41093921661376953,-0.18003840744495392,0.1374824494123459
1761336091713060900,3.257060791015625,0.4585501551628113,-0.1923609972000122,0.1836617887020111
1761336091723126800,3.267126708984375,0.4753967821598053,-0.21430277824401855,0.22831925749778748
1761336091733194000,3.277194091796875,0.48561522364616394,-0.20466303825378418,0.2648504674434662
1761336091743259600,3.287259765625,0.4832857549190521,-0.20651766657829285,0.2713429927825928
1761336091753326800,3.297326904296875,0.4682060480117798,-0.21808326244354248,0.23164774477481842
1761336091763392800,3.307392822265625,0.4475439190864563,-0.22483676671981812,0.17643028497695923
1761336091773459700,3.317459716796875,0.4233796298503876,-0.21094200015068054,0.11374703049659729
1761336091783525600,3.327525634765625,0.3729603886604309,-0.1986381858587265,0.0847739726305008
1761336091793592600,3.337592529296875,0.3054557144641876,-0.16163048148155212,0.10404564440250397
1761336091803658800,3.34765869140625,0.24646486341953278,-0.12755373120307922,0.13097020983695984
1761336091813725700,3.3577255859375,0.19929635524749756,-0.10452897846698761,0.13804280757904053
1761336091823791600,3.36779150390625,0.17302879691123962,-0.07630506157875061,0.11699052155017853
1761336091833858800,3.37785888671875,0.14223702251911163,-0.052059054374694824,0.08684954047203064
1761336091843924700,3.3879248046875,0.0892944410443306,-0.031480807811021805,0.05586206167936325
1761336091853991700,3.39799169921875,0.0422603078186512,0.0026921285316348076,0.033567022532224655
1761336091864057900,3.408057861328125,0.02229991927742958,0.03899900242686272,0.012975194491446018
1761336091874124800,3.418124755859375,0.018669307231903076,0.05056311935186386,-0.009677071124315262
1761336091884190700,3.428190673828125,0.011520851403474808,0.051729314029216766,-0.025809967890381813
1761336091894257700,3.438257568359375,0.004604866728186607,0.04124242067337036,-0.029563430696725845
1761336091904323800,3.44832373046875,-0.0011784541420638561,0.01649899035692215,-0.028765812516212463
1761336091914390800,3.458390869140625,0.001213430892676115,-0.012676230631768703,-0.026895232498645782
1761336091924457000,3.46845703125,-0.0042468486353755,-0.044672515243291855,-0.02346321940422058
1761336091934524000,3.47852392578125,-0.010539032518863678,-0.07322048395872116,-0.01784735918045044
1761336091944589800,3.48858984375,-0.019713355228304863,-0.09201334416866302,-0.007357700727880001
1761336091954656800,3.49865673828125,-0.029343491420149803,-0.0971435159444809,0.0027550971135497093
1761336091964723000,3.508722900390625,-0.032592810690402985,-0.08986084163188934,-0.006278878077864647
1761336091974790000,3.518789794921875,-0.03445032238960266,-0.08074922114610672,-0.023419201374053955
1761336091984855800,3.528855712890625,-0.031476639211177826,-0.07978462427854538,-0.02205885946750641
1761336091994922800,3.5389228515625,-0.021698366850614548,-0.07491206377744675,0.0024901097640395164
1761336092004990000,3.548989990234375,-0.009844103828072548,-0.06638915091753006,0.03601105138659477
1761336092015056000,3.559055908203125,0.01057303138077259,-0.0684165358543396,0.052230771631002426
1761336092025122800,3.569122802734375,0.02928040735423565,-0.05783739686012268,0.06500675529241562
1761336092035188700,3.579188720703125,0.04096243157982826,-0.049292586743831635,0.06625475734472275
1761336092045256000,3.589255859375,0.05182439833879471,-0.03470645472407341,0.035596445202827454
1761336092055321600,3.599321533203125,0.05852235108613968,-0.022690564393997192,-0.00726129487156868
1761336092065388800,3.609388916015625,0.059989750385284424,-0.009294332936406136,-0.0440794937312603
1761336092075454700,3.619454833984375,0.05121712014079094,0.010410821996629238,-0.05373188480734825
1761336092085521700,3.629521728515625,0.041748251765966415,0.01742612197995186,-0.055679988116025925
1761336092095587800,3.639587890625,0.040271420031785965,0.0035501932725310326,-0.06004887446761131
1761336092105654800,3.64965478515625,0.0394975021481514,-0.017960958182811737,-0.05630606785416603
1761336092115720700,3.659720703125,0.03647778928279877,-0.02674512192606926,-0.03687145560979843
1761336092125787600,3.66978759765625,0.02235903963446617,-0.02392297051846981,-0.008351931348443031
1761336092135853800,3.679853759765625,0.004706311505287886,-0.007752657867968082,0.03365529328584671
1761336092145920800,3.689920654296875,-0.014853008091449738,0.03580120950937271,0.08094238489866257
1761336092155986700,3.699986572265625,-0.026417477056384087,0.08495118468999863,0.12613588571548462
1761336092166054000,3.710053955078125,-0.03564079850912094,0.1169876754283905,0.1365983784198761
1761336092176119800,3.720119873046875,-0.03371583670377731,0.1122729554772377,0.09883860498666763
1761336092186186800,3.730186767578125,-0.036257825791835785,0.08227430284023285,0.04628591239452362
1761336092196253000,3.7402529296875,-0.03628549724817276,0.05714375525712967,0.0030339760705828667
1761336092206320400,3.7503203125,-0.03929859772324562,0.044856730848550797,-0.002144274301826954
1761336092216386300,3.76038623046875,-0.0479915551841259,0.061936747282743454,0.018900390714406967
1761336092226453200,3.770453369140625,-0.05299403518438339,0.06471575796604156,0.043684300035238266
1761336092236519400,3.78051953125,-0.08078553527593613,0.0660557821393013,0.06745303422212601
1761336092246586400,3.79058642578125,-0.11340899020433426,0.07379865646362305,0.08077523112297058
1761336092256652300,3.80065234375,-0.11527400463819504,0.0702662393450737,0.10824866592884064
1761336092266719200,3.81071923828125,-0.09187173843383789,0.07346709817647934,0.14404714107513428
1761336092276785400,3.820785400390625,-0.03518155217170715,0.07014988362789154,0.18553592264652252
1761336092286852400,3.830852294921875,0.006690532900393009,0.07742831110954285,0.20746572315692902
1761336092296918300,3.840918212890625,-0.033328134566545486,0.06144276633858681,0.1875169575214386
1761336092306985500,3.8509853515625,-0.025749312713742256,0.0876392126083374,0.1488364040851593
1761336092317051100,3.861051025390625,0.03184445574879646,0.10015036910772324,0.11812970042228699
1761336092327118300,3.871118408203125,0.08803262561559677,0.09307622164487839,0.11810733377933502
1761336092337184300,3.881184326171875,0.19066956639289856,0.004359692335128784,0.20167796313762665
1761336092347251200,3.891251220703125,0.25365573167800903,-0.20105604827404022,0.3620990812778473
1761336092357317000,3.901317138671875,0.1954902708530426,-0.4856768548488617,0.5375077724456787
1761336092367384300,3.91138427734375,0.06439883261919022,-0.7407453656196594,0.6177014112472534
1761336092377450200,3.9214501953125,-0.012290283106267452,-0.9383786916732788,0.6361655592918396
1761336092387517200,3.93151708984375,-0.009704886935651302,-0.9912251234054565,0.5687209963798523
1761336092397583400,3.941583251953125,0.029823793098330498,-0.959297239780426,0.4386872947216034
1761336092407650300,3.951650390625,0.06617008149623871,-0.8984983563423157,0.2792808711528778
1761336092417716200,3.96171630859375,0.08776342868804932,-0.7738583087921143,0.13150961697101593
1761336092427783200,3.971783203125,0.10480206459760666,-0.5572879314422607,0.037241969257593155
1761336092437849300,3.981849365234375,0.12783804535865784,-0.29618895053863525,0.0077673811465501785
1761336092447916300,3.991916259765625,0.14695395529270172,-0.06616824120283127,0.04886288568377495
1761336092457982200,4.001982177734375,0.19090333580970764,0.05254874378442764,0.09598185867071152
1761336092468049400,4.01204931640625,0.24271033704280853,0.0830102488398552,0.10447254776954651
1761336092478115300,4.022115234375,0.27840813994407654,0.032918233424425125,0.05862889066338539
1761336092488182300,4.032182373046875,0.30383065342903137,-0.10871879756450653,-0.007763713598251343
1761336092498248400,4.04224853515625,0.3255576491355896,-0.2891317307949066,-0.037211641669273376
1761336092508315400,4.0523154296875,0.3552471101284027,-0.4361715316772461,-0.04167775809764862
1761336092518381300,4.06238134765625,0.3839317858219147,-0.5397982001304626,-0.03785646706819534
1761336092528448300,4.0724482421875,0.4225555956363678,-0.5435905456542969,-0.06497596949338913
1761336092538514400,4.082514404296875,0.4666699171066284,-0.47453033924102783,-0.15651270747184753
1761336092548581400,4.092581298828125,0.5548037886619568,-0.3146432042121887,-0.3585347831249237
1761336092558647300,4.102647216796875,0.5999008417129517,0.006879015825688839,-0.5810402631759644
1761336092568714500,4.112714599609375,0.5126290321350098,0.30438074469566345,-0.7614713311195374
1761336092578780200,4.1227802734375,0.4095383882522583,0.3047795295715332,-0.8093380331993103
1761336092588847400,4.132847412109375,0.17896246910095215,0.36378213763237,-0.8263281583786011
1761336092598913300,4.142913330078125,-0.03402460739016533,0.443761944770813,-0.8263956308364868
1761336092608980200,4.152980224609375,-0.12848000228405,0.5080400109291077,-0.7951235175132751
1761336092619046100,4.163046142578125,-0.14439398050308228,0.572256863117218,-0.7281474471092224
1761336092629113000,4.173113037109375,-0.172023743391037,0.656762957572937,-0.6417475938796997
1761336092639179300,4.18317919921875,-0.22839315235614777,0.7651291489601135,-0.5374444127082825
1761336092649246200,4.19324609375,-0.24084237217903137,0.8427352905273438,-0.42044246196746826
1761336092659312000,4.20331201171875,-0.1906215399503708,0.8544249534606934,-0.2843024730682373
1761336092669379300,4.21337939453125,-0.09839067608118057,0.8198184967041016,-0.12430133670568466
1761336092679445200,4.2234453125,-0.04967701435089111,0.49534547328948975,0.09316328912973404
1761336092689512200,4.23351220703125,-0.15777899324893951,-0.09363257884979248,0.34739023447036743
1761336092699578400,4.243578369140625,-0.17549094557762146,0.7463209629058838,0.06635905802249908
1761336092709645300,4.253645263671875,-0.11310986429452896,1.2245490550994873,-0.28629031777381897
1761336092719711200,4.263711181640625,-0.10112190246582031,1.052520751953125,-0.30915144085884094
1761336092729778200,4.273778076171875,-0.11423531174659729,1.1046992540359497,-0.19964972138404846
1761336092739844400,4.28384423828125,-0.06646225601434708,1.3938710689544678,-0.08686090260744095
1761336092749911300,4.293911376953125,0.15384668111801147,1.8514498472213745,-0.11419478803873062
1761336092759977200,4.303977294921875,0.2959623336791992,3.547340154647827,-0.6631273627281189
1761336092770044400,4.31404443359375,0.22863948345184326,3.942373275756836,-0.762648344039917
1761336092780111400,4.324111328125,0.2225998044013977,3.9054787158966064,-0.39439845085144043
1761336092790177300,4.33417724609375,0.14792023599147797,4.098208904266357,0.03191743791103363
1761336092800244200,4.344244140625,-0.04989073425531387,4.240889072418213,0.3547292649745941
1761336092810310400,4.354310302734375,-0.2558084726333618,4.092427730560303,0.5413910150527954
1761336092820377300,4.36437744140625,-0.4074072539806366,3.9201979637145996,0.6179519295692444
1761336092830443300,4.374443359375,-0.5451030731201172,3.691171407699585,0.6224039196968079
1761336092840510500,4.384510498046875,-0.7216552495956421,3.297297954559326,0.57801753282547
1761336092850576400,4.394576416015625,-0.926238477230072,2.7913196086883545,0.5270345211029053
1761336092860643300,4.404643310546875,-1.1446566581726074,2.318598508834839,0.48810720443725586
1761336092870709200,4.414709228515625,-1.355108380317688,1.8376961946487427,0.4200815260410309
1761336092880776200,4.424776123046875,-1.5328748226165771,1.2408387660980225,0.2782895267009735
1761336092890842000,4.434842041015625,-1.6187340021133423,0.5582517385482788,0.046805985271930695
1761336092900909300,4.444909423828125,-1.5825202465057373,-0.09057462215423584,-0.23246555030345917
1761336092910975200,4.454975341796875,-1.4260859489440918,-0.6916391849517822,-0.5273041725158691
1761336092921042200,4.465042236328125,-1.180064082145691,-1.229786992073059,-0.7921327352523804
1761336092931108400,4.4751083984375,-0.879563570022583,-1.7721143960952759,-0.9726055860519409
1761336092941175300,4.48517529296875,-0.5480688810348511,-2.382256507873535,-1.0770263671875
1761336092951241200,4.4952412109375,-0.17731399834156036,-2.6462533473968506,-1.065887451171875
1761336092961308200,4.50530810546875,0.23015892505645752,-2.7891063690185547,-0.8386310338973999
1761336092971374300,4.515374267578125,0.7062743902206421,-2.66243052482605,-0.36776497960090637
1761336092981441300,4.525441162109375,0.9328550100326538,-2.5042243003845215,0.37823423743247986
1761336092991507200,4.535507080078125,0.9944586753845215,-1.7685167789459229,1.1234618425369263
1761336093001574400,4.545574462890625,0.9945713877677917,-1.5036180019378662,1.6949859857559204
1761336093011640300,4.555640380859375,1.116092562675476,-1.3413848876953125,2.0380444526672363
1761336093021707300,4.565707275390625,1.2182096242904663,-1.0770453214645386,2.285613775253296
1761336093031773400,4.5757734375,1.1909189224243164,-0.9624356627464294,2.4275307655334473
1761336093041840400,4.58584033203125,1.1285688877105713,-1.071185827255249,2.4665567874908447
1761336093051906300,4.59590625,1.1284600496292114,-1.0097975730895996,2.3422605991363525
1761336093061973200,4.60597314453125,1.26301109790802,-1.0091066360473633,2.218391180038452
1761336093072039400,4.616039306640625,1.3957207202911377,-0.8144346475601196,2.03307843208313
1761336093082106400,4.6261064453125,1.4943050146102905,-0.7304627299308777,1.7851238250732422
1761336093092172300,4.63617236328125,1.5184390544891357,-0.7673134207725525,1.473259687423706
1761336093102239500,4.646239501953125,1.5011757612228394,-1.5739904642105103,1.140481948852539
1761336093112305400,4.656305419921875,1.5049721002578735,-2.185558795928955,0.93854159116745
1761336093122372400,4.666372314453125,1.4904588460922241,-2.675107955932617,0.9160394072532654
1761336093132438300,4.676438232421875,1.4545340538024902,-2.4927942752838135,0.7202038168907166
1761336093142505200,4.686505126953125,1.3615996837615967,-2.1436848640441895,0.3598637580871582
1761336093152571100,4.696571044921875,1.2870937585830688,-1.8105485439300537,0.05321487784385681
1761336093162638000,4.70663818359375,1.2596337795257568,-1.3321315050125122,-0.3378830850124359
1761336093172704300,4.716704345703125,1.2525620460510254,-0.7342888116836548,-0.6708080768585205
1761336093182771200,4.726771240234375,1.2389963865280151,-0.1173052042722702,-0.9171794652938843
1761336093192837000,4.736837158203125,1.210394263267517,0.4337558150291443,-0.9939653277397156
1761336093202904300,4.746904296875,1.2176744937896729,0.31409963965415955,-0.8909967541694641
1761336093212970800,4.756970703125,1.1955660581588745,-0.44635453820228577,-0.7840681672096252
1761336093223037700,4.76703759765625,1.130464792251587,-1.0338972806930542,-0.744894802570343
1761336093233104000,4.777103759765625,1.0762993097305298,-1.1083650588989258,-0.5277196168899536
1761336093243170800,4.7871708984375,1.032837986946106,-1.0303058624267578,-0.1973598152399063
1761336093253237800,4.79723779296875,0.9810888171195984,-0.9721253514289856,0.06179718300700188
1761336093263303700,4.8073037109375,0.9218445420265198,-0.7407174706459045,0.18796400725841522
1761336093273370600,4.81737060546875,0.8687413334846497,-0.2796803116798401,0.18827906250953674
1761336093283436800,4.827436767578125,0.8287710547447205,0.4146237373352051,0.05478163808584213
1761336093293503700,4.837503662109375,0.7373412847518921,1.2548604011535645,-0.17928065359592438
1761336093303569700,4.847569580078125,0.5561308860778809,1.792150616645813,-0.3808826506137848
1761336093313636600,4.85763671875,0.35834750533103943,1.9576910734176636,-0.40485402941703796
1761336093323702500,4.86770263671875,0.16429053246974945,1.799767017364502,-0.2584491968154907
1761336093333769500,4.87776953125,-0.02236616611480713,1.3698641061782837,-0.0034088888205587864
1761336093343835600,4.887835693359375,-0.19193363189697266,0.7815637588500977,0.2722064256668091
1761336093353902600,4.897902587890625,-0.2990227937698364,0.32545799016952515,0.4905747175216675
1761336093363968500,4.907968505859375,-0.2961975634098053,-0.00234170351177454,0.5736035704612732
1761336093374035700,4.91803564453125,-0.22881025075912476,-0.2932339906692505,0.47893887758255005
1761336093384101600,4.9281015625,-0.17212991416454315,-0.4754665493965149,0.2778046131134033
1761336093394168600,4.93816845703125,-0.108501136302948,-0.5027868747711182,0.03752065449953079
1761336093404234800,4.94823486328125,-0.06266830861568451,-0.3764701783657074,-0.22092196345329285
1761336093414301700,4.9583017578125,-0.04109910875558853,-0.22879338264465332,-0.4927297532558441
1761336093424367600,4.96836767578125,-0.018962332978844643,-0.08805713057518005,-0.7389618754386902
1761336093434434600,4.9784345703125,0.03809110075235367,0.02880849689245224,-0.890663743019104
1761336093444500700,4.988500732421875,0.14224474132061005,0.08406595885753632,-0.9053617715835571
1761336093454567700,4.998567626953125,0.2699427902698517,0.05605030804872513,-0.7987847328186035
1761336093464633600,5.008633544921875,0.3728846609592438,-0.04650426656007767,-0.5819585919380188
1761336093474700800,5.01870068359375,0.4506596326828003,-0.08589880913496017,-0.2723970115184784
1761336093484766700,5.0287666015625,0.47005343437194824,-0.1524394005537033,0.014380012638866901
1761336093494833700,5.038833740234375,0.4179726839065552,-0.266798198223114,0.19027699530124664
1761336093504899800,5.04889990234375,0.3411339521408081,-0.4698336124420166,0.26868170499801636
1761336093514966800,5.058966796875,0.2809355854988098,-0.3264751136302948,0.23664946854114532
1761336093525032700,5.06903271484375,0.08241945505142212,-0.004322167485952377,0.050000786781311035
1761336093535099600,5.079099609375,-0.2654053568840027,0.15975092351436615,-0.19933021068572998
1761336093545165800,5.089165771484375,-0.6356216073036194,0.3501896858215332,-0.3495958745479584
1761336093555232800,5.099232666015625,-0.791886568069458,0.48555123805999756,-0.42540407180786133
1761336093565298400,5.10929833984375,-0.7354902625083923,0.4500543773174286,-0.5209857821464539
1761336093575365600,5.11936572265625,-0.5717090368270874,0.28961679339408875,-0.5564780235290527
1761336093585431600,5.129431640625,-0.35449710488319397,0.21789993345737457,-0.49926865100860596
1761336093595498500,5.13949853515625,-0.20562054216861725,0.06885212659835815,-0.28578993678092957
1761336093605564700,5.149564697265625,-0.15559022128582,0.011854895390570164,-0.06914756447076797
1761336093615631600,5.159631591796875,-0.043507613241672516,-0.04541052505373955,0.01746535673737526
1761336093625697500,5.169697509765625,0.01438208669424057,-0.1495613008737564,0.0024183494970202446
1761336093635764500,5.179764404296875,0.025183068588376045,-0.20829039812088013,-0.01009184867143631
1761336093645830700,5.18983056640625,0.013126173987984657,-0.21287809312343597,-0.03705276548862457
1761336093655897600,5.199897705078125,-0.0464833602309227,-0.23938746750354767,-0.0629112645983696
1761336093665963800,5.2099638671875,-0.0689789205789566,-0.22995364665985107,-0.08434535562992096
1761336093676030700,5.22003076171875,-0.05732705444097519,-0.1975187510251999,-0.08520342409610748
1761336093686096600,5.2300966796875,-0.026726387441158295,-0.18368059396743774,-0.11247976124286652
1761336093696163600,5.24016357421875,-0.006168649066239595,-0.20354005694389343,-0.14871685206890106
1761336093706230500,5.25023046875,-0.012789038941264153,-0.2210693061351776,-0.1071484312415123
1761336093716296700,5.260296630859375,-0.03407169133424759,-0.21098017692565918,-0.00020226975902915
1761336093726363600,5.27036376953125,-0.05775752663612366,-0.22385846078395844,0.08723148703575134
1761336093736429600,5.2804296875,-0.1377125382423401,-0.23746135830879211,0.09916111826896667
1761336093746496800,5.290496826171875,-0.12710459530353546,-0.20753902196884155,0.08185628056526184
1761336093756562700,5.300562744140625,-0.08781738579273224,-0.10264242440462112,0.034591831266880035
1761336093766629600,5.310629638671875,-0.09175228327512741,-0.04763170704245567,-0.0581950768828392
1761336093776695800,5.32069580078125,-0.12721173465251923,0.014544048346579075,-0.10560865700244904
1761336093786762800,5.3307626953125,-0.16075201332569122,0.06843478232622147,-0.12465142458677292
1761336093796828700,5.34082861328125,-0.1595514565706253,0.07563997060060501,-0.12438111007213593
1761336093806895600,5.3508955078125,-0.129872128367424,0.08083979040384293,-0.0831575095653534
1761336093816961800,5.3609619140625,-0.1431833952665329,0.09708879888057709,-0.07237463444471359
1761336093827028700,5.37102880859375,-0.1477774977684021,0.08141662925481796,-0.07723154127597809
1761336093837094700,5.3810947265625,-0.1258314549922943,0.07149529457092285,-0.057303644716739655
1761336093847161900,5.391161865234375,-0.13860400021076202,0.060678571462631226,-0.050422489643096924
1761336093857227500,5.4012275390625,-0.14934132993221283,0.050218477845191956,-0.04090888053178787
1761336093867294500,5.41129443359375,-0.1645234376192093,0.06402629613876343,-0.04151622951030731
1761336093877360600,5.421360595703125,-0.18342842161655426,0.09188508987426758,-0.05861026421189308
1761336093887427600,5.431427490234375,-0.17235495150089264,0.12154452502727509,-0.06402266770601273
1761336093897493500,5.441493408203125,-0.17549055814743042,0.13127891719341278,-0.06598781794309616
1761336093907560700,5.451560791015625,-0.1740667074918747,0.13258272409439087,-0.07161837071180344
1761336093917626600,5.461626708984375,-0.15382030606269836,0.13008175790309906,-0.06677541881799698
1761336093927693600,5.471693603515625,-0.12743371725082397,0.1261223405599594,-0.05998168885707855
1761336093937759700,5.481759765625,-0.10939107090234756,0.11045736074447632,-0.05454244837164879
1761336093947826700,5.49182666015625,-0.09775257855653763,0.11320924758911133,-0.04762280732393265
1761336093957892600,5.501892578125,-0.08475741744041443,0.11890840530395508,-0.04268930107355118
1761336093967959600,5.51195947265625,-0.07466499507427216,0.1211877092719078,-0.041588447988033295
1761336093978025700,5.522025634765625,-0.05982746183872223,0.11292525380849838,-0.03663816303014755
1761336093988092700,5.5320927734375,-0.05298701301217079,0.09704256802797318,-0.03734073042869568
1761336093998158600,5.54215869140625,-0.04071703180670738,0.07688137888908386,-0.03772076219320297
1761336094008225800,5.552225830078125,-0.029863595962524414,0.051405228674411774,-0.04471209645271301
1761336094018291700,5.562291748046875,-0.0263436958193779,0.01949550397694111,-0.0420990027487278
1761336094028358700,5.572358642578125,-0.024035155773162842,0.004997839219868183,-0.009445472620427608
1761336094038424800,5.5824248046875,-0.028157994151115417,-0.01174865011125803,0.011473392136394978
1761336094048491800,5.59249169921875,-0.02666042000055313,-0.02499566785991192,0.018768295645713806
1761336094058557700,5.6025576171875,-0.02840292826294899,-0.0348120778799057,-0.0020991703495383263
1761336094068624600,5.612624755859375,-0.03254464268684387,-0.03746892511844635,-0.02043377421796322
1761336094078690800,5.62269091796875,-0.0422193743288517,-0.04309245944023132,-0.03799812123179436
1761336094088757800,5.6327578125,-0.05688194930553436,-0.054378483444452286,-0.04854930192232132
1761336094098823400,5.642823486328125,-0.06270575523376465,-0.061177533119916916,-0.029686663299798965
1761336094108891000,5.652890869140625,-0.06158630549907684,-0.0489700585603714,0.0002634171396493912
1761336094118956500,5.66295654296875,-0.06090133637189865,-0.03457620367407799,0.027774933725595474
1761336094129023500,5.6730234375,-0.0611148476600647,-0.021575845777988434,0.023336827754974365
1761336094139089700,5.683089599609375,-0.06037342548370361,-0.011472612619400024,-0.009830714203417301
1761336094149156600,5.693156494140625,-0.05028373748064041,-0.007639667484909296,-0.03860391676425934
1761336094159222500,5.703222412109375,-0.05232318490743637,-0.017419327050447464,-0.05441723391413689
1761336094169289500,5.71328955078125,-0.047345805913209915,-0.028521237894892693,-0.04714251682162285
1761336094179355600,5.723355712890625,-0.03796721622347832,-0.04103995859622955,-0.02163129858672619
1761336094189422600,5.733422607421875,-0.02911880984902382,-0.05100766569375992,0.006636071018874645
1761336094199488500,5.743488525390625,-0.022645197808742523,-0.05298266559839249,0.01208010409027338
1761336094209555200,5.75355517578125,-0.010296962223947048,-0.053447332233190536,0.003878512419760227
1761336094219622100,5.7636220703125,0.00041134143248200417,-0.05171894282102585,-0.005603672005236149
1761336094229688000,5.77368798828125,0.01288545597344637,-0.0506378635764122,-0.01761389896273613
1761336094239755300,5.78375537109375,0.028005018830299377,-0.04869481921195984,-0.02249573916196823
1761336094249821200,5.7938212890625,0.036625828593969345,-0.0532674640417099,-0.021614138036966324
1761336094259888000,5.80388818359375,0.03688601776957512,-0.05740601569414139,0.006716038100421429
1761336094269954300,5.813954345703125,0.037465900182724,-0.05201764404773712,0.04268672317266464
1761336094280021200,5.824021240234375,0.031958214938640594,-0.0370195209980011,0.04846259206533432
1761336094290087200,5.834087158203125,0.015267310664057732,-0.005843631457537413,0.02998073771595955
1761336094300154000,5.844154052734375,-0.0027891877107322216,0.02382957562804222,-0.008853210136294365
1761336094310220300,5.85422021484375,-0.01185908168554306,0.047266650944948196,-0.029793720692396164
1761336094320287200,5.864287353515625,-0.01528497226536274,0.07038262486457825,-0.017031587660312653
1761336094330353200,5.874353271484375,-0.021379541605710983,0.08372839540243149,0.00010217539966106415
1761336094340420400,5.88442041015625,-0.03206680715084076,0.09453390538692474,-0.004661687184125185
1761336094350486300,5.894486328125,-0.03723830729722977,0.10293127596378326,-0.01857779175043106
1761336094360553200,5.90455322265625,-0.03208030015230179,0.09639108180999756,-0.02682267129421234
1761336094370619400,5.914619384765625,-0.02721775509417057,0.09453430026769638,-0.014727490022778511
1761336094380686300,5.924686279296875,-0.018034910783171654,0.09600409865379333,0.009808478876948357
1761336094390752300,5.934752197265625,-0.01643427275121212,0.09218893200159073,0.007788711227476597
1761336094400819200,5.944819091796875,-0.014277378097176552,0.08719950169324875,-0.015172264538705349
1761336094410885000,5.954885009765625,-0.013336794450879097,0.06316159665584564,-0.04092249274253845
1761336094420952000,5.9649521484375,-0.008454953320324421,0.008584104478359222,-0.050318390130996704
1761336094431018200,5.975018310546875,-0.002185617573559284,-0.0376444011926651,-0.023463264107704163
1761336094441085200,5.985085205078125,-0.005031205713748932,-0.07778250426054001,0.012978899292647839
1761336094451151000,5.995151123046875,-0.014652794227004051,-0.10869927704334259,0.024373792111873627
1761336094461218000,6.005218017578125,-0.03643558546900749,-0.12481006979942322,0.02121075615286827
1761336094471284200,6.0152841796875,-0.05884460359811783,-0.127180278301239,0.017427828162908554
1761336094481351200,6.02535107421875,-0.07781855762004852,-0.11529912054538727,0.011017601005733013
1761336094491417000,6.0354169921875,-0.09087494760751724,-0.10430814325809479,0.004397441633045673
1761336094501484000,6.045484130859375,-0.09702631831169128,-0.09266134351491928,-0.005152121186256409
1761336094511550200,6.05555029296875,-0.10422652214765549,-0.08106628060340881,-0.015822581946849823
1761336094521617200,6.0656171875,-0.10470828413963318,-0.05809066444635391,-0.023955343291163445
1761336094531683300,6.075683349609375,-0.09616909176111221,-0.036038223654031754,-0.039903827011585236
1761336094541750300,6.085750244140625,-0.0790681391954422,-0.023106979206204414,-0.0654320940375328
1761336094551816200,6.095816162109375,-0.053597837686538696,-0.03125636279582977,-0.08563751727342606
1761336094561883100,6.105883056640625,-0.028079697862267494,-0.03610944002866745,-0.07137895375490189
1761336094571949300,6.11594921875,-0.003059800248593092,-0.036808811128139496,-0.030127916485071182
1761336094582016300,6.126016357421875,0.008274346590042114,-0.049510225653648376,0.0036454927176237106
1761336094592082200,6.136082275390625,0.01547008566558361,-0.061620235443115234,0.026706436648964882
1761336094602149400,6.1461494140625,0.008397528901696205,-0.05859062075614929,0.023707984015345573
1761336094612215300,6.15621533203125,0.00032878341153264046,-0.05225663259625435,0.0076250480487942696
1761336094622282200,6.1662822265625,0.002052115276455879,-0.04394570738077164,-0.0093379570171237
1761336094632348400,6.176348388671875,0.001262177713215351,-0.037355393171310425,-0.005377423949539661
1761336094642415400,6.186415283203125,0.00004511326551437378,-0.022784175351262093,0.001152646727859974
1761336094652481300,6.196481201171875,-0.004093048628419638,-0.010414309799671173,-0.0031676990911364555
1761336094662548200,6.20654833984375,-0.002188089769333601,0.005463189445436001,-0.017276592552661896
1761336094672615200,6.216615234375,0.004047112073749304,0.013369088061153889,-0.0342274010181427
1761336094682681000,6.22668115234375,0.0012095137499272823,0.02181956171989441,-0.05037068575620651
1761336094692748300,6.236748291015625,-0.0019828169606626034,0.019634440541267395,-0.05900678411126137
1761336094702814200,6.246814208984375,-0.005091258790344,0.017462100833654404,-0.05177603289484978
1761336094712881200,6.256881103515625,-0.008940714411437511,0.010048044845461845,-0.04124659299850464
1761336094722947000,6.266947021484375,-0.012485381215810776,-0.0007542688399553299,-0.01839454472064972
1761336094733014000,6.277013916015625,-0.017389601096510887,-0.012065066024661064,0.011177996173501015
1761336094743080200,6.287080078125,-0.021964913234114647,-0.019551211968064308,0.025793692097067833
1761336094753147100,6.297147216796875,-0.020341062918305397,-0.02152959257364273,0.010450591333210468
1761336094763213000,6.307213134765625,-0.024044986814260483,-0.014570221304893494,0.004125317558646202
1761336094773280300,6.3172802734375,-0.02715623751282692,-0.002275656908750534,0.009623315185308456
1761336094783346200,6.32734619140625,-0.03106868639588356,0.010541072115302086,0.012798069044947624
1761336094793413000,6.3374130859375,-0.027854962274432182,0.024060826748609543,0.004301568493247032
1761336094803479300,6.347479248046875,-0.023638645187020302,0.03626822680234909,-0.01658293977379799
1761336094813546200,6.357546142578125,-0.019595244899392128,0.037524573504924774,-0.03951200842857361
1761336094823612200,6.367612060546875,-0.008585470728576183,0.02568921633064747,-0.05384087935090065
1761336094833679000,6.37767919921875,0.0013022245839238167,0.01492509339004755,-0.04492086172103882
1761336094843745300,6.387745361328125,0.009890919551253319,0.0011251242831349373,-0.009688838385045528
1761336094853812200,6.397812255859375,0.0018228059634566307,-0.013156662695109844,0.01963651180267334
1761336094863878100,6.407878173828125,-0.002022532280534506,-0.015424078330397606,0.01878856122493744
1761336094873945300,6.4179453125,-0.006154715083539486,-0.007566263433545828,0.009491274133324623
1761336094884011300,6.42801123046875,-0.0017128288745880127,-0.0008753370493650436,-0.0014825472608208656
1761336094894078200,6.438078125,-0.007030429318547249,0.008204339072108269,-0.0063615827821195126
1761336094904144400,6.448144287109375,-0.00715506449341774,0.012566329911351204,-0.016318608075380325
1761336094914211300,6.45821142578125,-0.010333292186260223,0.004651923663914204,-0.021391592919826508
1761336094924277200,6.46827734375,-0.014198072254657745,-0.000007810071110725403,-0.01923922449350357
1761336094934344200,6.47834423828125,-0.01599694788455963,-0.0005466761067509651,-0.010387435555458069
1761336094944410000,6.48841015625,-0.023484427481889725,0.0016171429306268692,0.0008606910705566406
1761336094954477300,6.498477294921875,-0.03218782693147659,0.009902103804051876,0.010849992744624615
1761336094964543200,6.508543212890625,-0.038332805037498474,0.020464465022087097,0.012182903476059437
1761336094974610200,6.518610107421875,-0.03902343660593033,0.024384241551160812,-0.00004664761945605278
1761336094984676000,6.528676025390625,-0.03762847185134888,0.0308045893907547,-0.01796998828649521
1761336094994743000,6.538742919921875,-0.032082997262477875,0.031176261603832245,-0.03483518213033676
1761336095004809200,6.548809326171875,-0.0248919278383255,0.03816945478320122,-0.04252585768699646
1761336095014876200,6.558876220703125,-0.017469998449087143,0.0391615591943264,-0.043089576065540314
1761336095024942000,6.568942138671875,-0.0076274867169559,0.03343789279460907,-0.042087163776159286
1761336095035009000,6.579009033203125,0.003406277857720852,0.015877116471529007,-0.024268291890621185
1761336095045075200,6.5890751953125,0.010067909024655819,-0.00408061221241951,-0.004775550216436386
1761336095055142100,6.59914208984375,0.01793971285223961,-0.020788829773664474,0.0020577823743224144
1761336095065208300,6.609208251953125,0.01291965413838625,-0.032898224890232086,-0.007401499897241592
1761336095075275300,6.619275146484375,0.004510623402893543,-0.03713954612612724,-0.01918303407728672
1761336095085341200,6.629341064453125,0.002320972504094243,-0.03461966663599014,-0.026379961520433426
1761336095095408000,6.639408203125,0.003923107869923115,-0.03318028524518013,-0.0261387899518013
1761336095105474300,6.649474365234375,-0.00023541785776615143,-0.028826016932725906,-0.022802114486694336
1761336095115541200,6.659541259765625,-0.0022658901289105415,-0.021435342729091644,0.0000845068134367466
1761336095125607200,6.669607177734375,-0.010527015663683414,-0.009570160880684853,0.012531323358416557
1761336095135674000,6.679674072265625,-0.019023697823286057,-0.01072000339627266,0.0105798514559865
1761336095145741300,6.6897412109375,-0.01633257418870926,-0.010043559595942497,-0.0009718765504658222
1761336095155807200,6.69980712890625,-0.01397760771214962,-0.01239758264273405,0.0025652870535850525
1761336095165874200,6.709874267578125,-0.005487183108925819,-0.009635885246098042,0.0035959305241703987
1761336095175940400,6.7199404296875,-0.00735792052000761,0.001362810842692852,0.0006931787356734276
1761336095186007300,6.73000732421875,-0.008726253174245358,0.008566395379602909,-0.015101497992873192
1761336095196073200,6.7400732421875,-0.008388306945562363,0.011682477779686451,-0.03174572065472603
1761336095206140200,6.75014013671875,-0.010337209329009056,0.006158015690743923,-0.04922617971897125
1761336095216205800,6.760205810546875,-0.010613634251058102,-0.01420469768345356,-0.05517221987247467
1761336095226272800,6.770272705078125,-0.016276314854621887,-0.03146810457110405,-0.037624116986989975
1761336095236339000,6.7803388671875,-0.02160058356821537,-0.03974108397960663,-0.014914058148860931
1761336095246406000,6.790406005859375,-0.029808713123202324,-0.0473494678735733,0.0009413370862603188
1761336095256471800,6.800471923828125,-0.04276203736662865,-0.06041589751839638,-0.00604873476549983
1761336095266538800,6.810538818359375,-0.05317340046167374,-0.06669696420431137,-0.019563212990760803
1761336095276605000,6.82060498046875,-0.04869433119893074,-0.06272589415311813,-0.0254993736743927
1761336095286672000,6.830671875,-0.04458587244153023,-0.05479952692985535,-0.020545627921819687
1761336095296737800,6.84073779296875,-0.03595675155520439,-0.04603397101163864,-0.0052138566970825195
1761336095306805000,6.850804931640625,-0.03047649934887886,-0.03952866792678833,0.008278782479465008
1761336095316870700,6.86087060546875,-0.019923843443393707,-0.026678258553147316,0.013245335780084133
1761336095326937600,6.8709375,-0.01310908142477274,-0.014215463772416115,-0.0027583972550928593
1761336095337003800,6.881003662109375,-0.0037142159417271614,-0.009604807011783123,-0.022715669125318527
1761336095347070700,6.89107080078125,0.011933719739317894,-0.010937186889350414,-0.03127959370613098
1761336095357136600,6.90113671875,0.018742799758911133,-0.012436170130968094,-0.03072430193424225
1761336095367203800,6.911203857421875,0.02130715921521187,-0.010874759405851364,-0.020293764770030975
1761336095377269800,6.921269775390625,0.023016229271888733,-0.013451289385557175,-0.016505248844623566
1761336095387336700,6.931336669921875,0.02932446077466011,-0.015010569244623184,-0.021188419312238693
1761336095397403000,6.94140283203125,0.029349517077207565,-0.01767357625067234,-0.027860693633556366
1761336095407469800,6.9514697265625,0.027705280110239983,-0.010779717937111855,-0.03154490888118744
1761336095417535700,6.96153564453125,0.020442740991711617,-0.013840775936841965,-0.035286709666252136
1761336095427602700,6.971602783203125,0.00851444248110056,-0.020986836403608322,-0.03211648017168045
1761336095437668900,6.9816689453125,0.004052315838634968,-0.02783302590250969,-0.026675377041101456
1761336095447735800,6.99173583984375,-0.005598713643848896,-0.03708591312170029,-0.009351513348519802
1761336095457801700,7.0018017578125,-0.013324842788279057,-0.042106956243515015,0.007036853581666946
1761336095467869000,7.011868896484375,-0.02029407024383545,-0.043256647884845734,0.023439794778823853
1761336095477934800,7.021934814453125,-0.028898242861032486,-0.03523213788866997,0.024789365008473396
1761336095488001800,7.032001708984375,-0.04083133488893509,-0.030146300792694092,0.01283629797399044
1761336095498068000,7.04206787109375,-0.05994900315999985,-0.019437488168478012,0.0008603045716881752
1761336095508135000,7.052135009765625,-0.06972333788871765,-0.013717283494770527,-0.001704319380223751
1761336095518200800,7.062200927734375,-0.058009855449199677,-0.005987485870718956,0.02432858943939209
1761336095528267800,7.072267822265625,-0.06883107870817184,-0.019587183371186256,0.04092594236135483
1761336095538334000,7.082333984375,-0.08396489918231964,-0.027164064347743988,0.04812037572264671
1761336095548401000,7.09240087890625,-0.08350178599357605,-0.010978968814015388,0.059914447367191315
1761336095558466600,7.102466552734375,-0.07166694849729538,-0.004600140266120434,0.05072779953479767
1761336095568534000,7.112533935546875,-0.05928191542625427,0.010949257761240005,0.03162708133459091
1761336095578599700,7.122599609375,-0.052425507456064224,0.0165724977850914,0.0067323558032512665
1761336095588666600,7.13266650390625,-0.036433491855859756,0.02144661545753479,-0.005934703163802624
1761336095598732800,7.14273291015625,-0.010663590393960476,0.033499762415885925,0.002069479785859585
1761336095608799700,7.1527998046875,0.011639583855867386,0.011909513734281063,-0.0023620198480784893
1761336095618865700,7.16286572265625,0.014024611562490463,-0.0326017327606678,-0.01466260477900505
1761336095628932600,7.1729326171875,0.024915343150496483,-0.04754126816987991,0.0021616490557789803
1761336095638999800,7.182999755859375,0.036727480590343475,-0.054427620023489,0.01928672008216381
1761336095649065700,7.193065673828125,0.061454933136701584,-0.04924856871366501,0.03171222656965256
1761336095659132700,7.203132568359375,0.06447692215442657,-0.07906407117843628,0.0020929845049977303
1761336095669198800,7.21319873046875,0.06615258008241653,-0.08905065804719925,-0.023617174476385117
1761336095679265800,7.223265869140625,0.07276491075754166,-0.0920146182179451,-0.02783067896962166
1761336095689331700,7.233331787109375,0.0688982680439949,-0.10353172570466995,-0.03408830612897873
1761336095699398700,7.243398681640625,0.06461701542139053,-0.10835103690624237,-0.03456542640924454
1761336095709464800,7.25346484375,0.05604749545454979,-0.08647263795137405,-0.01381807029247284
1761336095719531800,7.26353173828125,0.03437468037009239,-0.08195386081933975,-0.0006119883619248867
1761336095729597700,7.27359765625,0.009201149456202984,-0.08288836479187012,0.007525300607085228
1761336095739665000,7.283664794921875,-0.015343517996370792,-0.048606403172016144,0.03040183149278164
1761336095749730800,7.293730712890625,-0.03688769415020943,-0.01133573055267334,0.03523413836956024
1761336095759797800,7.3037978515625,-0.04693359136581421,0.023007195442914963,0.02871689572930336
1761336095769864000,7.313864013671875,-0.05114351958036423,0.04719402641057968,0.0055125076323747635
1761336095779931000,7.323930908203125,-0.04867897182703018,0.055227749049663544,-0.025230634957551956
1761336095789996800,7.333996826171875,-0.037815939635038376,0.05754736065864563,-0.0379411056637764
1761336095800063700,7.344063720703125,-0.033393293619155884,0.08283615112304688,0.003529590554535389
1761336095810130000,7.3541298828125,-0.0383148156106472,0.06798529624938965,0.02955400012433529
1761336095820196900,7.36419677734375,-0.040112584829330444,0.044720619916915894,0.019071973860263824
1761336095830262800,7.3742626953125,-0.04207373410463333,0.034615784883499146,0.002049580216407776
1761336095840330000,7.384330078125,-0.049702491611242294,0.023041795939207077,-0.0024526678025722504
1761336095850395600,7.394395751953125,-0.03841415047645569,0.012501537799835205,0.0000701448880136013
1761336095860462600,7.404462646484375,-0.02844509482383728,0.006314159370958805,0.014347472228109837
1761336095870528800,7.41452880859375,-0.0194191113114357,0.0012522898614406586,0.021593399345874786
1761336095880595700,7.424595703125,-0.01616094261407852,-0.0010367296636104584,0.0298742838203907
1761336095890661600,7.43466162109375,-0.019307466223835945,0.013370439410209656,0.03215022385120392
1761336095900728600,7.444728515625,-0.028606995940208435,0.017969325184822083,0.013301041908562183
1761336095910794800,7.454794677734375,-0.03357112780213356,0.010552155785262585,-0.014681855216622353
1761336095920861700,7.46486181640625,-0.04477716237306595,-0.018356969580054283,-0.034363485872745514
1761336095930927900,7.474927978515625,-0.0635114386677742,-0.02296583727002144,-0.01893339678645134
1761336095940994800,7.484994873046875,-0.07962595671415329,-0.030015697702765465,0.0067091891542077065
1761336095951060700,7.495060791015625,-0.08721064031124115,-0.03545493632555008,0.026120971888303757
1761336095961127700,7.505127685546875,-0.10755927115678787,-0.02728518843650818,0.03209741413593292
1761336095971193900,7.51519384765625,-0.12236297875642776,-0.02276819944381714,0.02950242906808853
1761336095981260800,7.5252607421875,-0.1247904822230339,-0.022594692185521126,0.01848588138818741
1761336095991326700,7.53532666015625,-0.12344398349523544,-0.026629913598299026,0.0033492716029286385
1761336096001394000,7.545393798828125,-0.1218651682138443,-0.03446679934859276,0.006661079823970795
1761336096011459800,7.5554599609375,-0.12260951101779938,-0.051962703466415405,0.012225222773849964
1761336096021526800,7.56552685546875,-0.10451890528202057,-0.07287586480379105,0.030188439413905144
1761336096031593000,7.575593017578125,-0.08578303456306458,-0.08511096239089966,0.04299131780862808
1761336096041660000,7.585659912109375,-0.06799730658531189,-0.07686895877122879,0.05642542243003845
1761336096051725800,7.595725830078125,-0.06835123896598816,-0.06231052428483963,0.05590956658124924
1761336096061792800,7.605792724609375,-0.060586344450712204,-0.056141383945941925,0.019503377377986908
1761336096071859700,7.615859619140625,-0.050174981355667114,-0.08050505071878433,-0.03534309193491936
1761336096081926000,7.62592578125,-0.04048345983028412,-0.07787967473268509,-0.0799817368388176
1761336096091992800,7.635992919921875,-0.01853235438466072,-0.08840875327587128,-0.1061510220170021
1761336096102059000,7.64605908203125,-0.001845065038651228,-0.10378091782331467,-0.1274116188287735
1761336096112126000,7.6561259765625,0.0005227518267929554,-0.09892304986715317,-0.14242865145206451
1761336096122191600,7.666191650390625,0.014517262578010559,-0.09676359593868256,-0.14827997982501984
1761336096132258800,7.6762587890625,0.008726485073566437,-0.11983589082956314,-0.14209851622581482
1761336096142324700,7.68632470703125,0.004996362142264843,-0.13260012865066528,-0.0991225317120552
1761336096152391700,7.6963916015625,0.004652548115700483,-0.13108985126018524,-0.02587229013442993
1761336096162457600,7.70645751953125,-0.0036358870565891266,-0.0982213094830513,0.0448923297226429
1761336096172524800,7.71652490234375,-0.02863151580095291,-0.0825376883149147,0.07015161961317062
1761336096182590700,7.7265908203125,-0.03821064159274101,-0.07109221816062927,0.04646173119544983
1761336096192657700,7.73665771484375,-0.047666195780038834,-0.07066956907510757,-0.0011673062108457088
1761336096202723800,7.746723876953125,-0.04881756007671356,-0.09359872341156006,-0.027977129444479942
1761336096212791300,7.756791259765625,-0.05433882027864456,-0.11142059415578842,-0.013786742463707924
1761336096222857200,7.766857177734375,-0.05883096531033516,-0.11138904094696045,0.02690400928258896
1761336096232924200,7.776924072265625,-0.060782525688409805,-0.0956185981631279,0.07520656287670135
1761336096242990300,7.786990234375,-0.09400493651628494,-0.05273086577653885,0.08654657006263733
1761336096253057300,7.797057373046875,-0.12735463678836823,0.003728148527443409,0.05142293870449066
1761336096263123200,7.807123291015625,-0.15061384439468384,0.04900183156132698,-0.02013048715889454
1761336096273190100,7.817190185546875,-0.16291871666908264,0.05409805476665497,-0.09371309727430344
1761336096283256000,7.827256103515625,-0.16004975140094757,0.029269438236951828,-0.1416873335838318
1761336096293323000,7.837322998046875,-0.16020260751247406,-0.007930127903819084,-0.1502123773097992
1761336096303389200,7.84738916015625,-0.16704246401786804,-0.005800345446914434,-0.1239398792386055
1761336096313456000,7.8574560546875,-0.16896499693393707,0.0006277263164520264,-0.07813750207424164
1761336096323522000,7.86752197265625,-0.19832484424114227,0.01990131475031376,-0.03350343182682991
1761336096333589000,7.877589111328125,-0.2249165177345276,0.031615227460861206,-0.002616886980831623
1761336096343655200,7.8876552734375,-0.24704711139202118,0.03823311999440193,0.013560681603848934
1761336096353722000,7.89772216796875,-0.2628852128982544,0.054458700120449066,0.009736382402479649
1761336096363788000,7.9077880859375,-0.2715919017791748,0.06121804937720299,0.007694338448345661
1761336096373855200,7.917855224609375,-0.2732939124107361,0.07831979542970657,0.007324958220124245
1761336096383921200,7.927921142578125,-0.27080562710762024,0.08907832950353622,0.0017461450770497322
1761336096393988000,7.937988037109375,-0.27625659108161926,0.09701934456825256,-0.006501398514956236
1761336096404054300,7.94805419921875,-0.26822564005851746,0.0985548198223114,-0.01952282339334488
1761336096414121200,7.958121337890625,-0.25843799114227295,0.06700914353132248,-0.03829038515686989
1761336096424187100,7.968187255859375,-0.23974435031414032,0.04302394390106201,-0.05420694500207901
1761336096434254000,7.978254150390625,-0.2185993790626526,0.01706744357943535,-0.06685642153024673
1761336096444320300,7.9883203125,-0.17779946327209473,-0.0138310007750988,-0.06108109652996063
1761336096454387200,7.99838720703125,-0.13728374242782593,-0.030515171587467194,-0.026131898164749146
1761336096464453000,8.008453125,-0.10649028420448303,-0.0459265410900116,0.017200566828250885
1761336096474520300,8.018520263671874,-0.08130716532468796,-0.0508805513381958,0.059261202812194824
1761336096484586200,8.028586181640625,-0.05851973220705986,-0.05111227184534073,0.06800859421491623
1761336096494653200,8.038653076171874,-0.0462324358522892,-0.056272413581609726,0.037244558334350586
1761336096504719400,8.04871923828125,-0.04094121605157852,-0.0670555830001831,-0.01971987821161747
1761336096514786300,8.058786376953124,-0.04412928223609924,-0.09216759353876114,-0.06892737001180649
1761336096524852200,8.068852294921875,-0.044942036271095276,-0.11394825577735901,-0.09244821220636368
1761336096534919200,8.078919189453124,-0.03473280742764473,-0.12817806005477905,-0.07286306470632553
1761336096544985000,8.088985107421875,-0.015743624418973923,-0.11115364730358124,-0.021669868379831314
1761336096555052000,8.099052001953124,-0.017995327711105347,-0.07537807524204254,0.02271650731563568
1761336096565118000,8.109117919921875,-0.038825057446956635,-0.0369119793176651,0.018809670582413673
1761336096575185200,8.11918505859375,-0.03618905693292618,-0.026608474552631378,-0.012041451409459114
1761336096585252000,8.129252197265625,-0.017833808436989784,-0.03012062981724739,-0.04810868203639984
1761336096595318000,8.139318115234374,-0.0044737947173416615,-0.0464458093047142,-0.06745734810829163
1761336096605385000,8.149385009765625,0.011876627802848816,-0.07701924443244934,-0.06508281081914902
1761336096615451100,8.159451171875,0.0275445356965065,-0.08765005320310593,-0.03543277084827423
1761336096625518000,8.16951806640625,0.036035794764757156,-0.09647419303655624,-0.0004486795514822006
1761336096635584000,8.179583984375,0.03791598603129387,-0.11212186515331268,0.012833570130169392
1761336096645651200,8.189651123046875,0.03510554879903793,-0.12873311340808868,0.018590975552797318
1761336096655717000,8.199717041015624,0.03492578864097595,-0.13347460329532623,0.019472215324640274
1761336096665784000,8.2097841796875,0.028064964339137077,-0.12596818804740906,0.02071850374341011
1761336096675850200,8.219850341796874,0.015316145494580269,-0.11132746934890747,0.01115136407315731
1761336096685917200,8.229917236328125,0.0011634859256446362,-0.10372856259346008,-0.009153084829449654
1761336096695983000,8.239983154296874,-0.010306481271982193,-0.10340365767478943,-0.019550863653421402
1761336096706050000,8.250050048828125,-0.029972052201628685,-0.10326535254716873,-0.023417774587869644
1761336096716116200,8.2601162109375,-0.05075855553150177,-0.10277346521615982,-0.011022621765732765
1761336096726183200,8.27018310546875,-0.07342037558555603,-0.10429956763982773,-0.0006424444727599621
1761336096736249000,8.2802490234375,-0.09509716928005219,-0.0980115756392479,0.0004124334082007408
1761336096746316300,8.29031640625,-0.10294313728809357,-0.08382795751094818,-0.0019435933791100979
1761336096756382200,8.30038232421875,-0.11361068487167358,-0.0777951031923294,-0.015079102478921413
1761336096766450200,8.3104501953125,-0.10609136521816254,-0.0817088782787323,-0.02958417683839798
1761336096776516000,8.32051611328125,-0.09819216281175613,-0.08720164746046066,-0.04070766642689705
1761336096786583300,8.330583251953126,-0.0858427956700325,-0.09282907098531723,-0.04151228070259094
1761336096796649200,8.340649169921875,-0.06455561518669128,-0.08897227793931961,-0.046520888805389404
1761336096806716200,8.350716064453126,-0.040765032172203064,-0.09242647886276245,-0.04762829840183258
1761336096816782300,8.3607822265625,-0.010374371893703938,-0.09112313389778137,-0.04305139183998108
1761336096826849300,8.370849365234376,0.009916596114635468,-0.0850885882973671,-0.017029672861099243
1761336096836915200,8.380915283203125,0.023494988679885864,-0.06293268501758575,0.030983926728367805
1761336096846982100,8.390982177734376,0.03205198049545288,-0.025221820920705795,0.05911017954349518
1761336096857048300,8.40104833984375,0.0384848453104496,-0.008453226648271084,0.05591890960931778
1761336096867115300,8.411115234375,0.043111931532621384,-0.005372481420636177,0.025443192571401596
1761336096877181000,8.421180908203125,0.03882637247443199,-0.0019585760310292244,-0.006210073828697205
1761336096887248400,8.431248291015624,0.03294544667005539,-0.010073067620396614,-0.04227176681160927
1761336096897314000,8.44131396484375,0.014468704350292683,-0.03623809292912483,-0.0702807605266571
1761336096907381000,8.451381103515626,-0.021498415619134903,-0.06991413980722427,-0.0729493722319603
1761336096917447200,8.461447265625,-0.050158292055130005,-0.0836842805147171,-0.06806699931621552
1761336096927514000,8.47151416015625,-0.05034739896655083,-0.10024871677160263,-0.050934016704559326
1761336096937580000,8.481580078125,-0.05380897596478462,-0.10329058021306992,-0.0246046744287014
1761336096947647000,8.49164697265625,-0.05508570373058319,-0.08785971254110336,-0.0026060892269015312
1761336096957713200,8.501713134765625,-0.05471073091030121,-0.07410795241594315,0.007279031910002232
1761336096967780000,8.511780029296874,-0.05045945197343826,-0.04674703627824783,0.008639424107968807
1761336096977846300,8.52184619140625,-0.04948766529560089,-0.027790388092398643,0.00019028037786483765
1761336096987913200,8.531913330078124,-0.04442540556192398,-0.01710868999361992,-0.008616965264081955
1761336096997979100,8.541979248046875,-0.037162430584430695,-0.0033686431124806404,-0.009108052588999271
1761336097008046000,8.552046142578124,-0.02645038440823555,0.020576654002070427,-0.008338733576238155
1761336097018112300,8.5621123046875,-0.010298313573002815,0.03651593625545502,-0.0038987116422504187
1761336097028179200,8.57217919921875,0.007511352188885212,0.043345626443624496,-0.0126882866024971
1761336097038246100,8.58224609375,0.01908571645617485,0.030328895896673203,-0.020157653838396072
1761336097048312000,8.59231201171875,0.016307272017002106,0.02175689861178398,-0.023724231868982315
1761336097058379300,8.602379150390625,0.012142089195549488,0.02567334473133087,-0.025547698140144348
1761336097068445200,8.612445068359374,0.005419094115495682,0.01969774067401886,-0.016563689336180687
1761336097078512000,8.62251220703125,0.008253762498497963,0.014248380437493324,-0.012110085226595402
1761336097088578300,8.632578369140624,0.008178085088729858,-0.0009047379717230797,-0.014715919271111488
1761336097098645200,8.642645263671875,0.00674237497150898,-0.024608202278614044,-0.018111716955900192
1761336097108711200,8.652711181640624,0.00421582255512476,-0.045550525188446045,-0.01894387975335121
1761336097118778000,8.662778076171875,-0.002377898432314396,-0.04394703730940819,-0.01874467544257641
1761336097128844300,8.67284423828125,-0.010724388994276524,-0.04562395066022873,-0.017234226688742638
1761336097138911200,8.6829111328125,-0.03245365247130394,-0.056118402630090714,-0.031000904738903046
1761336097148977200,8.69297705078125,-0.062389522790908813,-0.0634758472442627,-0.056265901774168015
1761336097159044400,8.70304443359375,-0.08658620715141296,-0.07063868641853333,-0.08906619250774384
1761336097169110000,8.713110107421874,-0.1184576228260994,-0.0770341232419014,-0.13507749140262604
1761336097179177000,8.723177001953125,-0.151747927069664,-0.07965760678052902,-0.1778680980205536
1761336097189243100,8.7332431640625,-0.17911767959594727,-0.0765412300825119,-0.2191464900970459
1761336097199310000,8.74331005859375,-0.1753157526254654,-0.08809535205364227,-0.2406587153673172
1761336097209376300,8.753376220703124,-0.18779030442237854,-0.05278415232896805,-0.2619764506816864
1761336097219443200,8.763443115234375,-0.18220245838165283,-0.026751220226287842,-0.2636891305446625
1761336097229509400,8.77350927734375,-0.17283597588539124,-0.02670571580529213,-0.2730211913585663
1761336097239576300,8.783576416015626,-0.18199458718299866,0.009027513675391674,-0.2763168513774872
1761336097249642500,8.793642578125,-0.1655856966972351,0.014865625649690628,-0.2809940278530121
1761336097259709400,8.80370947265625,-0.11117517203092575,0.0054902322590351105,-0.2915012538433075
1761336097269775400,8.813775390625,-0.0699121281504631,0.006707670167088509,-0.2908046245574951
1761336097279842300,8.82384228515625,-0.03589131683111191,-0.008972756564617157,-0.2733127176761627
1761336097289908500,8.833908447265625,-0.007822385057806969,-0.04432246834039688,-0.21766765415668488
1761336097299975400,8.843975341796876,0.017949823290109634,-0.056627336889505386,-0.1017002984881401
1761336097310041300,8.854041259765625,0.03627590835094452,-0.04559607058763504,0.0515008270740509
1761336097320108300,8.8641083984375,0.039445072412490845,-0.04372227191925049,0.1669624298810959
1761336097330174500,8.874174560546875,0.02375122904777527,-0.05815231427550316,0.20282885432243347
1761336097340241400,8.884241455078126,0.004575937520712614,-0.0720423012971878,0.16411395370960236
1761336097350307600,8.8943076171875,-0.02151762694120407,-0.089091956615448,0.09122852981090546
1761336097360374500,8.90437451171875,-0.04239600896835327,-0.10859747976064682,0.00519244559109211
1761336097370440400,8.9144404296875,-0.058749422430992126,-0.11433328688144684,-0.04984770342707634
1761336097380507400,8.92450732421875,-0.07574944943189621,-0.09637239575386047,-0.05894346535205841
1761336097390573600,8.934573486328125,-0.09874570369720459,-0.07746608555316925,-0.029446661472320557
1761336097400640500,8.944640625,-0.1121312826871872,-0.07240075618028641,0.0005269497632980347
1761336097410706400,8.95470654296875,-0.11927957832813263,-0.07337760180234909,0.026162102818489075
1761336097420773600,8.964773681640626,-0.1276959627866745,-0.07723546028137207,0.038013968616724014
1761336097430840600,8.974840576171875,-0.13592518866062164,-0.06537049263715744,0.0433039516210556
1761336097440906500,8.984906494140626,-0.13814891874790192,-0.04406227171421051,0.041515108197927475
1761336097450973400,8.994973388671875,-0.13236504793167114,-0.01283237338066101,0.019195422530174255
1761336097461039400,9.005039306640626,-0.1262802630662918,-0.015375426039099693,-0.018003076314926147
1761336097471106300,9.015106201171875,-0.10940207540988922,-0.026416487991809845,-0.037806857377290726
1761336097481172200,9.025172119140626,-0.08673617988824844,-0.004239281639456749,-0.023766405880451202
1761336097491239400,9.035239501953125,-0.07487739622592926,0.0073342593386769295,0.00937351118773222
1761336097501305300,9.045305419921876,-0.06741362810134888,-0.004627595655620098,0.030206620693206787
1761336097511372300,9.055372314453125,-0.06127939745783806,-0.025737915188074112,0.0324503593146801
1761336097521438500,9.0654384765625,-0.05888255313038826,-0.03083600476384163,0.03280163183808327
1761336097531505400,9.07550537109375,-0.05270247906446457,-0.03030845895409584,0.022084947675466537
1761336097541571300,9.0855712890625,-0.04489515349268913,-0.03993924707174301,0.0131681514903903
1761336097551638300,9.09563818359375,-0.04367563873529434,-0.06928805261850357,0.00790107436478138
1761336097561704400,9.105704345703124,-0.059229832142591476,-0.12512628734111786,0.0038919514045119286
1761336097571771400,9.115771484375,-0.08212484419345856,-0.16703400015830994,0.024960434064269066
1761336097581837300,9.12583740234375,-0.10514893382787704,-0.1831810176372528,0.05664939433336258
1761336097591904500,9.135904541015625,-0.12219740450382233,-0.15433181822299957,0.09240633249282837
1761336097601970400,9.145970458984374,-0.1330428570508957,-0.11736394464969635,0.11013206094503403
1761336097612037400,9.156037353515625,-0.14408786594867706,-0.06264922022819519,0.10568659007549286
1761336097622103600,9.166103515625,-0.14147929847240448,-0.0018196944147348404,0.069428451359272
1761336097632170500,9.17617041015625,-0.12395677715539932,0.022612838074564934,0.01115216314792633
1761336097642236400,9.186236328125,-0.09824156761169434,-0.005097351968288422,-0.037991948425769806
1761336097652303400,9.196303466796875,-0.07212744653224945,-0.027910467237234116,-0.028795376420021057
1761336097662369500,9.20636962890625,-0.08127966523170471,0.020163584500551224,0.017688505351543427
1761336097672436500,9.2164365234375,-0.1007329672574997,0.07767899334430695,0.04388381913304329
1761336097682502400,9.22650244140625,-0.09466974437236786,0.12380121648311615,0.02843242511153221
1761336097692569600,9.236569580078125,-0.08550003170967102,0.157174214720726,-0.021554093807935715
1761336097702635500,9.246635498046874,-0.08319373428821564,0.17201627790927887,-0.07113655656576157
1761336097712702500,9.256702392578125,-0.08888506144285202,0.14303474128246307,-0.09483765065670013
1761336097722768400,9.266768310546874,-0.09177858382463455,0.12194463610649109,-0.06773172318935394
1761336097732835300,9.27683544921875,-0.10067353397607803,0.11432750523090363,-0.01213778555393219
1761336097742901200,9.2869013671875,-0.11232539266347885,0.11474215984344482,0.033865392208099365
1761336097752968200,9.29696826171875,-0.11644427478313446,0.09642288088798523,0.04143629968166351
1761336097763034400,9.307034423828124,-0.11657876521348953,0.06877021491527557,0.01674773171544075
1761336097773101300,9.317101318359375,-0.13084617257118225,0.12948943674564362,0.05834093689918518
1761336097783167500,9.32716748046875,-0.15363937616348267,0.15623050928115845,0.07869280874729156
1761336097793234400,9.337234375,-0.1506090760231018,0.13351474702358246,0.09587687999010086
1761336097803300400,9.34730029296875,-0.1272299885749817,0.10904163122177124,0.11404310166835785
1761336097813367300,9.3573671875,-0.11674569547176361,0.07253831624984741,0.10977214574813843
1761336097823433500,9.36743359375,-0.10686483979225159,0.04659886285662651,0.09494153410196304
1761336097833500400,9.37750048828125,-0.09361735731363297,0.02023916319012642,0.06123620271682739
1761336097843566300,9.38756640625,-0.08224699646234512,-0.026542454957962036,0.008802021853625774
1761336097853633300,9.39763330078125,-0.06717080622911453,-0.04184751212596893,-0.045272015035152435
1761336097863699500,9.407699462890625,-0.050709545612335205,-0.04903724789619446,-0.08356400579214096
1761336097873766400,9.417766357421876,-0.04825209081172943,-0.06922134757041931,-0.12067292630672455
1761336097883832600,9.42783251953125,-0.05553903058171272,-0.03328544646501541,-0.11050710827112198
1761336097893899500,9.4378994140625,-0.07523127645254135,0.010654923506081104,-0.06243991106748581
