time,seconds_elapsed,z,y,x
1761341787856001800,0.073001708984375,-0.06784896286725997,0.0017547529791481793,0.005682657879451289
1761341787866068000,0.08306787109375,-0.07069032377302646,-0.003250087837129831,0.013753124210890382
1761341787876134000,0.0931337890625,-0.08086568082869053,0.002693988324329257,0.006909085268713534
1761341787886200800,0.103200927734375,-0.07383563606142997,0.00253603954995051,0.015190079945139587
1761341787896267000,0.11326708984375,-0.05932020397484302,0.0007090433184988796,0.022911600408167577
1761341787906333000,0.1233330078125,-0.07113865206241607,-0.0025555114354006946,0.01106180276768282
1761341787916399000,0.133399169921875,-0.06635024874210357,0.0005651413357816637,0.009413638268434442
1761341787926466000,0.143466064453125,-0.06874678848981856,-0.0039735615397803485,0.00851252471024636
1761341787936532000,0.153531982421875,-0.0645540129750967,-0.002612520585954189,0.0068348464221460745
1761341787946598100,0.16359814453125,-0.05991174012720585,-0.003203600080590695,0.008747196549223735
1761341787956665000,0.1736650390625,-0.0699351214915514,0.002821249699499458,0.014588022398762404
1761341787966731000,0.18373095703125,-0.06889116539657116,-0.005375208498630673,0.01588141407701187
1761341787976797000,0.193796875,-0.07068506307601928,-0.008308266275841742,0.015700098126777445
1761341787986862800,0.20386279296875,-0.06753975078761577,-0.004662329255230724,0.01115328044341877
1761341787996929800,0.2139296875,-0.07472177124619483,-0.0005359517739154398,0.012558863791869953
1761341788006996000,0.223995849609375,-0.07831190469264984,-0.0004351765468716621,0.0059627580290427425
1761341788017062000,0.234061767578125,-0.07920680770576,0.0024337116866372526,0.011463949261209926
1761341788027128000,0.244128173828125,-0.06454466062486171,-0.0009091872667893767,0.01339450176525861
1761341788037195000,0.254195068359375,-0.06798398742377758,-0.0036941783428192138,0.01022017801150214
1761341788047261000,0.264260986328125,-0.06214870539903641,-0.009342596025951206,0.014371018647216259
1761341788057327000,0.2743271484375,-0.07232756958603859,-0.0012790069598704575,0.0040539378661895165
1761341788067393000,0.28439306640625,-0.07262626027166844,-0.00395284754531458,0.01632249977486208
1761341788077460000,0.2944599609375,-0.06155541568100452,-0.00012159881936386226,0.01011829310618341
1761341788087526100,0.304526123046875,-0.06619359687566757,0.007223740708455443,0.01015627789585851
1761341788097591800,0.314591796875,-0.07487082432806491,-0.0000301028773188591,0.007597505924291909
1761341788107658000,0.324657958984375,-0.06678980920314788,-0.0009956234412267803,0.009888849998172373
1761341788117725000,0.334724853515625,-0.06977905414700508,0.001697214105632156,0.014665727277472614
1761341788127790800,0.344790771484375,-0.06424304732978343,-0.001744341182988137,0.006444888123334385
1761341788137857000,0.35485693359375,-0.06768471221625805,-0.007888707423210144,0.013166656959289685
1761341788147924000,0.364924072265625,-0.0789057789325714,0.00027960239266976714,0.005115374818933196
1761341788157990000,0.374989990234375,-0.07486497910916805,-0.0023158209280110895,0.0048742367065511645
1761341788168056000,0.38505615234375,-0.0685801997512579,-0.0023426906686276196,0.006734979943977669
1761341788178122000,0.3951220703125,-0.0637958880841732,-0.004256269204989075,0.0024082530183950437
1761341788188189000,0.40518896484375,-0.06663958707749844,-0.0022536606783047316,0.008444103683112188
1761341788198255000,0.415255126953125,-0.0606587591022253,-0.000876947231311351,0.012174832910345866
1761341788208320800,0.42532080078125,-0.07098375376164913,-0.00313011471927166,0.012745472405152395
1761341788218387000,0.435386962890625,-0.07397650583684444,0.002118435192387551,0.00185408060119953
1761341788228454000,0.445453857421875,-0.06395137090682983,0.002316533314064145,0.011685843817004934
1761341788238519800,0.455519775390625,-0.06410276207625866,0.0028815467856824397,0.011565587571356445
1761341788248586000,0.4655859375,-0.06051438219547271,-0.005970069119241088,0.011258142757113091
1761341788258652000,0.47565185546875,-0.060065469384193416,-0.006262951118592173,0.013690941128297707
1761341788268718800,0.48571875,-0.06664426325261592,-0.0012223814018070696,0.00974164638009388
1761341788278785000,0.495784912109375,-0.0721744248509407,0.0004628682713955641,0.005029071075236424
1761341788288851000,0.505850830078125,-0.06289513985216617,-0.0009456285533495246,0.010172128485538997
1761341788298918000,0.51591796875,-0.059305590927600856,0.000610186053905636,0.012568330306536517
1761341788308984000,0.525984130859375,-0.06648761138617992,-0.009561992663983256,0.01567020074543543
1761341788319050000,0.536050048828125,-0.06888298209011555,-0.0037964879398234186,0.0014161504082381724
1761341788329116000,0.546115966796875,-0.06574176145493983,-0.006139562200941145,0.01039708264810033
1761341788339182800,0.556182861328125,-0.06723638392686844,0.002009787186142057,0.013513881228072568
1761341788349248800,0.566248779296875,-0.06873451353013516,0.0007641527729108929,0.01702960229802411
1761341788359315000,0.57631494140625,-0.07202420272529125,0.00019154051672667263,0.017068345139524897
1761341788369380900,0.586380859375,-0.0693336484670639,-0.0026766353307291864,0.012207378906500525
1761341788379448000,0.596447998046875,-0.06828560071885585,-0.006280395443737506,0.009945498389122075
1761341788389514000,0.606513916015625,-0.06334931336045264,-0.0059396191820502275,0.011822416443214752
1761341788399580000,0.616579833984375,-0.07531856809556484,-0.0066284599627368145,0.009359994685323909
1761341788409646000,0.62664599609375,-0.07202595629096031,0.0006538059999234974,0.0131522448414471
1761341788419713000,0.636713134765625,-0.063643327870965,-0.0009752382403239607,0.005160405837325379
1761341788429779000,0.646779052734375,-0.05945405948758125,-0.0007920819594524801,0.008747456844127737
1761341788439844900,0.656844970703125,-0.07187514964342116,-0.00641185806998983,0.002509137843293138
1761341788449910800,0.666910888671875,-0.06483984417915344,-0.0058721617027185855,0.003934142844844609
1761341788459978000,0.67697802734375,-0.06543664102852344,-0.003524484331719577,0.01367287118206732
1761341788470044000,0.6870439453125,-0.07351531806588173,0.002826766124833375,0.012586655981093644
1761341788480109800,0.69710986328125,-0.06633271308541297,-0.003882814516406506,0.011892709767026825
1761341788490176000,0.707176025390625,-0.06469488275051116,0.0004823401568457484,0.007782128076464868
1761341788500243000,0.717242919921875,-0.07068155594468116,-0.0015889314255677163,0.017404477192135528
1761341788510308900,0.727308837890625,-0.06439502302110195,-0.0006024228725582361,0.011718604442290961
1761341788520375000,0.737375,-0.06948270154893398,-0.003746182524692267,0.011999754904652944
1761341788530441000,0.74744091796875,-0.07337211020290851,-0.004983889359794557,0.019710347548290156
1761341788540508000,0.7575078125,-0.0708282709389925,-0.005132376186084002,0.00488909634896554
1761341788550574000,0.767573974609375,-0.07052841120958328,-0.005803663043770939,0.0073965217257849864
1761341788560639700,0.7776396484375,-0.06978080771267414,-0.00012002791678532957,0.007815391025249845
1761341788570707200,0.787707275390625,-0.06992810722887516,-0.005511383832618594,0.013350068968487902
1761341788580772900,0.79777294921875,-0.06169862354397773,-0.001697469833958894,0.010820673788455314
1761341788590838800,0.8078388671875,-0.07262684479355812,-0.004805135259404778,0.009685025388607755
1761341788600905000,0.817905029296875,-0.06574585310816765,-0.007414714969601482,0.008884979318408296
1761341788610972000,0.827971923828125,-0.060654667448997494,-0.002916782495845109,0.011296894731768406
1761341788621038000,0.8380380859375,-0.06679273181259632,-0.0003919036607258022,0.004730458021420054
1761341788631104000,0.84810400390625,-0.06649345660507679,-0.008600582019612193,0.013946016434486955
1761341788641170000,0.858169921875,-0.06784253312647343,-0.0034276180948130783,0.01395499432538636
1761341788651237000,0.868237060546875,-0.0658960752338171,0.004008030064962804,0.008221784435631707
1761341788661303000,0.878302978515625,-0.06813947024643421,-0.006340747328847646,0.010696517685824074
1761341788671369000,0.888368896484375,-0.0690372958689928,-0.006958258172683417,0.009652511358493938
1761341788681435000,0.898434814453125,-0.0639484482973814,-0.0035718854037113485,0.009019999308348632
1761341788691501800,0.908501708984375,-0.06214987444281578,-0.003967771119810641,0.010025066431355662
1761341788701568000,0.918568115234375,-0.06708323919177055,-0.0004159238571301102,0.013055515601858496
1761341788711634000,0.928634033203125,-0.0696253248900175,-0.003457319113332778,0.005178932441282086
1761341788721699800,0.938699951171875,-0.07037292838692664,-0.0015396854563616215,0.008288333166087977
1761341788731767000,0.94876708984375,-0.06199263805449009,-0.0006276486453600228,0.0066222083184635265
1761341788741833000,0.9588330078125,-0.06678396398425102,-0.0024669381028041243,0.015650929789384826
1761341788751899000,0.96889892578125,-0.07635960158109664,-0.0011397080870345234,0.012487871781736612
1761341788761966000,0.978966064453125,-0.0717208358645439,-0.0012912271206267176,0.009400066400808281
1761341788772032000,0.989031982421875,-0.06798106481432914,-0.0030444091971963644,0.007519431152823381
1761341788782098200,0.99909814453125,-0.06962766297757625,-0.003159085085429251,0.009795034234877676
1761341788792163800,1.009163818359375,-0.07636193966865538,-0.004321461661998182,0.007637130115204491
1761341788802231000,1.01923095703125,-0.07396890705227852,-0.0024980273608118295,0.0008351402164669707
1761341788812297000,1.029296875,-0.06408990259468555,0.001141790446266532,0.011184867458348163
1761341788822363000,1.03936279296875,-0.062442719909548756,0.0058761437580920756,0.005860832024528645
1761341788832429000,1.049428955078125,-0.05915478428006172,-0.0038389571083709594,0.011129949800181203
1761341788842496000,1.05949609375,-0.07067512620389461,-0.003011146248411387,0.01701971109167207
1761341788852562000,1.06956201171875,-0.05676175166368484,0.0002430697745643556,0.01802617102074437
1761341788862628000,1.079628173828125,-0.06918225729763508,-0.00018584142830222844,0.00915569515172392
1761341788872694000,1.089694091796875,-0.058256958657503126,-0.002028108294121921,0.009079200415988453
1761341788882761000,1.099760986328125,-0.06349427478909492,-0.0066939994796179235,0.014539388350909574
1761341788892827100,1.1098271484375,-0.07112345449328422,0.003830408475734293,0.012850499115628189
1761341788902893000,1.11989306640625,-0.05870353338122367,-0.007679576450865715,0.0023109666563803327
1761341788912959000,1.129958984375,-0.06663607994616032,-0.00312856208300218,0.012393051371444017
1761341788923026000,1.14002587890625,-0.0744184043854475,0.0009748181152157485,0.014610106366407125
1761341788933091800,1.150091796875,-0.06962941654324531,-0.005784264223556965,0.0047538388970075176
1761341788943158000,1.160157958984375,-0.06364274334907531,-0.002345266218204051,0.011521497267880477
1761341788953224000,1.170223876953125,-0.07695522938668728,-0.004360277568735182,0.015871495471196248
1761341788963291000,1.180290771484375,-0.06528408081531524,-0.00045117783360183234,0.006449230938311666
1761341788973357000,1.190357177734375,-0.06737666918039321,-0.0025069413196295498,0.016722088985121807
1761341788983423000,1.200423095703125,-0.07007306865751743,0.0032726649951189753,0.0021540636281948537
1761341788993489200,1.2104892578125,-0.05989712707996368,-0.006650598729308694,0.008138508332660421
1761341789003556000,1.22055615234375,-0.06738134535551071,-0.002058594763930887,0.007972508682566694
1761341789013622000,1.2306220703125,-0.07202069559395313,0.0020317980885505675,0.014631701710284687
1761341789023688200,1.240688232421875,-0.07666121487617492,0.001370119309425354,0.011294821505690925
1761341789033753900,1.25075390625,-0.0676823741286993,-0.007931103526521474,0.013955606246739626
1761341789043820800,1.26082080078125,-0.0648375060915947,-0.00039946591267362233,0.008636425084550864
1761341789053887000,1.270886962890625,-0.07546177595853805,-0.0012809979875572025,0.011846148945251479
1761341789063953000,1.280952880859375,-0.07755611788928508,-0.005352247748151421,0.013568323962204157
1761341789074019000,1.29101904296875,-0.0679787267267704,-0.003172127230092883,0.020759669371554625
1761341789084086000,1.3010859375,-0.07426467512845993,-0.0008772212259471416,0.007870454813889228
1761341789094152000,1.31115185546875,-0.062143444702029225,-0.0025554018375463783,0.014387339594354853
1761341789104218000,1.321218017578125,-0.06902969708442687,-0.00002906169770285487,0.01140125928854104
1761341789114284000,1.331283935546875,-0.06394435664415359,-0.001445047709159553,0.006991630719322711
1761341789124351000,1.34135107421875,-0.06903203517198563,0.0000716221977956593,0.01218549130167812
1761341789134417200,1.351417236328125,-0.062298927524685854,0.0022022775509394706,0.012238655394176021
1761341789144482800,1.36148291015625,-0.07441898890733718,-0.005923270835448056,0.0117103526371764
1761341789154550000,1.371550048828125,-0.06963292367458343,-0.0032853966125287112,0.015427505430206656
1761341789164616000,1.381615966796875,-0.060955696222186086,0.0033508630641736086,0.006511350088822655
1761341789174681900,1.391681884765625,-0.07442366508245468,0.0015957264925353229,0.0044697749583516265
1761341789184748000,1.401748046875,-0.06469838988184928,0.004054645685665309,0.012481382675445638
1761341789194815000,1.41181494140625,-0.07113339136540889,-0.0014457600952126086,0.011003172482200898
1761341789204881000,1.421880859375,-0.07487082432806491,-0.004556731722597032,0.01007101076520048
1761341789214947000,1.431947021484375,-0.06633797378242015,-0.0015806750538758932,0.009754451062739826
1761341789225013000,1.442012939453125,-0.07471417246162891,-0.009643807462230324,0.008002588726999238
1761341789235080000,1.452079833984375,-0.061548985940217966,-0.006546188506763428,0.009453604952641761
1761341789245146000,1.46214599609375,-0.07187573416531086,-0.0030492497690953312,0.017161192788439802
1761341789255212000,1.4722119140625,-0.07233107671737671,0.003342460562009364,0.012745011180848814
1761341789265278000,1.48227783203125,-0.06754091983139515,0.0014830416319891809,0.0037186414972180497
1761341789275345000,1.492344970703125,-0.06125497142970562,0.0014197488711215555,0.015806394345732406
1761341789285410800,1.502410888671875,-0.07142799039781093,-0.004532200069539249,0.017603771757055072
1761341789295477000,1.51247705078125,-0.0667892246812582,-0.006813187146186828,0.02219627804593183
1761341789305543000,1.52254296875,-0.07232581602036953,-0.00608450754545629,0.01057680029629264
1761341789315609900,1.53260986328125,-0.07427402747869491,0.00018585969461128114,0.011053496163641102
1761341789325676000,1.542676025390625,-0.07038520334661007,-0.008714618587028235,0.009399020654615014
1761341789335742000,1.552741943359375,-0.06799392429590224,-0.003526968549750745,0.008257595534529536
1761341789345808100,1.56280810546875,-0.07069090829491614,-0.008923000640701503,0.01566621869006194
1761341789355875000,1.572875,-0.0675473495721817,-0.003936553997639566,0.01759457010386977
1761341789365941000,1.58294091796875,-0.06455518201887607,-0.00018706527100875972,0.006112130771321244
1761341789376007200,1.593007080078125,-0.07592647086083888,-0.002625745393708348,0.002413276253384538
1761341789386072800,1.60307275390625,-0.06470248153507709,-0.003554185350239277,0.013721144470316356
1761341789396139800,1.613139892578125,-0.06649988634586333,0.0023997911507263776,0.019535214743670076
1761341789406206000,1.6232060546875,-0.07338672325015068,-0.005391721242014319,0.010707180643733591
1761341789416272000,1.63327197265625,-0.0696475367218256,-0.009243464766722172,0.015885245435335673
1761341789426338000,1.643338134765625,-0.07294073304831981,-0.0041222127628512675,0.011661563325696624
1761341789436405000,1.653405029296875,-0.07368833654522895,0.0031773879271000624,0.013905579392821527
1761341789446471000,1.663470947265625,-0.06710311293601989,-0.005702650354709476,0.009345856562117115
1761341789456537000,1.673537109375,-0.07024082643985748,0.003248096809443086,0.012335864124377257
1761341789466603000,1.68360302734375,-0.07682605004906654,-0.0011615545926615596,0.009782859739894047
1761341789476670000,1.693669921875,-0.06515431695580481,-0.006264686417952179,0.005223990859137848
1761341789486736100,1.703736083984375,-0.07294014852643013,-0.0015590477439574896,0.012880012904480098
1761341789496801800,1.7138017578125,-0.06815232972800732,0.006094864542689174,0.014197872303705662
1761341789506868000,1.723867919921875,-0.05962532440125942,-0.00536857782844454,0.017021313960291443
1761341789516935000,1.733934814453125,-0.06680734485983848,-0.008226871602702886,0.01884664795761928
1761341789527000800,1.744000732421875,-0.06501344718039036,0.002001549080759287,0.01124435626035556
1761341789537067000,1.75406689453125,-0.06381459278464317,0.0020568046656437218,0.008329815953946672
1761341789547133000,1.7641328125,-0.06860533419251441,-0.0018890651496127247,0.0038770788953639565
1761341789557200000,1.774199951171875,-0.064122635820508,-0.0040147885993123055,0.014727216240321285
1761341789567266000,1.78426611328125,-0.06651859104633331,-0.007955927440524101,0.009590469839796424
1761341789577332000,1.79433203125,-0.06771861448585986,-0.005287840742431581,0.01155978801823221
1761341789587398100,1.804398193359375,-0.07445289117693901,0.001634213605709374,0.01004980358039029
1761341789597465000,1.814465087890625,-0.07580021413266658,0.0037211211486719545,0.006057660637726075
1761341789607531000,1.824531005859375,-0.07041092230975628,0.00017910116026178,0.0015215378783177583
1761341789617597000,1.834596923828125,-0.06981120285093784,-0.010953702750708907,0.007238289823615923
1761341789627662800,1.844662841796875,-0.06726677906513213,-0.0013964593270793556,0.00990191497572232
1761341789637729800,1.854729736328125,-0.07115384963154793,-0.000192325968015939,0.01352926602687221
1761341789647796000,1.8647958984375,-0.06636486178934574,-0.0003862593712285161,0.016490691382042132
1761341789657862000,1.87486181640625,-0.06741057144999504,-0.003162007694877684,0.009304679734935052
1761341789667928800,1.8849287109375,-0.07488543737530708,-0.004335088328551501,0.013707193576777353
1761341789677995000,1.8949951171875,-0.0721960521608591,0.0006523812278173863,0.01157603133355733
1761341789688061000,1.90506103515625,-0.07578501656353473,-0.003608929478470236,0.008706581411045045
1761341789698127000,1.915127197265625,-0.06680734485983848,-0.002998305033147335,0.012546849127090535
1761341789708194000,1.925194091796875,-0.06261924552023411,-0.006265709331259131,0.010847050338727422
1761341789718260500,1.935260498046875,-0.06965455098450184,-0.008709796281438321,0.00676133366136346
1761341789728326400,1.945326416015625,-0.07608838342428206,-0.001736888528894633,0.004931670548790134
1761341789738392300,1.955392333984375,-0.06935293768942356,-0.006039389762096107,0.0009202794829616323
1761341789748459300,1.965459228515625,-0.07114800441265105,0.005016768716089427,0.0059070868856273585
1761341789758525400,1.975525390625,-0.06980301954448223,-0.001836896570958197,0.01120795150641352
1761341789768591400,1.98559130859375,-0.06815642138123512,-0.005740169353503734,0.013978119472647085
1761341789778657500,1.995657470703125,-0.06321779593527317,-0.0014122231517918408,0.006453697050875053
1761341789788724500,2.005724365234375,-0.059925184130668635,-0.002615132668148726,0.004865025920211337
1761341789798790400,2.015790283203125,-0.06710662006735801,-0.006799268218688667,0.0002602949040010571
1761341789808856600,2.025856689453125,-0.06516133121848106,0.0026189320604316888,0.00972173610322643
1761341789818922500,2.035922607421875,-0.07443944717347621,-0.0013599815079011022,0.012049302267958409
1761341789828989400,2.045989501953125,-0.07100187394022942,-0.00617551029715687,0.013697233871766365
1761341789839055600,2.0560556640625,-0.06965338194072246,-0.004757423660159111,0.004482424377370626
1761341789849121300,2.066121337890625,-0.06665595369040965,-0.004234240036271512,0.01013538580487948
1761341789859187500,2.0761875,-0.07054360877871513,0.002229877943918109,0.0032031205899780615
1761341789869254400,2.08625439453125,-0.06575520545840263,0.00029717458197847007,0.004753898262511939
1761341789879320300,2.0963203125,-0.06500818648338318,0.002296842232905328,0.016584356448287145
1761341789889386500,2.106386474609375,-0.06859948897361755,-0.002039597802516073,0.009713580196234396
1761341789899452400,2.116452392578125,-0.06784954738914967,-0.007685841794870793,0.01425458462673705
1761341789909519400,2.126519287109375,-0.0720394002944231,0.0009719137720763683,0.016147545066755264
1761341789919585500,2.13658544921875,-0.07233809098005295,-0.005780300434492528,0.021789245314733124
1761341789929651500,2.1466513671875,-0.06201426536440849,-0.009338723568432033,0.008005360639397986
1761341789939717600,2.156717529296875,-0.07144026535749436,-0.0049165962772443885,0.014212078925571404
1761341789949784600,2.16678466796875,-0.0627589462518692,-0.0014021584155038,0.014409186099981888
1761341789959850200,2.176850341796875,-0.07113982110619545,-0.0044160811428911985,0.008482143271714449
1761341789969916400,2.18691650390625,-0.06695113724470138,-0.0011212408485822378,0.010067658897489309
1761341789979982300,2.196982421875,-0.06784837834537029,-0.006527118480112403,0.00659718347506132
1761341789990049300,2.20704931640625,-0.06829904472231864,-0.003927037250623107,0.013212254233262501
1761341790000115500,2.217115478515625,-0.06620879444479942,-0.0027132592803798612,-0.0021213760681450364
1761341790010181400,2.227181396484375,-0.07099661324322223,-0.001372402598056942,0.004452481330255977
1761341790020247600,2.23724755859375,-0.06590776567161083,-0.005907671407517045,0.009563545300252736
1761341790030314500,2.247314453125,-0.06815174520611762,-0.0029441271604970097,0.013033121106959878
1761341790040380400,2.25738037109375,-0.06456044271588325,-0.00026413082890212533,0.010525444568390958
1761341790050446600,2.267446533203125,-0.06770166335105895,-0.0030238413332030175,0.011303178342082536
1761341790060512300,2.27751220703125,-0.0702443335711956,0.005017481102142483,0.010828400437184608
1761341790070579500,2.287579345703125,-0.075333181142807,-0.0020189386069774627,0.00407073373736348
1761341790080645400,2.297645263671875,-0.06650339347720145,-0.0001354081490077078,0.011605024532601236
1761341790090711300,2.307711181640625,-0.07248655954003333,-0.005766746833175421,0.009099969209381378
1761341790100777500,2.317777587890625,-0.06994096671044826,-0.004912395026162267,0.010695668302453122
1761341790110844400,2.327844482421875,-0.06410159303247928,-0.002838072970137,0.0030402353455778208
1761341790120910300,2.337910400390625,-0.07472703194320202,-0.006418105147685855,0.007797298246133141
1761341790130976500,2.3479765625,-0.06919336321353912,-0.009296674524992703,0.011876466451701708
1761341790141042400,2.35804248046875,-0.0682967066347599,-0.0037407939635217186,0.002614251318736933
1761341790151109400,2.368109375,-0.0700870971828699,-0.006967354794591665,-0.0023212551549542694
1761341790161175600,2.378175537109375,-0.06694529202580451,-0.0015492204696871338,0.009865944046620279
1761341790171241500,2.388241455078125,-0.06799217073023318,-0.0026218546698801217,0.008553833968169056
1761341790181307400,2.398307373046875,-0.07517419118881224,-0.0008375833353027701,0.010373911835066973
1761341790191374600,2.40837451171875,-0.07397767488062382,-0.008295388527959585,0.008670039659785106
1761341790201440300,2.418440185546875,-0.06739420483708382,-0.004525222339481115,0.009597885961271821
1761341790211506400,2.42850634765625,-0.06934007820785046,-0.002839077617134899,0.006697460945183411
1761341790221572400,2.438572265625,-0.06440262180566787,-0.0014655059752985834,0.01100813635168597
1761341790231639300,2.448639404296875,-0.062463178175687785,-0.001540836233831942,0.006581894574384205
1761341790241705500,2.45870556640625,-0.06695113724470138,-0.0015932788071222601,0.0047428243126487355
1761341790251771400,2.468771484375,-0.062459671044349664,-0.0016574118182063101,0.006677180775557645
1761341790261838300,2.47883837890625,-0.0706926618605852,0.003278217953070998,0.014272869202098809
1761341790271904500,2.488904541015625,-0.06829962924420833,-0.002032711404003203,0.003446103599574417
1761341790281970400,2.498970458984375,-0.06381108565330505,0.0027905257676728067,0.0036475581555394454
1761341790292036600,2.50903662109375,-0.05588730691671371,-0.006793276869319379,0.005611679569049738
1761341790302103600,2.519103515625,-0.06276829860210419,-0.011838340098131447,0.008296338376030325
1761341790312169200,2.529169189453125,-0.07937339644432068,-0.002749335240758955,0.018890290736523457
1761341790322235400,2.5392353515625,-0.07188976269066333,0.0005782017467543482,0.005749265975411981
1761341790332301300,2.54930126953125,-0.06500584839582443,-0.007222918724548071,0.009004052820545621
1761341790342368300,2.5593681640625,-0.07114215919375419,-0.010622753763291984,0.004501891696243546
1761341790352434400,2.569434326171875,-0.06515607052147387,-0.00019097426114603877,0.001480196654354222
1761341790362500400,2.579500244140625,-0.06634791065454483,0.001872534139920026,0.013591554140741936
1761341790372566500,2.58956640625,-0.07158464226424693,-0.0020349581600166856,0.009194730254169553
1761341790382633500,2.599633544921875,-0.06439911467432975,-0.005322327533923089,0.007278667499776929
1761341790392699400,2.609699462890625,-0.07053308738470077,0.0052429786873981355,0.005583686450426466
1761341790402765600,2.619765625,-0.07367372349798679,-0.0064009713497944175,0.002624969075573608
1761341790412831200,2.629831298828125,-0.07098024663031101,0.003800762256141752,0.004626554688951
1761341790422898400,2.6398984375,-0.07113046875596046,-0.001400039523653686,0.008681752930465154
1761341790432964400,2.64996435546875,-0.06215104348659515,-0.0012594985418021678,0.0151455329839373
1761341790443030300,2.6600302734375,-0.06589315262436866,0.0004415514887310564,0.005085774265113287
1761341790453096400,2.670096435546875,-0.06604103666245938,-0.0032396943072788417,0.0028922599759418515
1761341790463163400,2.680163330078125,-0.06918634895086288,0.003634940702561289,0.0068580126686021686
1761341790473229300,2.690229248046875,-0.06514788721501827,-0.005266396095603704,0.011750524817360565
1761341790483295500,2.70029541015625,-0.07307926473617553,-0.005558437844738364,0.013025120463594794
1761341790493361400,2.710361328125,-0.07307926473617553,-0.0076385868533514435,0.0060616472596768285
1761341790503428400,2.720428466796875,-0.07128653610050678,0.0024641250912100076,0.00343572833603248
1761341790513494500,2.73049462890625,-0.07442366508245468,0.007149195901211351,0.002905781611218117
1761341790523560400,2.740560546875,-0.07142974396348,-0.00024246698636561632,0.007501479937601834
1761341790533626400,2.75062646484375,-0.0685842914044857,-0.0037655630785971878,0.009958677531103603
1761341790543693300,2.760693359375,-0.06828501619696617,-0.004355108203273266,0.004825757922325283
1761341790553759200,2.77075927734375,-0.0636480040460825,-0.004899225017335265,0.012524445499037392
1761341790563825400,2.780825439453125,-0.05796762032210827,-0.005980279986001551,0.005631863840552978
1761341790573891300,2.790891357421875,-0.06485270366072654,-0.0050405514504760504,0.007900480059394612
1761341790583958300,2.800958251953125,-0.07143442013859748,-0.0012443557715974747,0.01467947724161204
1761341790594024400,2.8110244140625,-0.07577566421329975,-0.006092763917148113,0.00817398607141804
1761341790604090400,2.82109033203125,-0.06605155805647372,0.0016092252949252723,0.008459840108361094
1761341790614156500,2.831156494140625,-0.06784662477970123,-0.0007596227282658219,-0.001681993703613989
1761341790624223500,2.841223388671875,-0.059016252592206,0.0032037462110631166,0.014778238608082755
1761341790634289400,2.851289306640625,-0.06754793409407138,-0.0016317476539872587,0.012828319249860942
1761341790644355600,2.86135546875,-0.07263911975324154,-0.006588164484966546,0.0014522126688854768
1761341790654421200,2.871421142578125,-0.06261281577944755,0.0010139628155156968,0.009319247116404585
1761341790664488200,2.88148828125,-0.06590835019350051,0.00013033011509105562,-0.0023213099538814275
1761341790674554400,2.891554443359375,-0.0642617520302534,-0.0003271130625158548,-0.0000034112332155928015
1761341790684620300,2.901620361328125,-0.07234159811139107,-0.005895761774014682,0.0056383757797302675
1761341790694686500,2.9116865234375,-0.07742869211733341,-0.00007715688943862914,0.004786686287261545
1761341790704753400,2.92175341796875,-0.07623042224347591,-0.002248308649752289,0.011906920955469831
1761341790714819600,2.931819580078125,-0.06755261026918888,-0.006802921480499207,-0.0002560708200326189
1761341790724885800,2.9418857421875,-0.06859948897361755,0.004560110989771783,0.010746896166191436
1761341790734951700,2.95195166015625,-0.06425999846458434,-0.002203428328409791,0.013363106546574272
1761341790745018600,2.9620185546875,-0.06066928049623966,-0.0037974743205122646,0.0015792091825744135
1761341790755084800,2.972084716796875,-0.07069558447003364,-0.0031846396517939864,0.016382395002245902
1761341790765150700,2.982150634765625,-0.06291501359641552,-0.004218421412631869,0.010935441008233465
1761341790775216600,2.992216552734375,-0.0641091918170452,-0.001628057859558612,0.012643359170970507
1761341790785283600,3.00228369140625,-0.06126666186749935,-0.0013203618835657834,0.003816398216690868
1761341790795349500,3.012349609375,-0.07712883238792419,0.0009683701081201433,0.01376575993017759
1761341790805415700,3.022415771484375,-0.06754968765974044,-0.0033111155756749213,0.019166879188199527
1761341790815481600,3.032481689453125,-0.06455576654076575,-0.00024102394795045255,0.011770937417726963
1761341790825548500,3.042548583984375,-0.07038871047794819,-0.0035124651003628966,0.005933710031071677
1761341790835614700,3.05261474609375,-0.08206044357120991,0.002153013315424323,0.009702652376843616
1761341790845680600,3.0626806640625,-0.07053834808170795,-0.0009681509124115109,0.007819957602513023
1761341790855746800,3.072746826171875,-0.06650047086775303,-0.004594616047572345,0.005169443093729205
1761341790865813800,3.082813720703125,-0.05901800615787506,-0.00822690813532099,0.008166866777464747
1761341790875879700,3.092879638671875,-0.06859598184227943,-0.0006785203160718083,0.009446878384333104
1761341790885945600,3.102945556640625,-0.07293605687320232,-0.0045243272903375325,0.009776877523679285
1761341790896011500,3.113011474609375,-0.05991466273665428,-0.009761661688238383,0.009671901045553386
1761341790906078500,3.123078369140625,-0.05572597887516021,-0.004779781622439623,0.014347610372165217
1761341790916144600,3.13314453125,-0.06979191362857819,0.001352729783207178,0.008729962286632507
1761341790926210600,3.14321044921875,-0.056175476208329196,-0.002935980386659503,0.019282609955780208
1761341790936276700,3.15327685546875,-0.06635258682966232,-0.0010912110364995895,-0.0004843037850689143
1761341790946343700,3.16334375,-0.06650163991153239,-0.005766052713431418,0.0034226176927099
1761341790956409600,3.17340966796875,-0.07233750645816325,-0.00004920943658798933,0.008690278730215504
1761341790966475800,3.183475830078125,-0.07009060431420802,-0.008386281681805849,0.00833461542665027
1761341790976541700,3.193541748046875,-0.06620470279157162,-0.006800619925558566,0.011003830069326795
1761341790986608600,3.203608642578125,-0.07114566632509231,-0.003064045479428023,0.005907593775703572
1761341790996674800,3.2136748046875,-0.057979895281791684,-0.0029859204756096003,0.009136236966005526
1761341791006740500,3.223740478515625,-0.06815817494690418,0.003288337488286197,0.0026919333645608274
1761341791016806700,3.233806640625,-0.06232406196594238,-0.001901961163803935,0.00608723835865967
1761341791026873600,3.24387353515625,-0.06501520074605942,-0.005018412683904171,0.008074567117821424
1761341791036939500,3.253939453125,-0.0678565616518259,0.0021013927260413764,0.00775881113295909
1761341791047005700,3.264005615234375,-0.064562780803442,-0.003063844550028443,0.010118315939069726
1761341791057071600,3.274071533203125,-0.07383914319276809,-0.0032740897672250864,0.002807486035628244
1761341791067138600,3.284138671875,-0.07697685669660567,0.0007071070897392928,0.006229628804302774
1761341791077204700,3.294204833984375,-0.07113339136540889,-0.004858326751366257,0.00730425859875977
1761341791087270700,3.304270751953125,-0.06320084480047225,0.0014901106935925781,0.00974608965977095
1761341791097336800,3.3143369140625,-0.0747235248118639,0.004471464591939002,0.005284580206265673
1761341791107403800,3.32440380859375,-0.06514496460556983,-0.0045972463960759335,0.007142871191701852
1761341791117469700,3.3344697265625,-0.06544190172553062,0.0003764138306491077,0.016959021279844454
1761341791127535600,3.34453564453125,-0.06693652419745921,-0.0063154667571187015,0.005163150350260548
1761341791137602600,3.3546025390625,-0.06319909123480319,-0.0042112427531741554,0.014331704983557573
1761341791147668500,3.36466845703125,-0.07217617841660975,-0.005612341722752898,0.00814116608062759
1761341791157734700,3.374734619140625,-0.07172785012722015,-0.004711904017999768,0.003277569499099627
1761341791167800600,3.384800537109375,-0.0724748691022396,-0.008201974623464047,0.009078296233690343
1761341791177866800,3.39486669921875,-0.06619008974432945,-0.008936773437727242,0.003143143164203502
1761341791187933700,3.40493359375,-0.06005670155584812,-0.005703819398488849,0.006064350673416629
1761341791197999600,3.41499951171875,-0.06364975761175155,-0.004004303737916052,0.009904239363549276
1761341791208065800,3.425065673828125,-0.0666407561212778,-0.005282671376969665,0.010184590674890205
1761341791218131700,3.435131591796875,-0.07053484095036983,0.0016029964835382997,0.013913840331090613
1761341791228198700,3.44519873046875,-0.07218436172306537,-0.0033673940738663077,0.007288312110956758
1761341791238264600,3.4552646484375,-0.073982935577631,-0.0006952887877821922,0.009855774279055185
1761341791248330500,3.46533056640625,-0.06275953077375888,0.004074683826696127,0.016050007542991077
1761341791258396700,3.475396728515625,-0.06784954738914967,-0.012593414515443145,0.00961256294059567
1761341791268463600,3.485463623046875,-0.0653033700376749,-0.004610781731083989,0.0021305594550212843
1761341791278529500,3.495529541015625,-0.0629115064650774,0.0018947825043462215,0.0026123972883680836
1761341791288595700,3.505595703125,-0.061712652069330215,-0.0038885318711400028,0.006509130732272751
1761341791298662700,3.51566259765625,-0.07218669981062412,-0.004860902300942689,0.0036470466988859696
1761341791308728600,3.525728515625,-0.06859189018905162,-0.005970178717095404,0.011337697099614888
1761341791318794800,3.535794677734375,-0.06305354528427123,-0.006915807270444929,0.015395603321446105
1761341791328860700,3.545860595703125,-0.06948737772405147,-0.006965966555103659,0.004548543849564157
1761341791338926800,3.5559267578125,-0.0633516514480114,-0.0005587481276132166,0.0056426911952439695
1761341791348993800,3.565993896484375,-0.07547405091822147,-0.003040755935385823,0.002444571007369086
1761341791359059500,3.5760595703125,-0.07891513128280639,0.0012862221519462764,0.013782697365246713
1761341791369125600,3.586125732421875,-0.06485504174828528,0.0019521021821536123,0.011558669206802732
1761341791379192600,3.596192626953125,-0.07113865206241607,0.0017531455439515412,0.0069383889950113365
1761341791389258500,3.606258544921875,-0.07188450199365616,-0.0025691015693359077,0.012961393877887166
1761341791399324700,3.61632470703125,-0.07547112830877303,0.0008237192067317665,0.003197321036853827
1761341791409390600,3.626390625,-0.07262684479355812,-0.0025283859664574264,0.011569158634776248
1761341791419457800,3.636457763671875,-0.06679097824692726,-0.0037089009879156943,0.0027018793698400257
1761341791429523700,3.646523681640625,-0.06065700553655624,-0.000651778439618647,-0.005493217988265678
1761341791439589600,3.656589599609375,-0.05571954913437366,0.00281100230012089,0.002158552573644556
1761341791449655800,3.66665576171875,-0.07053250286281108,-0.0032049883200787007,-0.0005018074757186696
1761341791459722800,3.67672265625,-0.06678688659369945,-0.00266295386524871,0.007286937571200542
1761341791469788700,3.68678857421875,-0.05720657282173633,-0.004009144309815019,0.008382473156368359
1761341791479854600,3.6968544921875,-0.06813011789619922,-0.00518481875937432,0.01249721499881707
1761341791489920500,3.70692041015625,-0.06424070924222469,-0.0022826127781532704,0.01074451697943732
1761341791499987700,3.71698779296875,-0.07725684268176555,-0.005525978613551706,0.004033817526767961
1761341791510053600,3.7270537109375,-0.0771066205561161,0.001493782221712172,0.007826154447859153
1761341791520119600,3.73711962890625,-0.07126666235625743,-0.003759827457554638,0.008409087168658153
1761341791530185700,3.747185791015625,-0.07171615968942642,-0.0007775602437555789,0.014600237992941401
1761341791540252700,3.757252685546875,-0.06976736370921134,-0.004788385054003447,0.00678518489440903
1761341791550318600,3.767318603515625,-0.07006313178539275,-0.00939480113722384,0.011219226385676302
1761341791560384800,3.777384765625,-0.07410393160879611,-0.007890698450896889,0.008205769449169746
1761341791570450700,3.78745068359375,-0.07065992863476275,-0.002711103855911642,0.010648454460129141
1761341791580518000,3.797517822265625,-0.0676689301252365,-0.009354779654089361,0.015876404541754163
1761341791590583600,3.80758349609375,-0.06258183611929416,-0.003979534622840583,0.013406059772311709
1761341791600649500,3.8176494140625,-0.07455401346385479,-0.004033840359654277,0.012931217935332097
1761341791610715600,3.827715576171875,-0.0714075321316719,-0.004659424912091344,0.011418758412613533
1761341791620782600,3.837782470703125,-0.06721884827017784,0.0010662775246426462,0.01203374850580003
1761341791630848800,3.847848876953125,-0.06976385657787322,-0.005933098109718412,0.008695502894604579
1761341791640914700,3.857914794921875,-0.07320201433300971,-0.00041221579639241096,0.01424299922022037
1761341791650980600,3.867980712890625,-0.054197454133629794,0.0007661438005976378,0.0035173011056846004
1761341791661047800,3.8780478515625,-0.06032850423455238,-0.0033051972915418442,0.012930802376801147
1761341791671113700,3.88811376953125,-0.07020166347324848,-0.004914367787539959,0.014966591653879731
1761341791681179600,3.8981796875,-0.07050444581210613,-0.006246949831862002,0.0040822095460258424
1761341791691245600,3.90824560546875,-0.065120414686203,-0.009129044606816024,0.0060004322914639485
1761341791701312800,3.918312744140625,-0.0661702160000801,-0.0033464060847647487,0.004034434014698491
1761341791711378700,3.928378662109375,-0.07978489985466003,-0.010031436806637792,0.0035302427856484424
1761341791721444600,3.938444580078125,-0.07514379605054855,-0.005017645498923957,0.003763311756006442
1761341791731510500,3.948510498046875,-0.0709545276671648,-0.004093242396693677,0.004096110207214951
1761341791741577700,3.95857763671875,-0.06990764896273613,-0.011549568018317222,-0.0008162893855245784
1761341791751643600,3.9686435546875,-0.07140110239088535,-0.004179459375422447,0.008252923925989307
1761341791761709600,3.97870947265625,-0.06466507213413715,-0.008456479107495397,0.004889219646551646
1761341791771775500,3.988775390625,-0.07169803951084613,-0.007281297848280519,0.005693357369978912
1761341791781841400,3.99884130859375,-0.06376783103346824,-0.004378269883152097,0.011368991853599436
1761341791791907600,4.008907470703125,-0.06317161870598792,-0.006476886130217462,0.006242858178634196
1761341791801973500,4.018973388671875,-0.06825812819004058,-0.003669007368944585,0.0010722460411256179
1761341791812040400,4.02904052734375,-0.06690729810297488,-0.0025050416234880684,0.011112126449123023
1761341791822106600,4.039106689453125,-0.07408873403966426,-0.0034599859944544733,0.0061981285543413825
1761341791832172500,4.049172607421875,-0.06601181056797505,-0.0025799700232222674,0.008504044576268643
1761341791842239700,4.05923974609375,-0.06556348227858542,-0.003164290983509272,0.007090255088475533
1761341791852305700,4.0693056640625,-0.06691372784376144,-0.010792940964736044,0.00911370090721175
1761341791862371300,4.079371337890625,-0.07050444581210613,-0.008116981487441808,0.00769805738904979
1761341791872437500,4.0894375,-0.05718319194614887,-0.0021297785703092813,0.0014168034287868067
1761341791882503400,4.09950341796875,-0.069150693115592,0.00011717837257310748,0.01760744785175193
1761341791892570400,4.1095703125,-0.05867547633051872,-0.004542849327716976,0.014497668101033196
1761341791902636500,4.119636474609375,-0.06914893954992293,-0.011330134847667067,0.005538061776990071
1761341791912702500,4.129702392578125,-0.06869944221675396,0.0013776632950641215,0.010644075112533754
1761341791922769700,4.139769775390625,-0.07094517531692981,-0.0030501082856208084,0.00997338190989103
1761341791932835600,4.149835693359375,-0.07019990990757942,-0.004120897588599473,0.018320514324819667
1761341791942901500,4.159901611328125,-0.07079846032261848,0.005438903118297457,0.008972470372193493
1761341791952967700,4.1699677734375,-0.0678045392036438,-0.0028366847306489943,0.015727451924583875
1761341791963034600,4.18003466796875,-0.0669067135810852,-0.0016235095486044882,0.007116576839820482
1761341791973100500,4.1901005859375,-0.06406301458775997,-0.006123834908846765,0.006996708753239363
1761341791983166500,4.20016650390625,-0.07004910326004028,-0.0032281499999575313,0.007471746953041292
1761341791993232400,4.210232421875,-0.06166822840571403,-0.0017837050789967178,0.0026531037580920383
1761341792003298600,4.220298583984375,-0.06855214270055293,-0.005211432771664112,0.007556310830800794
1761341792013365500,4.230365478515625,-0.0760346074104309,0.0011248210451565682,0.008956564983585848
1761341792023431400,4.240431396484375,-0.06660919193923473,-0.004337115888856351,0.007049959610705264
1761341792033497600,4.25049755859375,-0.05808335565626621,-0.01272920625694096,0.0066983011953998355
1761341792043564500,4.260564453125,-0.0658656800955534,-0.013438907162565737,0.00502095626743976
1761341792053630500,4.27063037109375,-0.06137479841709136,-0.001265197630226612,0.003695904509024694
1761341792063696600,4.280696533203125,-0.06945756710767746,-0.0011707790787331758,0.0017259744092356412
1761341792073762600,4.290762451171875,-0.06706219640374184,-0.006125880735460668,0.00665109648623038
1761341792083829800,4.300829833984375,-0.05688800839185714,-0.0015888766266405582,0.0037534936148906125
1761341792093895400,4.3108955078125,-0.06571428892612458,-0.003052555971033871,0.01136811963734217
1761341792103961300,4.32096142578125,-0.06825520558059216,-0.00046706952247768636,0.003679305000673048
1761341792114027500,4.331027587890625,-0.06930208428502083,-0.003882522255461663,0.006391007078206166
1761341792124094500,4.341094482421875,-0.06466390309035777,-0.002683740924950689,0.008898683616775087
1761341792134160600,4.35116064453125,-0.07154547929763794,-0.009483137007802725,0.0035074144659098237
1761341792144226600,4.3612265625,-0.06735621091425419,-0.007666424708347767,0.011155253204796463
1761341792154292500,4.37129248046875,-0.06676175215244293,-0.007198715865053236,0.008058378601423465
1761341792164359700,4.381359619140625,-0.062271454995870584,-0.009183916599210352,0.008953053285670465
1761341792174425600,4.391425537109375,-0.06032441258132457,-0.004291998105496168,0.015888761699828318
1761341792184492500,4.401492431640625,-0.06241700094640255,-0.005151117419172078,0.011189918092801236
1761341792194558700,4.411558837890625,-0.06510813972651958,-0.002392375029250979,0.008925019067851826
1761341792204624600,4.421624755859375,-0.066597501501441,-0.0007707103778608143,0.018477983608585782
1761341792214690600,4.431690673828125,-0.07093173131346703,-0.0020344467033632098,0.004012975668138824
1761341792224757500,4.441757568359375,-0.0731681120634079,-0.0020806421989575026,0.010217912989179604
1761341792234823400,4.451823486328125,-0.06508358980715274,-0.0005871705044992268,0.012058636351884342
1761341792244889600,4.4618896484375,-0.06897358298301696,0.0006002126491628587,0.006270892396452836
1761341792254955500,4.47195556640625,-0.061041620939970016,-0.003903418913017958,0.0022252428679959847
1761341792265022500,4.4820224609375,-0.07196633505821227,0.0014166253322735428,0.007679937210469506
1761341792275088600,4.492088623046875,-0.07570902871787548,0.0026753201564773915,0.009279052103334106
1761341792285154600,4.502154541015625,-0.06658230393230914,-0.0016141389320604503,0.007011577528808265
1761341792295220700,4.512220703125,-0.07122340773642062,-0.0076499302312731735,0.005656998281809501
1761341792305287700,4.52228759765625,-0.0710761082202196,-0.005429112376645207,0.011387276428961195
1761341792315353600,4.532353515625,-0.06883095964193343,-0.0023351101503707467,0.010811376237147487
1761341792325419800,4.542419677734375,-0.06359656611979007,-0.0073322425842285155,0.007857234572712332
1761341792335485400,4.5524853515625,-0.06299801570475101,-0.0010389328599907457,0.0024770713377511126
1761341792345552400,4.562552490234375,-0.06389817941486835,-0.008589403038471936,0.009476232342980801
1761341792355618600,4.57261865234375,-0.064797758603096,-0.011956157791521399,0.004489155512256548
1761341792365684500,4.5826845703125,-0.06808627875447273,-0.002700235402025282,0.005780140604288317
1761341792375750700,4.592750732421875,-0.07526888373494148,-0.004184829670283943,0.0066100064240163185
1761341792385817600,4.602817626953125,-0.07556815894246101,-0.0011915478721261023,0.011814475165354088
1761341792395883500,4.612883544921875,-0.07107552369832992,-0.005228182977065444,0.012916499856812879
1761341792405949700,4.62294970703125,-0.05805763669312,-0.007151570521388203,0.0055744208651594815
1761341792416015600,4.633015625,-0.06314823783040047,-0.0056501529824919995,0.008355420752661302
1761341792426082600,4.64308251953125,-0.06808861684203148,-0.0045082346720620985,0.014125304824416525
1761341792436148700,4.653148681640625,-0.061207625156641,0.0015824103532359004,0.008468338508647866
1761341792446214400,4.66321435546875,-0.06704699883460997,-0.008146810370124876,0.01162451011778321
1761341792456280600,4.673280517578125,-0.05702186390459537,-0.013202120998315513,0.010286183319264092
1761341792466347500,4.683347412109375,-0.05911854392290115,-0.009229655437078326,0.014910486685624346
1761341792476413400,4.693413330078125,-0.07033785707354545,-0.0009940890712663531,0.016026078678132032
1761341792486479600,4.703479736328125,-0.0698912823498249,-0.001937087276112288,0.016747702916990966
1761341792496545500,4.713545654296875,-0.052232876062393185,-0.01620327557567507,0.008128808922553434
1761341792506612500,4.723612548828125,-0.06884381912350654,-0.009436576186027378,0.014213951222249306
1761341792516678700,4.7336787109375,-0.07317921797931194,-0.005289064585138112,0.0028406485197134314
1761341792526744600,4.74374462890625,-0.0667453855395317,-0.005754033482074737,0.0025076537056826055
1761341792536810800,4.753810791015625,-0.0627063392817974,0.0002561849844641983,0.005844154884363524
1761341792546877700,4.763877685546875,-0.05777239001095295,-0.01020315837804228,0.009158718225872144
1761341792556943600,4.773943603515625,-0.06854337487220764,-0.008511442431434988,0.016361164984549394
1761341792567009500,4.784009521484375,-0.06480711095333098,-0.006568674333207309,0.011408109154435806
1761341792577075500,4.794075439453125,-0.06989654304683209,-0.002857270860951394,0.00963421308340039
1761341792587142400,4.804142333984375,-0.06570669014155864,-0.005387172931060195,0.006113660574704408
1761341792597208600,4.81420849609375,-0.0640612610220909,0.0003108560474589467,0.006515610705409199
1761341792607274500,4.8242744140625,-0.07527998965084552,-0.003752520933933556,0.007990395965706557
1761341792617340700,4.834340576171875,-0.06794716254472732,-0.0033340397935360667,0.004804628369328566
1761341792627407600,4.84440771484375,-0.06330430517494678,-0.0075522785430774085,0.005846013481309637
1761341792637473500,4.8544736328125,-0.06614800416827202,-0.0013789967356249689,0.008789624618575907
1761341792647539700,4.864539794921875,-0.07901391548216342,0.004158562717866152,0.006849783696373925
1761341792657605600,4.874605712890625,-0.07078326275348663,-0.0040861368024721735,0.00827061027972959
1761341792667672600,4.884672607421875,-0.0665928253263235,-0.0058635217385366555,0.014998712958348915
1761341792677738800,4.89473876953125,-0.06300444544553756,-0.001975884916540235,0.014262480238825082
1761341792687804400,4.904804443359375,-0.06733984430134296,-0.011695333164557814,0.011217870112229139
1761341792697870600,4.91487060546875,-0.0694382778853178,-0.006621884091477841,0.023426988884666933
1761341792707937500,4.9249375,-0.0662970572501421,-0.0035776575573720037,0.0064227995891124
1761341792718003000,4.9350029296875,-0.06839607535600661,0.0009484415649436414,0.001939101136685349
1761341792728068900,4.94506884765625,-0.05822130282223224,-0.00007109247483313084,0.007737626781035214
1761341792738134800,4.955134765625,-0.06914309433102607,-0.010320793408341706,0.01411427197374869
1761341792748201700,4.96520166015625,-0.06629997985959053,-0.007157616669684648,0.012065623215097002
1761341792758268000,4.975267822265625,-0.0733335317581892,-0.009386142906732857,0.010961981955287046
1761341792768333800,4.985333740234375,-0.06884674173295498,-0.0010794657997786998,0.00039537425944581627
1761341792778400000,4.99539990234375,-0.07288754155635833,-0.002583714616578072,0.011804958418337628
1761341792788467000,5.005467041015625,-0.06570610561966896,-0.004028780592046678,0.005207998705562203
1761341792798532900,5.015532958984375,-0.06226327168941497,-0.004547909095324576,0.0078123633845243595
1761341792808599000,5.02559912109375,-0.06795125419795513,-0.00012033844403922557,0.013083020096714608
1761341792818665000,5.0356650390625,-0.06690028384029865,-0.0011673450126312673,0.007845461936527862
1761341792828732000,5.04573193359375,-0.0589683217972517,0.0007353468035347759,0.003212742368271574
1761341792838797800,5.0557978515625,-0.06166179866492748,0.003173533735889941,0.014076145620178431
1761341792848863700,5.06586376953125,-0.06360767203569412,-0.004104896301869302,0.00584613221231848
1761341792858930000,5.075929931640625,-0.07797112843096256,-0.006581515548471361,0.004101549000735395
1761341792868996900,5.085996826171875,-0.0706406394124031,-0.015495035974774508,0.009623061501723713
1761341792879062800,5.096062744140625,-0.05762158336341381,-0.004478643251396715,0.010972133456543087
1761341792889129000,5.10612890625,-0.06061316639482975,0.0002614091488532722,0.013523092014412395
1761341792899195000,5.11619482421875,-0.06674830814898014,-0.0016979264916852116,0.002715862229419872
1761341792909261800,5.12626171875,-0.06659867054522037,-0.0027549247313290834,0.0006784563839901238
1761341792919328000,5.136327880859375,-0.07227905426919459,-0.000344173795171082,0.005723364349175244
1761341792929394000,5.146393798828125,-0.05985737959146499,-0.005393748802319169,0.010830327532789669
1761341792939460000,5.156460205078125,-0.06763736594319343,0.005922631514631211,0.003736323284381069
1761341792949527000,5.166527099609375,-0.06539221736490726,-0.005206939259637147,0.002434209443558939
1761341792959592700,5.1765927734375,-0.07182721884846686,-0.005498999275080859,0.01911846433605533
1761341792969659000,5.186658935546875,-0.06644026511311531,-0.008915602785535156,0.009177240263251587
1761341792979724800,5.196724853515625,-0.06733633717000484,0.0010295987760648132,0.008738839712832123
1761341792989791700,5.206791748046875,-0.0641921939253807,-0.007543218453787266,0.006022077867691405
1761341792999858000,5.21685791015625,-0.05670856017172336,-0.006713124305196106,0.012789078651438466
1761341793009923800,5.226923828125,-0.06538695666790008,-0.0040826479374431075,0.014416812284011394
1761341793019990000,5.236989990234375,-0.0664361734598875,-0.00297855915306136,0.012785334058082663
1761341793030057000,5.247056884765625,-0.07287468207478523,-0.006865666252095252,0.008401337687042541
1761341793040123000,5.257122802734375,-0.07646832265257834,-0.005998345365654677,0.01130205953065306
1761341793050189000,5.26718896484375,-0.06614508155882358,0.00005032368144020438,0.008557354799238965
1761341793060254700,5.277254638671875,-0.07153612694740295,-0.0033811120719648897,0.004145205479371361
1761341793070322000,5.287322021484375,-0.06809563110470772,-0.005738507119379938,0.008717764958762564
1761341793080387800,5.297387939453125,-0.06061491996049881,-0.002560059746354818,0.011015963465115054
1761341793090453800,5.307453857421875,-0.06929273193478584,-0.0027586875909939405,0.007017989003285765
1761341793100520000,5.31752001953125,-0.06884791077673434,-0.007518010947294533,0.011367612747265957
1761341793110587000,5.3275869140625,-0.06151625271439552,-0.004382416335307062,0.004327950768289156
1761341793120652800,5.33765283203125,-0.07199030045568942,-0.0023203509726561606,0.014153585637407377
1761341793130719000,5.347718994140625,-0.06301672040522098,-0.0030188911634497343,0.018889267823216503
1761341793140785000,5.357784912109375,-0.06376783103346824,-0.007987674285657704,0.006360274013224989
1761341793150851800,5.367851806640625,-0.058977089625596994,-0.0074809120736084875,0.00875187729091849
1761341793160918000,5.37791796875,-0.06989946565628051,-0.01071319025941193,0.006190940761729143
1761341793170984000,5.38798388671875,-0.06780220111608505,-0.007819788639154284,0.005918558127712458
1761341793181049900,5.3980498046875,-0.062112465041875835,-0.009643296005576849,0.009568810563837177
1761341793191116800,5.40811669921875,-0.06944178501665592,-0.004127802253421396,0.003992677232204005
1761341793201182700,5.4181826171875,-0.06854454391598701,-0.006809022427722812,0.007850247709499672
1761341793211249000,5.428248779296875,-0.07078618536293506,-0.005877732926979661,0.0033354280330240723
1761341793221314800,5.438314697265625,-0.07393091312944888,-0.00429977955315262,0.004232221609121188
1761341793231382000,5.448382080078125,-0.06225976455807686,-0.007832008799910545,0.011998763957386836
1761341793241448000,5.458447998046875,-0.06809446206092834,-0.014180409712251275,0.017418551383260636
1761341793251513900,5.468513916015625,-0.06704524526894093,-0.005257135076913983,0.010764619052549823
1761341793261580000,5.478580078125,-0.06405424675941467,-0.003707567547354847,0.007892789943283423
1761341793271647000,5.48864697265625,-0.06360767203569412,-0.003795665955916047,0.0019749944339739157
1761341793281713000,5.498712890625,-0.06390577819943427,-0.005307604888826608,-0.005921467037429101
1761341793291779000,5.508779052734375,-0.06779694041907787,-0.006197703862655907,0.008551865773368627
1761341793301844700,5.5188447265625,-0.06689502314329147,-0.015329232687503098,0.00967633519207593
1761341793311912000,5.528911865234375,-0.05896539918780327,-0.009330321066267787,0.0036953473865985868
1761341793321977900,5.538977783203125,-0.07093874557614326,-0.0018946729064919054,0.006467889973009005
1761341793332043800,5.549043701171875,-0.0673462740421295,0.0010241554159671068,0.008392729688901453
1761341793342110000,5.55910986328125,-0.06031330666542053,-0.003114497025031596,0.010189129852689802
1761341793352177000,5.569177001953125,-0.06300561448931694,-0.011222728950437157,0.011248233284451998
1761341793362242800,5.579242919921875,-0.06525193211138249,-0.000038432314246892926,0.0026626616043038663
1761341793372309000,5.58930908203125,-0.07018997303545474,-0.0028918124513700604,0.004166298499749973
1761341793382375000,5.599375,-0.06913958719968795,-0.008959131400007755,0.007752089131227694
1761341793392442000,5.609442138671875,-0.07767068417966365,-0.002196030473243445,0.00953235557754524
1761341793402508000,5.619508056640625,-0.0713859048217535,-0.0015015088704414664,0.007371040224656462
1761341793412573700,5.62957373046875,-0.06390227106809615,-0.0147462999667041,0.005576562589895911
1761341793422639900,5.639639892578125,-0.07033727255165577,-0.005296919098030775,0.01119636609989684
1761341793432706800,5.649706787109375,-0.06749298903644084,0.0045329307219013565,0.0020958763007074594
1761341793442773000,5.65977294921875,-0.06868833630084992,-0.007054010164737701,0.009918094358965754
1761341793452839000,5.6698388671875,-0.07392740599811076,-0.005939984508231282,0.002978015730367042
1761341793462904800,5.67990478515625,-0.06300561448931694,-0.007090926375333219,0.005342749267444014
1761341793472972000,5.689971923828125,-0.06599778204262256,-0.006804656779859215,0.008597389982105233
1761341793483038000,5.700037841796875,-0.06435702909827232,-0.0056787762887775895,0.004429561678972095
1761341793493103900,5.710103759765625,-0.0668979457527399,-0.0029549408154562113,0.006082694614282809
1761341793503170000,5.720170166015625,-0.06016542262732982,-0.011617975345719605,0.0010163100362289696
1761341793513237000,5.730237060546875,-0.07737140897214412,-0.006046056964900344,0.003823366813594475
1761341793523303000,5.740302978515625,-0.06390636272132397,0.0049954701997339725,0.009086438440950587
1761341793533368800,5.750368896484375,-0.06989069782793521,-0.0019422383752651512,0.0037112071094335987
1761341793543434800,5.760434814453125,-0.07123802078366279,-0.00391045144200325,0.0029221527907066047
1761341793553502000,5.770501953125,-0.060763973042368885,-0.0037499453843571244,0.01382941801722627
1761341793563567900,5.78056787109375,-0.06525427019894123,-0.002042319482564926,0.010222981889941729
1761341793573633800,5.7906337890625,-0.0654033232808113,-0.002835826214123517,0.005842990407161414
1761341793583700000,5.800699951171875,-0.06779927850663661,-0.0004922222300432622,0.0098114876127569
1761341793593766000,5.810765869140625,-0.07169219429194927,-0.007880633714608848,0.004364930910966359
1761341793603833000,5.8208330078125,-0.06585457417964935,-0.0027319457145407794,0.013319377002702094
1761341793613899000,5.83089892578125,-0.06809796919226646,-0.0018612090283073484,0.011513003434170967
1761341793623965000,5.84096484375,-0.06375555607378483,-0.007856467387732118,0.006049833524296991
1761341793634030800,5.85103076171875,-0.0624058950304985,-0.0050252625497989355,0.005812755099101923
1761341793644097800,5.861097900390625,-0.06704349170327187,-0.0013208550739102064,0.011215659888833761
1761341793654163700,5.871163818359375,-0.06674597006142138,-0.0021631145843304693,0.016282272795750757
1761341793664230000,5.88122998046875,-0.06734510499835014,-0.007661511071212589,0.005637033206014894
1761341793674296800,5.891296875,-0.06764145759642123,-0.005103003961127251,0.009346765310992487
1761341793684363000,5.901363037109375,-0.06644026511311531,-0.0040904293850995595,0.010227680897945537
1761341793694429000,5.911428955078125,-0.07362637722492217,-0.006049326634220778,0.003131260930164717
1761341793704494800,5.921494873046875,-0.07152911268472671,-0.009883004779275506,0.007787603402603417
1761341793714561800,5.931561767578125,-0.07272504447102546,-0.007551620955951512,0.004655433723563328
1761341793724628700,5.941628662109375,-0.06240297242105007,-0.0023598062002100047,0.005046684363740496
1761341793734694400,5.9516943359375,-0.06674421649575234,-0.0036481289776973424,0.004179066649777814
1761341793744760600,5.961760498046875,-0.06779226424396037,-0.0072376961685717105,0.005255335845472291
1761341793754826500,5.971826416015625,-0.07288111181557178,-0.008218779627792537,-0.0035464221688918766
1761341793764893400,5.9818935546875,-0.0748281542301178,-0.005905534249357879,-0.0024502335631754247
1761341793774959600,5.991959716796875,-0.06839490631222725,-0.014224632446467876,0.006957276358571835
1761341793785025500,6.002025634765625,-0.061814943400025364,-0.007297025140374899,0.006277628097916021
1761341793795091700,6.012091796875,-0.07438742472529411,-0.0034234533763490616,0.007116636205324903
1761341793805158700,6.02215869140625,-0.06735328830480575,0.001187036093790084,0.003727395625831559
1761341793815224600,6.032224609375,-0.06795066967606544,-0.006473726058751344,0.007747527120541781
1761341793825290800,6.042290771484375,-0.07094517531692981,-0.004736673133075237,0.007267287589237094
1761341793835356400,6.0523564453125,-0.07962415633499621,-0.01372598047563806,0.015775213756179435
1761341793845423600,6.062423583984375,-0.07139233456254004,-0.007824830140452831,0.006371188132883981
1761341793855489500,6.072489501953125,-0.06615384938716888,-0.0027995493243448437,0.003909903452731668
1761341793865555500,6.082555419921875,-0.07483399944901466,-0.009792878810409456,0.00013774166998919098
1761341793875621600,6.09262158203125,-0.0637614012926817,-0.005572831696271896,0.00743476681036409
1761341793885688600,6.1026884765625,-0.06526186898350715,-0.0036340821860358116,0.0022474638329586013
1761341793895754500,6.11275439453125,-0.0740916566491127,-0.0010422938608564435,0.005301471975562163
1761341793905820700,6.122820556640625,-0.07214636780023574,-0.002428067397139966,0.00848801132349763
1761341793915886600,6.132886474609375,-0.06795651489496231,-0.011564601190667599,0.007416244772984646
1761341793925953500,6.14295361328125,-0.0681090751081705,-0.01082465127725154,0.005785972123453393
1761341793936019700,6.153019775390625,-0.06915595381259917,-0.008747698872722684,0.0031504999201744793
1761341793946085600,6.163085693359375,-0.05957914717197418,-0.004989150056801736,0.006613604886899702
1761341793956151600,6.173151611328125,-0.06676584380567073,-0.0017223485468886792,0.004289395156456158
1761341793966218500,6.183218505859375,-0.06302724179923534,-0.0067210701496340335,0.005002644292614423
1761341793976284400,6.193284423828125,-0.06707271779775618,-0.006201758983265609,0.005778176976065151
1761341793986350600,6.2033505859375,-0.06752279965281487,-0.0061251866157166655,0.005140075435349717
1761341793996416500,6.21341650390625,-0.06513152060210704,-0.004629614295717329,0.00247482458173763
1761341794006483500,6.2234833984375,-0.06693126350045203,-0.0029687136124819514,0.003321175745385699
1761341794016549600,6.233549560546875,-0.06768062056303024,-0.007588683297019451,0.008309965042583644
1761341794026615600,6.243615478515625,-0.06244388895332813,-0.007710610909946262,0.006221870189532637
1761341794036681700,6.253681640625,-0.06603694500923156,-0.006431859678402542,0.010398224292416125
1761341794046748700,6.263748779296875,-0.06888473565578461,0.0003525032320991158,0.00617257855455391
1761341794056814600,6.273814697265625,-0.06140402451157569,-0.0016819617375731467,0.003812210665340535
1761341794066880800,6.283880859375,-0.07037994264960289,-0.0006160678054206073,0.007978833392076194
1761341794076946400,6.293946533203125,-0.06529752481877804,0.002439940498024225,-0.00016615948029793798
1761341794087013400,6.304013427734375,-0.0684404990196228,-0.006966094419267028,0.009329444283433259
1761341794097079600,6.31407958984375,-0.06185469088852405,-0.005525722885224968,0.010434382451185956
1761341794107145500,6.3241455078125,-0.06589198358058929,-0.003425773197598755,0.0022889557539718225
1761341794117211600,6.334211669921875,-0.07831190469264984,-0.005833546725381165,0.010957625440577975
1761341794127278600,6.344278564453125,-0.07067746429145336,0.0030157858909107744,0.0043677713220240545
1761341794137344500,6.354344482421875,-0.07097849306464195,-0.0018841697787865994,0.012760601475625298
1761341794147410700,6.36441064453125,-0.06678688659369945,-0.005078180047124624,0.0074232362027745686
1761341794157476600,6.3744765625,-0.07127309209704398,-0.003862885973230004,0.005498145325132645
1761341794167543600,6.38454345703125,-0.0675298139154911,-0.003937266383692622,0.00575977366969455
1761341794177609700,6.394609619140625,-0.07007540674507617,-0.005325177078135311,0.006166450207866728
1761341794187675400,6.40467529296875,-0.07201952655017375,-0.0007677512357942759,0.004298884504009038
1761341794197741600,6.414741455078125,-0.06393851142525672,-0.0034680414367467163,0.003685182185610756
1761341794207808500,6.42480859375,-0.06005027181506157,-0.007238061494752764,0.008938563536014407
1761341794217874400,6.43487451171875,-0.07007482222318649,-0.01281029040282592,0.013589174953987822
1761341794227940600,6.444940673828125,-0.06902560543119907,-0.013792323710117488,0.006523086192389019
1761341794238006500,6.455006591796875,-0.06259001942574978,-0.008336542522255332,0.0079401407829253
1761341794248073500,6.465073486328125,-0.06499006630480289,-0.004205032208096236,0.00368350625175517
1761341794258139600,6.4751396484375,-0.07322013451159,0.002533372668828815,0.002896333362860605
1761341794268205600,6.48520556640625,-0.06678805563747882,0.0030664748985320327,0.00585389539366588
1761341794278271700,6.495271728515625,-0.06439385397732257,-0.002757792541850358,-0.0005427422743057832
1761341794288338700,6.505338623046875,-0.07337620185613632,-0.004074263701587915,0.013212290765880607
1761341794298404600,6.515404541015625,-0.0765226831883192,-0.006034055999852716,0.005174082736228592
1761341794308470500,6.525470458984375,-0.06949263842105866,-0.009315324426535517,0.003770303185796365
1761341794318536400,6.535536376953125,-0.07458207051455974,-0.005513393126614392,0.006860551685560494
1761341794328603400,6.545603271484375,-0.0715910720050335,-0.006145297821983695,0.009097507824236526
1761341794338669600,6.555669677734375,-0.0584235473960638,-0.006096417178958654,0.003973282978567295
1761341794348735500,6.565735595703125,-0.0700958650112152,-0.0024680340813472866,0.002573462650622241
1761341794358801700,6.5758017578125,-0.0603670826792717,-0.00794390820916742,-0.0009694204208906739
1761341794368868600,6.58586865234375,-0.06620587183535098,-0.0027518194587901235,-0.0031857584632234647
1761341794378934500,6.5959345703125,-0.06755377931296826,-0.004710789773147553,0.007152935927989892
1761341794389000700,6.606000732421875,-0.07010171023011207,0.000406315778568387,0.0074138518864987416
1761341794399066600,6.616066650390625,-0.06636018561422824,0.0005402626228518784,0.002824738564528525
1761341794409132500,6.626132568359375,-0.06785773069560527,-0.006577825754042714,0.004822465420118533
1761341794419199700,6.63619970703125,-0.0786357298195362,0.0039029074563644824,0.007782045878074131
1761341794429265400,6.646265380859375,-0.06531739856302737,0.001788910977076739,0.0025332448046654463
1761341794439331600,6.65633154296875,-0.07114917345643043,-0.004378562144096941,-0.002101881349808536
1761341794449397500,6.6663974609375,-0.06994973453879356,0.000933810251392424,0.000354060434945859
1761341794459464400,6.67646435546875,-0.06965338194072246,-0.004646930756699294,0.0032807067376794292
1761341794469530600,6.686530517578125,-0.07189969956278801,0.0004840206572785973,0.006190570868970826
1761341794479596500,6.696596435546875,-0.07130231819152831,-0.006685688308998942,0.0018469704404007643
1761341794489662700,6.706662841796875,-0.062322892922163003,-0.0035807445636019107,0.0036648791830986736
1761341794499729700,6.716729736328125,-0.06905600056946277,-0.0013910707659088074,0.006106034390674904
1761341794509795600,6.726795654296875,-0.06322013402283191,-0.0024464433040469885,0.00264577440158464
1761341794519861800,6.73686181640625,-0.06546528260111809,-0.006460154191125184,0.00020398443976882844
1761341794529927400,6.746927490234375,-0.0636737230092287,-0.008559574155788868,0.008455561225465499
1761341794539994400,6.756994384765625,-0.06562193446755409,-0.005017389770597219,0.00701542258686386
1761341794550060500,6.767060546875,-0.06068798519670963,-0.008317983952257782,-0.00016490367155056447
1761341794560126500,6.77712646484375,-0.06757248401343822,-0.007238755614496767,0.0069003311401000245
1761341794570192600,6.787192626953125,-0.06906593744158744,-0.007975782918464392,0.00567555685180705
1761341794580259600,6.797259521484375,-0.05874386539161205,-0.006678929774649441,0.013044427952263503
1761341794590325500,6.807325439453125,-0.07116261745989322,0.008970328647457063,0.004974829270504415
1761341794600391700,6.8173916015625,-0.062034139108657835,-0.0077998235633596775,0.004876519995182752
1761341794610457600,6.82745751953125,-0.07804477818906307,-0.009778978149220347,0.006600101517932489
1761341794620524500,6.837524658203125,-0.076849430924654,-0.0006050166884437203,0.008425225452706218
1761341794630590700,6.8475908203125,-0.06727203976213932,-0.008302402790635825,0.0069436268591322
1761341794640656400,6.857656494140625,-0.06143558869361877,-0.00217871401226148,0.0027894891546340656
1761341794650722600,6.86772265625,-0.06966682594418526,-0.00991442283084616,0.004076373460283503
1761341794660789500,6.87778955078125,-0.061439680346846576,-0.0015720716223120688,0.008841898228507488
1761341794670855400,6.88785546875,-0.06548164921402931,-0.0010494359876960515,0.000118123654066585
1761341794680921600,6.897921630859375,-0.06817687964737415,-0.005208912021014839,0.001195192000782117
1761341794690987500,6.907987548828125,-0.06278700330257415,-0.0011426854954101145,0.00033195363441482185
1761341794701054500,6.918054443359375,-0.057847793334722515,-0.005067749984655529,0.008142047430039384
1761341794711120600,6.92812060546875,-0.07311375152766704,-0.002848813559859991,0.0012800435729091986
1761341794721186800,6.938186767578125,-0.06847673937678336,-0.0011125278191640973,-0.0063672471767058595
1761341794731253000,6.9482529296875,-0.07012333754003047,0.002770396295096725,-0.002825181522523053
1761341794741320000,6.95831982421875,-0.07371405550837516,-0.006703753688652068,0.00530427128742449
1761341794751385900,6.9683857421875,-0.06757949827611447,0.00007847206369042396,-0.005745005358825437
1761341794761452000,6.9784521484375,-0.066079030585289,0.0027859043914824724,-0.0018357777595287188
1761341794771518000,6.98851806640625,-0.07026888349056243,-0.00036459552869200706,0.003277797827962786
1761341794781585000,6.9985849609375,-0.07834989861547946,0.0005743658218532801,0.00015898082084022462
1761341794791651000,7.008651123046875,-0.07730535799860953,-0.002115275120921433,0.006835485742962919
1761341794801716700,7.018716796875,-0.06458148550391196,-0.0016125680294819175,0.008790706897387281
1761341794811783000,7.028782958984375,-0.07056757417619228,-0.005474960812367499,0.0042881758803268895
1761341794821849900,7.038849853515625,-0.061437926781177515,-0.0011676555398851631,0.008184091906901449
1761341794831915800,7.048915771484375,-0.06562719516456127,-0.0027185930426232513,0.009324037455953657
1761341794841982000,7.05898193359375,-0.06936755073666573,-0.006352145505696535,0.0063915733337868005
1761341794852048000,7.0690478515625,-0.06697568716406822,0.002391662643197924,-0.0016423375466605647
1761341794862114800,7.07911474609375,-0.06607610797584057,-0.0044348771749064325,0.004043626534729264
1761341794872181000,7.089180908203125,-0.05785071594417095,-0.004726188271678984,0.00822768445345573
1761341794882247000,7.099246826171875,-0.07131926932632923,-0.00662782064191997,0.011207097556465305
1761341794892313000,7.10931298828125,-0.07356675599217415,-0.006800948719121515,0.007342088124807924
1761341794902380000,7.119380126953125,-0.07416472188532353,0.002738813846744597,0.005353521823207847
1761341794912446000,7.129446044921875,-0.0764098704636097,-0.0034038901593536138,0.003957295391568914
1761341794922512000,7.139511962890625,-0.05770341642796993,0.0012928345558233557,0.0016437349193030967
1761341794932577800,7.149577880859375,-0.07895312520563602,0.0002857764051295817,-0.0022835260936059057
1761341794942644700,7.159644775390625,-0.07072539508640766,-0.0047514323107898234,0.00488843419526238
1761341794952711000,7.1697109375,-0.06788461870253086,-0.005875066045857966,-0.0013386099263094364
1761341794962776800,7.17977685546875,-0.07297346627414227,-0.002099438230972737,0.0005213158937869593
1761341794972843000,7.189843017578125,-0.06833645412325859,-0.004594670846499503,0.007453772904933429
1761341794982910000,7.199909912109375,-0.06849076790213585,-0.0036400735354050993,0.002703600969468243
1761341794992976000,7.209975830078125,-0.05562310302257537,0.001805734247714281,-0.003434719122457318
1761341795003042000,7.2200419921875,-0.07089023025929928,0.004684029630385339,-0.0008404876784421503
1761341795013108000,7.23010791015625,-0.07627893756031989,-0.008875617835018784,0.0016279436951270325
1761341795023175000,7.2401748046875,-0.06296469795703888,-0.0031881833157502114,0.0007733224600553512
1761341795033241000,7.250240966796875,-0.0656605129122734,0.003939330476615577,-0.0031576192141277715
1761341795043306800,7.260306640625,-0.0638742140173912,0.002968384818919003,0.0034521543144481253
1761341795053373000,7.270373046875,-0.06447393347620964,-0.0029602015124633907,0.004327644807612523
1761341795063438800,7.28043896484375,-0.06702244891524314,-0.0017312625057063996,0.005919060451211407
1761341795073505800,7.290505859375,-0.07031681428551674,-0.0032851408842019736,-0.0020254870787728575
1761341795083572000,7.300572021484375,-0.06957213339805603,-0.001813059037644416,0.0038906735958764327
1761341795093638000,7.310637939453125,-0.06598024638593196,-0.003021576310880482,0.007763446208881214
1761341795103704000,7.3207041015625,-0.06792787332236766,-0.0024857889337465164,-0.002247824592562392
1761341795113771000,7.33077099609375,-0.0685229166060686,-0.00009732289463281632,-0.00017453458299860358
1761341795123837000,7.3408369140625,-0.07330956636071205,0.008992412615101784,0.006569879909604787
1761341795133903000,7.350903076171875,-0.0659744011670351,0.001134703118354082,0.002194034878979437
1761341795143968800,7.36096875,-0.06657470514774322,0.002535729022696614,0.004276444343337789
1761341795154035700,7.37103564453125,-0.07016951476931571,-0.005198810752108693,0.010246221201634034
1761341795164102000,7.381101806640625,-0.06552841096520423,-0.004718753883894532,0.004770474937977269
1761341795174167800,7.391167724609375,-0.06358312211632729,-0.0013229191668331622,0.0009133337189443409
1761341795184234000,7.40123388671875,-0.07136486203372477,-0.0015957447588443754,0.0029869022897211833
1761341795194301000,7.411301025390625,-0.07196867314577102,-0.00019921236652880906,-0.0010299732354003936
1761341795204366800,7.421366943359375,-0.07495967165529728,0.00524760006358847,0.01000768147171475
1761341795214433000,7.43143310546875,-0.07510930925905704,-0.006703260498307645,-0.0006428827471099794
1761341795224499000,7.4414990234375,-0.07226385670006275,-0.004986592773534357,0.0001679176125442609
1761341795234566000,7.45156591796875,-0.06867313873171806,-0.0001353168174624443,0.00924136414118111
1761341795244632000,7.461632080078125,-0.06538520310223102,-0.0006289455533027648,0.007792982830619439
1761341795254698000,7.471697998046875,-0.07077566396892071,-0.00782523199925199,0.01187993705042172
1761341795264764000,7.481763916015625,-0.07212181788086891,-0.000496021622326225,0.002848055508034304
1761341795274830800,7.491830810546875,-0.06658814915120602,-0.0011354885696433484,0.008165236509381793
1761341795284896800,7.501896728515625,-0.07557225059568881,0.0029987068919464944,0.0019293743271147832
1761341795294963000,7.511962890625,-0.06914017172157765,0.0026581315596587956,0.00044492162275128064
1761341795305028900,7.52202880859375,-0.06944178501665592,0.00228524312665686,0.007552780866576358
1761341795315095800,7.532095703125,-0.07034253324866295,0.0030075295192189514,0.0030678448717109856
1761341795325162000,7.542161865234375,-0.06779986302852631,-0.00184049503384158,0.006133653049962595
1761341795335228000,7.552227783203125,-0.06780337015986442,0.004588350703567266,0.0012259570318041368
1761341795345294000,7.562294189453125,-0.08067161956131458,0.000975037310924381,0.007917732588294892
1761341795355361000,7.572361083984375,-0.06496084021031856,-0.0032130620286799963,-0.0018311700830701738
1761341795365427000,7.582427001953125,-0.07454115398228169,0.006479644342884421,0.001698141120816581
1761341795375492900,7.592492919921875,-0.06870762552320957,-0.0023716245021671053,0.010331817125855012
1761341795385558800,7.602558837890625,-0.06930734498202801,-0.0004994191558100283,0.006792509684339166
1761341795395625700,7.612625732421875,-0.0661661243468523,0.0032847572917118666,0.010796324798488058
1761341795405692000,7.62269189453125,-0.061675827190279954,-0.0009678586514666675,0.0024197379602119325
1761341795415757800,7.6327578125,-0.06152618958652019,-0.0018754750156775115,-0.0006033818537835032
1761341795425824000,7.642823974609375,-0.06930617593824863,0.0019436448810622095,-0.00038401718179229645
1761341795435891000,7.652890869140625,-0.07080255197584628,0.0018275442207232116,0.0025001188531983643
1761341795445956900,7.662956787109375,-0.07469312967360019,-0.0014824753764085472,0.0013051780141657217
1761341795456023000,7.67302294921875,-0.07304945411980152,-0.002741170200612396,0.006473365299147553
1761341795466089000,7.6830888671875,-0.07125321835279465,-0.000810951056703925,0.00827208985076286
1761341795476156000,7.693156005859375,-0.066910805234313,-0.001852112406399101,0.006137776669231243
1761341795486222000,7.70322216796875,-0.07185059972405433,0.0028287936851382253,0.007687156969122588
1761341795496287700,7.713287841796875,-0.0763397278368473,0.007313318688049912,-0.0025167366278590632
1761341795506354000,7.72335400390625,-0.07035539273023605,0.0026850378328934312,-0.00714939683061093
1761341795516419800,7.733419921875,-0.07005144134759902,-0.0004899937403388321,0.0036561844199895855
1761341795526486800,7.74348681640625,-0.06855564983189105,-0.0010629165237769484,-0.0011033992312150076
1761341795536553000,7.753552978515625,-0.06959785236120224,0.0041249709755182265,-0.004154626328265294
1761341795546619000,7.763618896484375,-0.06406418363153935,-0.003549070783704519,-0.00019285569097846745
1761341795556685000,7.77368505859375,-0.07229542088210582,-0.0014379969138652085,0.0002487368969479576
1761341795566752000,7.783751953125,-0.06466390309035777,0.0061652263651601966,0.0028020381089532745
1761341795576818000,7.79381787109375,-0.06271978328526019,0.0012293043329380453,0.0010416408403078094
1761341795586884000,7.803884033203125,-0.06347089391350746,0.0004668503267690539,0.00387406495437026
1761341795596949800,7.81394970703125,-0.06960603566765784,0.0011672719473950564,0.0064245120555860916
1761341795607017000,7.824016845703125,-0.06406944432854653,-0.0009227774007245897,0.002953123317705467
1761341795617083000,7.834082763671875,-0.06631283934116364,0.0009773023332469164,0.0010667296157917008
1761341795627148800,7.844148681640625,-0.06556815845370292,0.002614328950550407,0.0025175631783436983
1761341795637215000,7.854215087890625,-0.06931377472281455,0.005586239167116582,-0.005366796863311901
1761341795647282000,7.864281982421875,-0.06646832216382026,0.003996412692405283,-0.0004004614265169948
1761341795657347800,7.874347900390625,-0.06182897192537784,0.0024792130624875426,0.004804815598996356
1761341795667414000,7.8844140625,-0.06661795976758003,-0.0013963679955340921,0.005946907439362257
1761341795677480000,7.89447998046875,-0.06990998705029487,0.0002182823931798339,0.008434723933413624
1761341795687547000,7.904546875,-0.06676409024000167,0.000689900226611644,0.005192929000593722
1761341795697613000,7.914613037109375,-0.06422609619498253,-0.0023422522772103545,-0.0004243446256034076
1761341795707679000,7.924678955078125,-0.06392799003124237,-0.006338902431633323,0.003111642914242111
1761341795717744000,7.934744140625,-0.06497428421378135,0.0018255531930364667,0.002431994653586298
1761341795727811000,7.94481103515625,-0.0690156685590744,0.0006783193866722286,-0.001259503108379431
1761341795737877200,7.954877197265625,-0.0726058020055294,-0.0018920425579883157,0.0002882012576563284
1761341795747943200,7.964943115234375,-0.0712596480935812,-0.0032040019393898547,-0.0018906406187685204
1761341795758008800,7.9750087890625,-0.06826923410594463,0.001240556379314512,-0.006117373202019371
1761341795768076000,7.985075927734375,-0.06946925754547119,0.0020743403223343194,-0.0014262516771443188
1761341795778142000,7.995141845703125,-0.06243687469065189,-0.0011733728946186602,0.00717541718785651
1761341795788208000,8.0052080078125,-0.07037175934314728,-0.002923047839850187,0.004850527037400752
1761341795798274000,8.015274169921875,-0.06109422791004181,0.008757306951284408,-0.004272229392523877
1761341795808340000,8.025340087890624,-0.06169394736886024,0.00029638913068920375,-0.003572826118627563
1761341795818406100,8.03540625,-0.06528349629342556,-0.0024532566373236474,-0.002487615564651787
1761341795828472000,8.04547216796875,-0.07411211491525173,-0.004405322286859154,-0.000716637536487542
1761341795838539000,8.0555390625,-0.07022445982694625,-0.0033818975232541557,0.006520862269261851
1761341795848605200,8.065605224609374,-0.07217033319771289,-0.000988700510095805,-0.0014730864935554562
1761341795858670800,8.0756708984375,-0.06738309892117977,0.0027809907543472944,-0.0027810272869654
1761341795868737000,8.085737060546874,-0.06199556066393852,0.005045592951774597,0.005455822287057526
1761341795878804000,8.095803955078125,-0.06513911938667297,0.0003273687908425927,-0.0012288248423254116
1761341795888870000,8.105869873046874,-0.06648936495184898,-0.002214168918132782,-0.003883864829177037
1761341795898936000,8.11593603515625,-0.07277472883164882,0.004422967541404068,-0.005826308700419031
1761341795909002000,8.126001953125,-0.06513970390856266,-0.0012340535732917486,0.0020134267482208087
1761341795919069000,8.13606884765625,-0.06498655917346477,-0.0011167290702462195,0.00687446147990413
1761341795929135000,8.146135009765626,-0.07022562887072563,-0.0007398403155617415,-0.0022434269786579535
1761341795939201000,8.156200927734375,-0.06933014133572578,0.0054764038507826625,-0.003548285332415253
1761341795949267200,8.16626708984375,-0.06050035367012024,-0.0005430391018278897,-0.005544820311339572
1761341795959334100,8.176334228515625,-0.061246788123250004,-0.0007531929874792694,0.0022693925369763747
1761341795969399800,8.18639990234375,-0.07247136197090148,0.0011145736457780003,-0.0013607075936859473
1761341795979466000,8.196466064453125,-0.07995265763700007,-0.0009701236737892031,0.0012251259147422389
1761341795989532000,8.206531982421875,-0.06962824749946595,0.004741020514629781,-0.00013175945377442985
1761341795999599000,8.21659912109375,-0.0676823741286993,0.005016202460508793,0.002893228090321645
1761341796009665000,8.2266650390625,-0.06409399424791336,0.004542027343809605,0.003186000491818413
1761341796019731000,8.23673095703125,-0.06259528012275696,0.006714275082666426,-0.004406349766743369
1761341796029797000,8.246797119140625,-0.07232055532336235,0.0033908480146899816,0.005452260356792248
1761341796039864000,8.256864013671875,-0.06498539012968539,0.0043179727969691155,0.004435904654790647
1761341796049930000,8.266929931640625,-0.07426233704090118,0.007809815234411507,0.005257550635444932
1761341796059996200,8.27699609375,-0.07217208676338195,0.005308043280243873,0.002234768748166971
1761341796070062000,8.28706201171875,-0.06334872883856296,0.009568751198332757,-0.00003860127760563046
1761341796080129000,8.29712890625,-0.0681400547683239,0.007909695412311702,0.0091515806656098
1761341796090195000,8.30719482421875,-0.07232990767359733,0.00026657851431518794,0.0012163763527059926
1761341796100260900,8.3172607421875,-0.0634995354861021,0.006795085233915597,-0.005131371539086103
1761341796110327000,8.3273271484375,-0.057361471122503276,-0.0028809987964108583,0.010348567331256345
1761341796120394000,8.33739404296875,-0.07247837623357772,0.004757825518958271,0.005284899866674095
1761341796130460000,8.3474599609375,-0.0705313338190317,0.008468333942070604,0.001143448113813065
1761341796140526000,8.357526123046876,-0.06604162118434906,0.005907799271680414,-0.001221609650249593
1761341796150592000,8.367592041015625,-0.07007949839830398,0.00008124854266643523,0.0005970480111194774
1761341796160659200,8.3776591796875,-0.06783551886379718,0.005482541330624371,-0.006250050537823699
1761341796170725000,8.38772509765625,-0.05990472586452961,0.0040877259713597595,0.00032533209738321603
1761341796180791000,8.397791015625,-0.057361471122503276,-0.00020823592320084571,0.006361643986403941
1761341796190857000,8.40785693359375,-0.06334580622911452,-0.0007141396187245845,-0.002053420831891708
1761341796200924200,8.417924072265626,-0.06394318760037422,0.001474840059224516,-0.0019278856229269876
1761341796210990000,8.427989990234375,-0.06140227094590663,0.004296217622887343,-0.003203289553336799
1761341796221056000,8.438055908203125,-0.06379764164984225,0.00570571909463033,-0.00470099446491804
1761341796231123000,8.448123046875,-0.0802566090196371,0.005214081386476755,0.003297205781331286
1761341796241189000,8.458189208984376,-0.0705319183409214,0.00893101955037564,0.004072966793645173
1761341796251255000,8.468255126953125,-0.06768880386948585,0.002958995936065912,0.002985107624856755
1761341796261321000,8.478321044921875,-0.0687368516176939,0.005117598742060363,0.0018872476518619805
1761341796271387100,8.48838720703125,-0.06529752481877804,0.01044449285324663,0.0006998553650453686
1761341796281454000,8.4984541015625,-0.06873977422714234,-0.004193761895410716,-0.003963638367387466
1761341796291520000,8.50852001953125,-0.07412555891871452,0.0040088703151792285,0.00688202373185195
1761341796301586200,8.518586181640625,-0.07711655742824078,0.007498721724934876,0.0014575509977061301
1761341796311651800,8.52865185546875,-0.07352700850367545,0.0062405200910754495,0.006739551087818108
1761341796321719000,8.538718994140625,-0.0777162768870592,0.0026339834990911186,0.0014583912479225545
1761341796331785000,8.548784912109374,-0.07831541182398796,0.0014518610424362121,0.00026796218722593035
1761341796341851000,8.558850830078125,-0.06754501148462295,-0.0009549443709664046,0.004108567829988897
1761341796351917000,8.5689169921875,-0.061114101654291146,0.0034878238494507967,0.006184205060265958
1761341796361984000,8.57898388671875,-0.06979834336936473,-0.00004497165288776159,-0.0030056709222728386
1761341796372050000,8.5890498046875,-0.07698211739361285,0.0011625957722775637,0.0025156269495841114
1761341796382116000,8.5991162109375,-0.07384148128032685,-0.0026835217292420564,-0.001146242859098129
1761341796392182000,8.60918212890625,-0.07399170340597629,0.0041081111722625786,0.006594580526021309
1761341796402249200,8.619249267578125,-0.06501812335550784,0.00789164829896763,-0.006872210157313384
1761341796412315100,8.629315185546876,-0.07040799970030784,0.003404803474806249,-0.001306557120499201
1761341796422381000,8.639381103515625,-0.0579880785882473,0.008061123114358634,0.006412894683028571
1761341796432447000,8.649447021484375,-0.07549509370625018,0.007283855131547897,0.005545331767993047
1761341796442514000,8.659513916015625,-0.0754945091843605,0.008472169866971671,0.008541559008485636
1761341796452580000,8.669580078125,-0.07699146974384784,0.002344590364769101,0.004345637122029438
1761341796462646000,8.67964599609375,-0.07280512396991252,0.0059420120685361325,0.001791555025312118
1761341796472712000,8.6897119140625,-0.06995967141091823,0.003012132629100233,0.0013802708106813951
1761341796482779100,8.699779052734375,-0.07070552134215831,0.0049809302177280185,0.0027942886273376643
1761341796492845000,8.709844970703125,-0.06294131708145141,0.003940389922540635,0.008968597914674319
1761341796502911000,8.719910888671874,-0.11337094311416149,0.01608978699753061,-0.015558917824109083
1761341796512977200,8.72997705078125,0.026547815185785292,-0.010722962734755127,0.03103727665871847
1761341796523044000,8.740044189453124,-0.08867313970923424,0.005269720563851297,-0.006863277932186611
1761341796533110000,8.750110107421875,-0.06083703827857971,0.007433748463634401,-0.002616598539450206
1761341796543176000,8.760176025390624,-0.062037646239995956,0.004866418726276606,0.0010664601877331734
