time,seconds_elapsed,z,y,x
1761341787856001800,0.073001708984375,-0.0006897938437759876,-0.0030273273587226868,0.0007127081044018269
1761341787866068000,0.08306787109375,-0.0025438866578042507,0.002398064360022545,-0.0021097096614539623
1761341787876134000,0.0931337890625,0.0012590233236551285,0.0006261346861720085,0.0015600440092384815
1761341787886200800,0.103200927734375,0.00037165824323892593,-0.0005706902593374252,0.0011019795201718807
1761341787896267000,0.11326708984375,-0.0016064946539700031,0.00041147321462631226,-0.0012496397830545902
1761341787906333000,0.1233330078125,0.0011666547507047653,0.0037779761478304863,-0.00007145758718252182
1761341787916399000,0.133399169921875,-0.00019426411017775536,-0.0003907773643732071,-0.00011873152107000351
1761341787926466000,0.143466064453125,-0.0008440753445029259,-0.002646741457283497,-0.00008251238614320755
1761341787936532000,0.153531982421875,0.0015959390439093113,0.0002983883023262024,-0.0009541832841932774
1761341787946598100,0.16359814453125,-0.0009074322879314423,0.001481098122894764,-0.00017227884382009506
1761341787956665000,0.1736650390625,0.00016418052837252617,-0.0013346411287784576,-0.002468964084982872
1761341787966731000,0.18373095703125,0.0003551291301846504,-0.0005812328308820724,0.002691976260393858
1761341787976797000,0.193796875,0.000517712440341711,-0.002605265937745571,-0.002153413835912943
1761341787986862800,0.20386279296875,0.0011209184303879738,0.0014134440571069717,0.0006636781617999077
1761341787996929800,0.2139296875,-0.0013481350615620613,0.0021991264075040817,-0.0007361066527664661
1761341788006996000,0.223995849609375,0.0011256751604378223,0.0017818082123994827,0.0014554085209965706
1761341788017062000,0.234061767578125,0.0011687208898365498,0.0004066796973347664,-0.0002900008112192154
1761341788027128000,0.244128173828125,0.00048428820446133614,-0.0019321078434586525,-0.002790709026157856
1761341788037195000,0.254195068359375,0.00016626296564936638,0.0005935458466410637,-0.0004427949897944927
1761341788047261000,0.264260986328125,0.00027571897953748703,-0.0008442951366305351,-0.00044519221410155296
1761341788057327000,0.2743271484375,-0.0006432407535612583,-0.0015869997441768646,0.0012663635425269604
1761341788067393000,0.28439306640625,0.004590669646859169,-0.0006897812709212303,0.0020836875773966312
1761341788077460000,0.2944599609375,0.001561162993311882,-0.002033534459769726,0.000792838167399168
1761341788087526100,0.304526123046875,0.0017225504852831364,-0.0012995675206184387,0.0013142847456037998
1761341788097591800,0.314591796875,-0.0007556378841400146,0.0022378498688340187,-0.0012158076278865337
1761341788107658000,0.324657958984375,-0.0005945167504251003,0.00024074595421552658,0.0014374996535480022
1761341788117725000,0.334724853515625,-0.0005811071023344994,0.0018797144293785095,-0.0021603615023195744
1761341788127790800,0.344790771484375,-0.0023129605688154697,0.001474115066230297,0.002504431176930666
1761341788137857000,0.35485693359375,0.0003632861189544201,-0.0007700417190790176,-0.0008579548448324203
1761341788147924000,0.364924072265625,-0.0009025144390761852,0.00027231965214014053,-0.0016337339766323566
1761341788157990000,0.374989990234375,0.00007375376299023628,0.002711833454668522,0.0001103738322854042
1761341788168056000,0.38505615234375,0.0008737673051655293,0.0003448156639933586,0.0004810853861272335
1761341788178122000,0.3951220703125,-0.0022198869846761227,-0.00039842259138822556,0.002521608956158161
1761341788188189000,0.40518896484375,-0.00006139511242508888,-0.000007204711437225342,0.0021913768723607063
1761341788198255000,0.415255126953125,0.002287969458848238,0.00014123320579528809,0.001126876100897789
1761341788208320800,0.42532080078125,-0.001203168649226427,-0.00008726585656404495,-0.0008119051344692707
1761341788218387000,0.435386962890625,-0.0016984296962618828,0.00013396330177783966,0.0011903713457286358
1761341788228454000,0.445453857421875,-0.0007990803569555283,-0.001931849867105484,-0.0006195125170052052
1761341788238519800,0.455519775390625,0.0014162734150886536,-0.0018224641680717468,0.00036315014585852623
1761341788248586000,0.4655859375,0.0009611393325030804,-0.0000067213550209999084,-0.00023446325212717056
1761341788258652000,0.47565185546875,-0.0007990705780684948,-0.0015967171639204025,-0.002367336768656969
1761341788268718800,0.48571875,0.0004419628530740738,-0.0019349390640854836,-0.002996109426021576
1761341788278785000,0.495784912109375,-0.0012594936415553093,-0.0022928472608327866,-0.00041057029739022255
1761341788288851000,0.505850830078125,0.0013256371021270752,0.0003665853291749954,-0.0010033901780843735
1761341788298918000,0.51591796875,-0.00018776021897792816,0.0005540912970900536,0.0013496284373104572
1761341788308984000,0.525984130859375,0.0013275784440338612,-0.001207590103149414,0.0013749287463724613
1761341788319050000,0.536050048828125,-0.0014393222518265247,-0.000943613238632679,0.00009669456630945206
1761341788329116000,0.546115966796875,0.0022414326667785645,0.0005301795899868011,0.000026120804250240326
1761341788339182800,0.556182861328125,0.0007840460166335106,-0.00033113081008195877,-0.0003273072652518749
1761341788349248800,0.566248779296875,0.000010930467396974564,0.0004989765584468842,0.001083369366824627
1761341788359315000,0.57631494140625,-0.00018101930618286133,0.0013462761417031288,0.0008963225409388542
1761341788369380900,0.586380859375,-0.0013576038181781769,0.001329232007265091,0.0032164687290787697
1761341788379448000,0.596447998046875,0.0035118255764245987,0.00006760470569133759,-0.00033259717747569084
1761341788389514000,0.606513916015625,0.0003005857579410076,0.001852189190685749,-0.00032647186890244484
1761341788399580000,0.616579833984375,0.0005853483453392982,0.0012589767575263977,-0.00043408526107668877
1761341788409646000,0.62664599609375,-0.0002815104089677334,0.00289895199239254,-0.0020442320965230465
1761341788419713000,0.636713134765625,0.0012080161832273006,-0.0006891684606671333,0.00013267528265714645
1761341788429779000,0.646779052734375,0.0014277268201112747,-0.0012934394180774689,0.0018522781319916248
1761341788439844900,0.656844970703125,-0.000003951136022806168,-0.0023021241649985313,-0.002612814772874117
1761341788449910800,0.666910888671875,0.00046263448894023895,-0.0029111895710229874,0.0003254511393606663
1761341788459978000,0.67697802734375,-0.001974615268409252,-0.0004678117111325264,-0.00003623822703957558
1761341788470044000,0.6870439453125,-0.003801809623837471,0.0002531055361032486,-0.0006333189085125923
1761341788480109800,0.69710986328125,-0.0015590060502290726,0.00025025010108947754,0.0038392143324017525
1761341788490176000,0.707176025390625,-0.0012708520516753197,0.001990359276533127,0.0024905893951654434
1761341788500243000,0.717242919921875,-0.0004846719093620777,0.0002595633268356323,-0.001644002739340067
1761341788510308900,0.727308837890625,-0.0011978661641478539,0.00021721888333559036,-0.0004897885955870152
1761341788520375000,0.737375,0.0010841586627066135,0.0003277165815234184,-0.0010449080727994442
1761341788530441000,0.74744091796875,-0.0008434373885393143,0.0003487560898065567,-0.0012057633139193058
1761341788540508000,0.7575078125,0.0014712396077811718,0.0008543776348233223,0.0014215013943612576
1761341788550574000,0.767573974609375,0.0005889339372515678,0.0028285784646868706,-0.001033400185406208
1761341788560639700,0.7776396484375,-0.00036602793261408806,0.00230393186211586,-0.0013680793344974518
1761341788570707200,0.787707275390625,-0.0005740206688642502,0.0007174862548708916,-0.0024895365349948406
1761341788580772900,0.79777294921875,-0.0012150281108915806,-0.0017567416653037071,0.0005193962715566158
1761341788590838800,0.8078388671875,-0.00025948602706193924,0.0010225335136055946,0.0035197134129703045
1761341788600905000,0.817905029296875,-0.00015532737597823143,0.0014545954763889313,-0.0003337906673550606
1761341788610972000,0.827971923828125,-0.0008892947807908058,-0.0010349275544285774,0.000921890139579773
1761341788621038000,0.8380380859375,0.0003209332935512066,0.00020811427384614944,0.001297404058277607
1761341788631104000,0.84810400390625,-0.0012804251164197922,-0.0022033778950572014,0.0005485229194164276
1761341788641170000,0.858169921875,0.0004533296450972557,0.001993292011320591,-0.0013866806402802467
1761341788651237000,0.868237060546875,0.0000245608389377594,-0.0002690637484192848,-0.0011991942301392555
1761341788661303000,0.878302978515625,0.000517780426889658,-0.0021223127841949463,-0.00020943349227309227
1761341788671369000,0.888368896484375,-0.0006143292412161827,-0.002168385311961174,-0.0000784057192504406
1761341788681435000,0.898434814453125,-0.0005603544414043427,0.00005630776286125183,-0.0034155766479671
1761341788691501800,0.908501708984375,0.0011094477958977222,-0.0011985739693045616,-0.002609171438962221
1761341788701568000,0.918568115234375,-0.002681744284927845,-0.00309007428586483,-0.0006064008921384811
1761341788711634000,0.928634033203125,0.0005625179037451744,0.00033475086092948914,0.001300955656915903
1761341788721699800,0.938699951171875,0.002487980993464589,-0.0015093330293893814,0.00029708025977015495
1761341788731767000,0.94876708984375,-0.00013123778626322746,0.00039109867066144943,0.0016267970204353333
1761341788741833000,0.9588330078125,-0.00011812988668680191,0.0017799101769924164,0.0006051640957593918
1761341788751899000,0.96889892578125,-0.0002198624424636364,-0.002902192994952202,-0.0013996637426316738
1761341788761966000,0.978966064453125,-0.0008016848005354404,0.0004933206364512444,0.0015512676909565926
1761341788772032000,0.989031982421875,-0.00033456645905971527,0.00042620860040187836,-0.0012911241501569748
1761341788782098200,0.99909814453125,-0.00031730392947793007,-0.00032800156623125076,0.004152095410972834
1761341788792163800,1.009163818359375,-0.0004573860205709934,0.00034311506897211075,0.00007133325561881065
1761341788802231000,1.01923095703125,0.002469651633873582,0.003168981522321701,-0.001373108010739088
1761341788812297000,1.029296875,-0.0005258722230792046,-0.00300715584307909,0.000982457771897316
1761341788822363000,1.03936279296875,0.0022601368837058544,0.0012021418660879135,0.0004899785853922367
1761341788832429000,1.049428955078125,-0.0014429888688027859,0.0006817597895860672,0.00225645350292325
1761341788842496000,1.05949609375,0.0010456191375851631,-0.0004827035591006279,0.00012213923037052155
1761341788852562000,1.06956201171875,0.0009779748506844044,0.00001876894384622574,0.0011706254445016384
1761341788862628000,1.079628173828125,0.00019419100135564804,-0.00033119600266218185,-0.002609794959425926
1761341788872694000,1.089694091796875,-0.0025509949773550034,-0.00016528088599443436,0.000291985459625721
1761341788882761000,1.099760986328125,-0.00029880693182349205,0.00001043081283569336,-0.0047779204323887825
1761341788892827100,1.1098271484375,0.0006487453356385231,-0.0007517663761973381,0.0010336292907595634
1761341788902893000,1.11989306640625,0.0000681648962199688,-0.00089236069470644,-0.0024893670342862606
1761341788912959000,1.129958984375,-0.0005350410938262939,-0.00098503939807415,0.0021290872246026993
1761341788923026000,1.14002587890625,-0.001402159221470356,-0.001987229101359844,0.0006516301073133945
1761341788933091800,1.150091796875,-0.00008522626012563705,-0.0013592550531029701,0.002200258430093527
1761341788943158000,1.160157958984375,0.0009501236490905285,-0.002802383154630661,-0.004352755844593048
1761341788953224000,1.170223876953125,-0.0025463406927883625,0.0024554962292313576,-0.0026174397207796574
1761341788963291000,1.180290771484375,-0.00009989272803068161,-0.0020716600120067596,-0.0015258523635566235
1761341788973357000,1.190357177734375,-0.001609106082469225,0.00004661828279495239,0.00024807918816804886
1761341788983423000,1.200423095703125,-0.001464388333261013,0.0004368294030427933,0.0002646632492542267
1761341788993489200,1.2104892578125,-0.00014372682198882103,-0.002223402261734009,-0.0004224320873618126
1761341789003556000,1.22055615234375,0.001478050835430622,0.0005960185080766678,0.0015257061459124088
1761341789013622000,1.2306220703125,0.0008383598178625107,-0.000015176832675933838,0.000605317298322916
1761341789023688200,1.240688232421875,-0.0008348040282726288,-0.001895400695502758,0.001180154737085104
1761341789033753900,1.25075390625,0.0014523188583552837,0.00191584974527359,-0.0011543724685907364
1761341789043820800,1.26082080078125,0.002446772065013647,-0.0018594181165099144,0.0009016674011945724
1761341789053887000,1.270886962890625,0.0008557997643947601,-0.0021318597719073296,0.0008662473410367966
1761341789063953000,1.280952880859375,0.0013228575699031353,0.0005807122215628624,-0.0014686021022498608
1761341789074019000,1.29101904296875,0.001715141348540783,0.0018329313024878502,0.0013610068708658218
1761341789084086000,1.3010859375,0.000863153487443924,0.00023408327251672745,0.0009057563729584217
1761341789094152000,1.31115185546875,0.0006317244842648506,-0.001917751505970955,0.0011755344457924366
1761341789104218000,1.321218017578125,0.0007612588815391064,0.00039237551391124725,0.0025124959647655487
1761341789114284000,1.331283935546875,-0.0005218521691858768,0.00025948416441679,-0.00018049264326691628
1761341789124351000,1.34135107421875,-0.0001271422952413559,-0.0031911032274365425,0.0006218003109097481
1761341789134417200,1.351417236328125,-0.0010240948759019375,-0.0004499116912484169,-0.00027142371982336044
1761341789144482800,1.36148291015625,0.0003284686245024204,0.00046209804713726044,-0.0010244394652545452
1761341789154550000,1.371550048828125,0.0011575105600059032,0.0011119097471237183,-0.00033361557871103287
1761341789164616000,1.381615966796875,0.00007323594763875008,0.0008146259933710098,0.00004901271313428879
1761341789174681900,1.391681884765625,-0.0005973479710519314,-0.0023763738572597504,-0.0004639117978513241
1761341789184748000,1.401748046875,-0.002200963906943798,0.0017062509432435036,0.000818734522908926
1761341789194815000,1.41181494140625,0.0017716730944812298,-0.0018208399415016174,-0.0011133886873722076
1761341789204881000,1.421880859375,-0.0007960237562656403,0.00004236400127410889,-0.0006601447239518166
1761341789214947000,1.431947021484375,0.0011046743020415306,0.0020788833498954773,-0.003048734273761511
1761341789225013000,1.442012939453125,0.0000531109981238842,-0.0004896000027656555,0.00005940161645412445
1761341789235080000,1.452079833984375,0.0025018875021487474,0.000872073695063591,0.0012429100461304188
1761341789245146000,1.46214599609375,0.0002553816884756088,0.00011986959725618362,0.0005090539343655109
1761341789255212000,1.4722119140625,0.0006157071329653263,0.0004679448902606964,0.002578063402324915
1761341789265278000,1.48227783203125,0.0008605429902672768,0.0001891767606139183,-0.00007171835750341415
1761341789275345000,1.492344970703125,-0.0005109850317239761,-0.0001357290893793106,0.0005005951970815659
1761341789285410800,1.502410888671875,-0.0014566592872142792,0.0015843464061617851,0.0005733771249651909
1761341789295477000,1.51247705078125,0.0010658870451152325,0.0014692982658743858,0.0008191866800189018
1761341789305543000,1.52254296875,0.0023374073207378387,0.0010185549035668373,0.0028223986737430096
1761341789315609900,1.53260986328125,0.001182660460472107,-0.001989218406379223,0.00025617657229304314
1761341789325676000,1.542676025390625,0.001109499018639326,-0.0009746579453349113,-0.00034323520958423615
1761341789335742000,1.552741943359375,0.00009110616520047188,-0.0008915681391954422,0.0005065794102847576
1761341789345808100,1.56280810546875,0.000948629342019558,0.0009349239990115166,0.00006533833220601082
1761341789355875000,1.572875,0.0002474188804626465,-0.000789472833275795,-0.00027075270190835
1761341789365941000,1.58294091796875,0.0005327542312443256,0.0004490939900279045,-0.0009254948236048222
1761341789376007200,1.593007080078125,0.0002789553254842758,-0.0023064780980348587,0.001379737164825201
1761341789386072800,1.60307275390625,-0.0004658801481127739,-0.0013688262552022934,0.0008147316984832287
1761341789396139800,1.613139892578125,-0.00040436116978526115,-0.0021557901054620743,0.003158313687890768
1761341789406206000,1.6232060546875,-0.0003022989258170128,0.0019089970737695694,0.0015417844988405704
1761341789416272000,1.63327197265625,0.0009688278660178185,0.0011550560593605042,0.0017423206008970737
1761341789426338000,1.643338134765625,0.0006715129129588604,0.00045753736048936844,0.001540099736303091
1761341789436405000,1.653405029296875,0.000238749198615551,-0.0005502030253410339,-0.0018112226389348507
1761341789446471000,1.663470947265625,-0.0006326325237751007,-0.0008773133158683777,-0.00029878178611397743
1761341789456537000,1.673537109375,0.00015699444338679314,-0.003179083578288555,0.0014296099543571472
1761341789466603000,1.68360302734375,0.0023762022610753775,3.734603524208069e-7,-0.0007811295799911022
1761341789476670000,1.693669921875,-0.000515990424901247,-0.00037300214171409607,0.0014862855896353722
1761341789486736100,1.703736083984375,-0.002479350194334984,0.0006820252165198326,0.00047195423394441605
1761341789496801800,1.7138017578125,-0.0008795894682407379,0.0026349201798439026,0.001320703886449337
1761341789506868000,1.723867919921875,0.0012660911306738853,0.00151007529348135,0.0005242773331701756
1761341789516935000,1.733934814453125,0.0005100197158753872,-0.0022170189768075943,-0.0012499205768108368
1761341789527000800,1.744000732421875,0.0003922772593796253,0.00296135526150465,-0.00196274695917964
1761341789537067000,1.75406689453125,0.00007908931002020836,0.0003503924235701561,-0.0003478061407804489
1761341789547133000,1.7641328125,-0.0012585395015776157,-0.0002680327743291855,0.0026138871908187866
1761341789557200000,1.774199951171875,0.00022271042689681053,-0.0008448734879493713,0.0015515517443418503
1761341789567266000,1.78426611328125,0.0024792274925857782,-0.0005891043692827225,0.004409478977322578
1761341789577332000,1.79433203125,-0.001024693250656128,-0.00042718369513750076,0.0008613495156168938
1761341789587398100,1.804398193359375,-0.001577096525579691,-0.0015206271782517433,0.0006751231849193573
1761341789597465000,1.814465087890625,0.0024378851521760225,0.0022874269634485245,0.0007627410814166069
1761341789607531000,1.824531005859375,-0.0016357433050870895,-0.0009850803762674332,-0.0015915869735181332
1761341789617597000,1.834596923828125,-0.0013095061294734478,0.001724686473608017,-0.0005233930423855782
1761341789627662800,1.844662841796875,0.0010633068159222603,0.0008870027959346771,0.0012306743301451206
1761341789637729800,1.854729736328125,0.00009950902312994003,0.0002912534400820732,-0.001736619509756565
1761341789647796000,1.8647958984375,0.0012696539051830769,0.0005121342837810516,0.00041435612365603447
1761341789657862000,1.87486181640625,0.00018920935690402985,-0.0013843029737472534,-0.0015404042787849903
1761341789667928800,1.8849287109375,-0.001096661202609539,-0.0005623418837785721,0.0003347368910908699
1761341789677995000,1.8949951171875,0.0007188157178461552,-0.00010507646948099136,0.0011256951838731766
1761341789688061000,1.90506103515625,-0.0018585077486932278,-0.0005581751465797424,0.0007359138689935207
1761341789698127000,1.915127197265625,0.001105323899537325,0.0007076254114508629,0.0013724095188081264
1761341789708194000,1.925194091796875,0.0015150685794651508,-0.0005013421177864075,-0.0004345159977674484
1761341789718260500,1.935260498046875,-0.0016833879053592682,0.0015077469870448112,0.0004342072643339634
1761341789728326400,1.945326416015625,-0.0014686486683785915,0.0020965365692973137,0.0005689412355422974
1761341789738392300,1.955392333984375,0.00019875634461641312,0.0003441767767071724,-0.0025533493608236313
1761341789748459300,1.965459228515625,-0.000620565377175808,0.0014433637261390686,-0.0007955646142363548
1761341789758525400,1.975525390625,0.0008063563145697117,0.0019182050600647926,0.0009077931754291058
1761341789768591400,1.98559130859375,-0.00043992092832922935,-0.0015959925949573517,-0.0004810956306755543
1761341789778657500,1.995657470703125,0.00012626685202121735,-0.002135283313691616,-0.0007620593532919884
1761341789788724500,2.005724365234375,-0.000678209587931633,0.0008300980553030968,0.0008856668137013912
1761341789798790400,2.015790283203125,-0.0014806203544139862,-0.0006333086639642715,-0.001971904654055834
1761341789808856600,2.025856689453125,0.0014052633196115494,-0.001900961622595787,0.00010299822315573692
1761341789818922500,2.035922607421875,0.0010681073181331158,0.001987253315746784,0.0012987577356398106
1761341789828989400,2.045989501953125,0.0012808418832719326,-0.00009196531027555466,-0.00019104359671473503
1761341789839055600,2.0560556640625,0.000898411963135004,0.0016737105324864388,-0.0013234196230769157
1761341789849121300,2.066121337890625,0.000238106120377779,0.001537834294140339,-0.002485217060893774
1761341789859187500,2.0761875,0.00007645227015018463,-0.0000688508152961731,0.00045118434354662895
1761341789869254400,2.08625439453125,0.0007466315291821957,-0.001134912483394146,-0.0034690950997173786
1761341789879320300,2.0963203125,0.00014049606397747993,0.00010452326387166977,0.0020729429088532925
1761341789889386500,2.106386474609375,-0.0005355034954845905,0.0001391880214214325,-0.001631755381822586
1761341789899452400,2.116452392578125,0.0012362971901893616,0.001862785778939724,-0.001287674531340599
1761341789909519400,2.126519287109375,-0.0018587480299174786,0.000018141232430934906,-0.0013837255537509918
1761341789919585500,2.13658544921875,0.000005197711288928986,-0.0014250259846448898,0.0014871624298393726
1761341789929651500,2.1466513671875,0.0005178516730666161,0.00048779789358377457,-0.0015220693312585354
1761341789939717600,2.156717529296875,-0.0003348924219608307,-0.0010459162294864655,-0.0006554769352078438
1761341789949784600,2.16678466796875,-0.00013144360855221748,0.0004601692780852318,-0.0014985911548137665
1761341789959850200,2.176850341796875,-0.0017719506286084652,0.00342479906976223,0.00033952202647924423
1761341789969916400,2.18691650390625,0.001166543923318386,0.00005099643021821976,0.0004596305079758167
1761341789979982300,2.196982421875,0.00020833825692534447,0.0017207982018589973,-0.0014075119979679585
1761341789990049300,2.20704931640625,-0.00147612439468503,0.0017246287316083908,0.0025102831423282623
1761341790000115500,2.217115478515625,-0.0010846396908164024,-0.00040909647941589355,0.002026919275522232
1761341790010181400,2.227181396484375,0.0007576649077236652,0.0005933670327067375,-0.0005237632431089878
1761341790020247600,2.23724755859375,-0.002571552526205778,-0.0005374113097786903,-0.002556554041802883
1761341790030314500,2.247314453125,-0.0005294885486364365,0.0007166052237153053,0.000559723936021328
1761341790040380400,2.25738037109375,-0.0007164427079260349,0.0011259336024522781,-0.00003575906157493591
1761341790050446600,2.267446533203125,-0.001790361013263464,-0.0017228592187166214,-0.0010065981186926365
1761341790060512300,2.27751220703125,0.000613940879702568,0.0025552427396178246,0.002444859128445387
1761341790070579500,2.287579345703125,0.000014505814760923386,0.0012001991271972656,-0.0010687382891774178
1761341790080645400,2.297645263671875,0.0022968349512666464,-0.0005486989393830299,-0.0022700903937220573
1761341790090711300,2.307711181640625,-0.00020204251632094383,-0.0018416978418827057,0.001324893906712532
1761341790100777500,2.317777587890625,0.0010981126688420773,-0.0016179922968149185,-0.0007252073846757412
1761341790110844400,2.327844482421875,0.00024454668164253235,0.0012041563168168068,-0.0022748010233044624
1761341790120910300,2.337910400390625,0.00010579591616988182,0.0002166563645005226,0.004008128307759762
1761341790130976500,2.3479765625,-0.001524411141872406,0.000005258247256278992,-0.0015328675508499146
1761341790141042400,2.35804248046875,-0.0028176424093544483,0.0012620044872164726,-0.001958706881850958
1761341790151109400,2.368109375,-0.0005200207233428955,-0.0007598353549838066,-0.0020248987711966038
1761341790161175600,2.378175537109375,0.0002171425148844719,0.001871899701654911,0.0017906120046973228
1761341790171241500,2.388241455078125,-0.0025483388453722,0.00047284364700317383,-0.0014885389246046543
1761341790181307400,2.398307373046875,-0.0013722865842282772,0.0004837624728679657,-0.0010853363201022148
1761341790191374600,2.40837451171875,0.0011167265474796295,0.00023180898278951645,0.0005688490346074104
1761341790201440300,2.418440185546875,0.00039527658373117447,-0.0017842035740613937,-0.0004468807019293308
1761341790211506400,2.42850634765625,0.0011647394858300686,-0.0009580152109265327,0.00018280558288097382
1761341790221572400,2.438572265625,-0.0005247695371508598,-0.0002701207995414734,0.0023687281645834446
1761341790231639300,2.448639404296875,0.00014694500714540482,0.0006565079092979431,0.0012471172958612442
1761341790241705500,2.45870556640625,-0.00040752487257122993,-0.0009919889271259308,0.0005403142422437668
1761341790251771400,2.468771484375,0.00014798715710639954,-0.00021874066442251205,-0.000013728160411119461
1761341790261838300,2.47883837890625,0.0008926070295274258,-0.0011322051286697388,0.0010153171606361866
1761341790271904500,2.488904541015625,0.00014950521290302277,0.0008690785616636276,0.0012717251665890217
1761341790281970400,2.498970458984375,0.0008041099645197392,-0.0022494830191135406,0.0020994353108108044
1761341790292036600,2.50903662109375,0.00023788446560502052,0.0009695915505290031,0.0014960598200559616
1761341790302103600,2.519103515625,0.0008085998706519604,0.0008683912456035614,-0.0011801505461335182
1761341790312169200,2.529169189453125,-0.0022256625816226006,0.0010366011410951614,-0.0018301480449736118
1761341790322235400,2.5392353515625,-0.00046824244782328606,0.000575874000787735,-0.001234398689121008
1761341790332301300,2.54930126953125,-0.00037780730053782463,0.0025001531466841698,-0.00033467868342995644
1761341790342368300,2.5593681640625,-0.001600997056812048,0.0009059850126504898,-0.0011543999426066875
1761341790352434400,2.569434326171875,-0.0021740063093602657,-0.000828918069601059,0.0005534770898520947
1761341790362500400,2.579500244140625,-0.0012237904593348503,-0.0028489260002970695,-0.00043828412890434265
1761341790372566500,2.58956640625,-0.001783238723874092,0.0018445495516061783,0.00006672227755188942
1761341790382633500,2.599633544921875,0.0021305428817868233,-0.000996510498225689,-0.0023745973594486713
1761341790392699400,2.609699462890625,-0.0008126823231577873,0.001667979173362255,0.001491062343120575
1761341790402765600,2.619765625,0.0017245113849639893,0.0007276171818375587,-0.0036123530007898808
1761341790412831200,2.629831298828125,0.0009636157192289829,-0.001521877944469452,-0.0011510709300637245
1761341790422898400,2.6398984375,-0.0026841163635253906,-0.0007935035973787308,-0.00031244149431586266
1761341790432964400,2.64996435546875,0.0032632090151309967,-0.0021290332078933716,0.0000996217131614685
1761341790443030300,2.6600302734375,0.0013779574073851109,0.0006837975233793259,0.0014351969584822655
1761341790453096400,2.670096435546875,0.0034021716564893723,-0.0005974937230348587,-0.0008478723466396332
1761341790463163400,2.680163330078125,-0.000580586027354002,0.0016006790101528168,0.002640869002789259
1761341790473229300,2.690229248046875,-0.0028138095512986183,-0.000875287689268589,0.001238218042999506
1761341790483295500,2.70029541015625,-0.0015682489611208439,-0.000924290157854557,0.00044273165985941887
1761341790493361400,2.710361328125,-0.00023357057943940163,0.0020076045766472816,0.003436529077589512
1761341790503428400,2.720428466796875,-0.0005222572945058346,0.0036473125219345093,-0.001379264984279871
1761341790513494500,2.73049462890625,0.0017253458499908447,-0.0010833963751792908,-0.00024342210963368416
1761341790523560400,2.740560546875,0.0002518189139664173,-0.00006899796426296234,0.0007190448231995106
1761341790533626400,2.75062646484375,0.00047320546582341194,-0.0025828080251812935,-0.0017851144075393677
1761341790543693300,2.760693359375,0.00016134930774569511,0.0004928763955831528,-0.0008402247913181782
1761341790553759200,2.77075927734375,0.0014930306933820248,0.0011491691693663597,0.0015773880295455456
1761341790563825400,2.780825439453125,0.00041178707033395767,-0.000613844022154808,0.00042850105091929436
1761341790573891300,2.790891357421875,-0.0008596316911280155,0.0015363981947302818,-0.00011100200936198235
1761341790583958300,2.800958251953125,-0.0003504352644085884,-0.0021289102733135223,0.0016924911178648472
1761341790594024400,2.8110244140625,0.00004091532900929451,-0.000558413565158844,0.0009632576256990433
1761341790604090400,2.82109033203125,-0.00014870194718241692,0.0009558601304888725,0.001851421780884266
1761341790614156500,2.831156494140625,0.00012454157695174217,-0.0009904876351356506,-0.0026885606348514557
1761341790624223500,2.841223388671875,-0.0005289977416396141,0.001232719048857689,0.0002395855262875557
1761341790634289400,2.851289306640625,0.0019733812659978867,0.0007812213152647018,0.001091082114726305
1761341790644355600,2.86135546875,-0.0017824750393629074,0.001545548439025879,0.0025707348249852657
1761341790654421200,2.871421142578125,0.0013761678710579872,0.0028072213754057884,-0.0007205135188996792
1761341790664488200,2.88148828125,-0.00209712702780962,-0.00037765223532915115,0.0012467638589441776
1761341790674554400,2.891554443359375,0.0030334065668284893,-0.000700291246175766,-0.00041538337245583534
1761341790684620300,2.901620361328125,-0.0015203324146568775,-0.00030561070889234543,0.0014144740998744965
1761341790694686500,2.9116865234375,0.0005475240759551525,0.00009554997086524963,-0.0012687989510595798
1761341790704753400,2.92175341796875,0.0007957308553159237,0.0013949070125818253,0.0009109983220696449
1761341790714819600,2.931819580078125,0.00110143655911088,-0.0019965283572673798,-0.0006029391661286354
1761341790724885800,2.9418857421875,-0.0009539909660816193,0.0008322810754179955,-0.00020399736240506172
1761341790734951700,2.95195166015625,0.002323748776689172,0.001964215189218521,0.000551263801753521
1761341790745018600,2.9620185546875,-0.0015673958696424961,-0.0013018855825066566,0.0012740464881062508
1761341790755084800,2.972084716796875,0.00031294161453843117,0.0019062282517552376,-0.0004160534590482712
1761341790765150700,2.982150634765625,0.00025168899446725845,-0.00030552688986063004,-0.002076800912618637
1761341790775216600,2.992216552734375,0.0003393986262381077,-0.0013674013316631317,0.000466163270175457
1761341790785283600,3.00228369140625,-0.0009551639668643475,-0.0004811016842722893,0.0005963919684290886
1761341790795349500,3.012349609375,-0.0011615771800279617,-0.00028530601412057877,-0.00122737605124712
1761341790805415700,3.022415771484375,-0.0007682284340262413,0.0005450677126646042,-0.0001397412270307541
1761341790815481600,3.032481689453125,0.00203081127256155,0.0014918185770511627,-0.0005579469725489616
1761341790825548500,3.042548583984375,0.0004973630420863628,0.0005543865263462067,-0.0024405354633927345
1761341790835614700,3.05261474609375,-0.0005708136595785618,-0.00021416321396827698,-0.0007196962833404541
1761341790845680600,3.0626806640625,0.0015991302207112312,-0.0004802132025361061,-0.0005202256143093109
1761341790855746800,3.072746826171875,0.0009905151091516018,-0.0007161414250731468,0.0012939870357513428
1761341790865813800,3.082813720703125,-0.0017573344521224499,0.0016852309927344322,-0.0023135310038924217
1761341790875879700,3.092879638671875,-0.0009288587607443333,-0.0020983731374144554,0.0001304643228650093
1761341790885945600,3.102945556640625,-0.00013150833547115326,0.001207142136991024,-0.0021063247695565224
1761341790896011500,3.113011474609375,-0.0009237630292773247,-0.0008547799661755562,-0.001573643647134304
1761341790906078500,3.123078369140625,0.0017527141608297825,0.0009583001956343651,0.0028125825338065624
1761341790916144600,3.13314453125,-0.0014872225001454353,-0.0004956666380167007,-0.0011931601911783218
1761341790926210600,3.14321044921875,-0.00045178551226854324,-0.0010077925398945808,0.002619687467813492
1761341790936276700,3.15327685546875,-0.0029954579658806324,0.0014121457934379578,-0.0013754675164818764
1761341790946343700,3.16334375,0.002684798091650009,-0.0016291840001940727,0.0024576205760240555
1761341790956409600,3.17340966796875,-0.0013142679817974567,-0.0005187345668673515,-0.0011719702742993832
1761341790966475800,3.183475830078125,-0.0021627508103847504,0.0000956561416387558,0.004143433179706335
1761341790976541700,3.193541748046875,-0.0014747800305485725,-0.0027486253529787064,0.0005719210021197796
1761341790986608600,3.203608642578125,-0.000545070506632328,-0.0008167680352926254,0.002043317537754774
1761341790996674800,3.2136748046875,-0.0005155387334525585,-0.0008414238691329956,0.0028345463797450066
1761341791006740500,3.223740478515625,0.0010280292481184006,-0.0007125269621610641,0.001429729163646698
1761341791016806700,3.233806640625,-0.0006297440268099308,-0.00005949009209871292,-0.0011707348749041557
1761341791026873600,3.24387353515625,0.002151128835976124,0.0008654259145259857,-0.0000024060718715190887
1761341791036939500,3.253939453125,0.0014571566134691238,0.00027868524193763733,-0.00220985384657979
1761341791047005700,3.264005615234375,0.00008376454934477806,0.000056045129895210266,0.00029644696041941643
1761341791057071600,3.274071533203125,0.0008198260329663754,-0.0015690196305513382,-0.003347337245941162
1761341791067138600,3.284138671875,-0.0002395794726908207,0.001807868480682373,-0.002048247028142214
1761341791077204700,3.294204833984375,-0.0005678716115653515,0.0022009173408150673,-0.0018509100191295147
1761341791087270700,3.304270751953125,0.0008137766271829605,0.0002826424315571785,0.00016963016241788864
1761341791097336800,3.3143369140625,-0.0013161092065274715,0.0024569081142544746,-0.0010366514325141907
1761341791107403800,3.32440380859375,-0.0007989234291017056,0.0005298452451825142,-0.0002683294005692005
1761341791117469700,3.3344697265625,0.0008402122184634209,0.0015718499198555946,-0.003419133834540844
1761341791127535600,3.34453564453125,0.00039892643690109253,0.0005689030513167381,0.001950864214450121
1761341791137602600,3.3546025390625,0.000483865849673748,0.00008561089634895325,-0.0006514308042824268
1761341791147668500,3.36466845703125,-0.0004256037063896656,0.0004243655130267143,0.0001706867478787899
1761341791157734700,3.374734619140625,-0.0009983135387301445,-0.0006163744255900383,-0.0011191293597221375
1761341791167800600,3.384800537109375,-0.0002672760747373104,0.0008193356916308403,-0.00031192507594823837
1761341791177866800,3.39486669921875,-0.0011391020379960537,-0.000024858862161636353,0.0014126552268862724
1761341791187933700,3.40493359375,0.002051630988717079,-0.002100793644785881,0.00020730867981910706
1761341791197999600,3.41499951171875,0.0014124088920652866,0.001498401165008545,-0.0005486677400767803
1761341791208065800,3.425065673828125,0.0003013382665812969,-0.0012300070375204086,-0.0026467060670256615
1761341791218131700,3.435131591796875,0.00027354154735803604,0.0026729609817266464,-0.0002184966579079628
1761341791228198700,3.44519873046875,-0.0010694903321564198,0.0009339172393083572,0.0014307992532849312
1761341791238264600,3.4552646484375,-0.0004833894781768322,0.000409567728638649,0.0001528533175587654
1761341791248330500,3.46533056640625,-0.0010794047266244888,0.0013544578105211258,-0.000270589254796505
1761341791258396700,3.475396728515625,0.0013189609162509441,-0.0018078349530696869,0.0011680526658892632
1761341791268463600,3.485463623046875,-0.0006762794218957424,0.00034399982541799545,-0.00017737643793225288
1761341791278529500,3.495529541015625,-0.00016791140660643578,0.0007758084684610367,0.0031184745021164417
1761341791288595700,3.505595703125,0.0018917773850262165,0.0016264226287603378,-0.0009079589508473873
1761341791298662700,3.51566259765625,-0.00012319395318627357,0.002020510844886303,0.0002262699417769909
1761341791308728600,3.525728515625,-0.0004275934770703316,0.001696137711405754,-0.0020278291776776314
1761341791318794800,3.535794677734375,-0.0003189360722899437,-0.0010250424966216087,-0.0006641619838774204
1761341791328860700,3.545860595703125,0.0006706947460770607,0.0011646086350083351,-0.001827963162213564
1761341791338926800,3.5559267578125,0.000058020465075969696,0.0011813342571258545,-0.0012023178860545158
1761341791348993800,3.565993896484375,0.001524090301245451,-0.00010550487786531448,0.0007409905083477497
1761341791359059500,3.5760595703125,0.001385367475450039,0.0016570715233683586,0.0012512709945440292
1761341791369125600,3.586125732421875,0.0008993404917418957,-0.00010141357779502869,0.0013527367264032364
1761341791379192600,3.596192626953125,-0.0004609334282577038,-0.00036276690661907196,-0.0005158782005310059
1761341791389258500,3.606258544921875,-0.0007080747745931149,0.001484667882323265,-0.003797957906499505
1761341791399324700,3.61632470703125,0.0009811553172767162,0.000009716488420963287,-0.002166233491152525
1761341791409390600,3.626390625,-0.0014503109268844128,-0.0005394266918301582,0.00034379586577415466
1761341791419457800,3.636457763671875,0.000677699688822031,-0.001593245193362236,-0.0005269292742013931
1761341791429523700,3.646523681640625,-0.0007332433015108109,-0.00017884094268083572,-0.0006196070462465286
1761341791439589600,3.656589599609375,0.000750331673771143,-0.00032268092036247253,-0.00036286981776356697
1761341791449655800,3.66665576171875,-0.00007231906056404114,-0.0004585022106766701,-0.0031543951481580734
1761341791459722800,3.67672265625,-0.0002506035380065441,0.00038928352296352386,-0.0007496215403079987
1761341791469788700,3.68678857421875,-0.0021329261362552643,-0.0004003439098596573,-0.001413547433912754
1761341791479854600,3.6968544921875,-0.0033071511425077915,-0.0008224295452237129,-0.0009647314436733723
1761341791489920500,3.70692041015625,0.00019943295046687126,0.0009674811735749245,0.002283526584506035
1761341791499987700,3.71698779296875,-0.0015596235170960426,-0.0009587788954377174,0.0006396779790520668
1761341791510053600,3.7270537109375,-0.0015367204323410988,0.00128067284822464,0.0006758971139788628
1761341791520119600,3.73711962890625,0.0005685747601091862,0.0011558104306459427,-0.0016459799371659756
1761341791530185700,3.747185791015625,0.00253185722976923,-0.000002132728695869446,-0.0002699242904782295
1761341791540252700,3.757252685546875,-0.001066816970705986,-0.0001983093097805977,-0.002054933924227953
1761341791550318600,3.767318603515625,-0.00001726532354950905,-0.0008497191593050957,-0.0006221532821655273
1761341791560384800,3.777384765625,-0.0006707957945764065,-0.001630093902349472,-0.0004306761547923088
1761341791570450700,3.78745068359375,-0.0005277842283248901,-0.0007339408621191978,-0.002229907549917698
1761341791580518000,3.797517822265625,0.000149404164403677,-0.00027840305119752884,0.0020187022164463997
1761341791590583600,3.80758349609375,-0.0015238597989082336,-0.0014235619455575943,0.001160365529358387
1761341791600649500,3.8176494140625,-0.0021131131798028946,0.0004346417263150215,0.0014392184093594551
1761341791610715600,3.827715576171875,0.0014118468388915062,0.0014873892068862915,-0.0016103670932352543
1761341791620782600,3.837782470703125,0.00026651984080672264,-0.0022593019530177116,-0.0008894582279026508
1761341791630848800,3.847848876953125,0.0006907614879310131,0.002538115717470646,-0.0020468677394092083
1761341791640914700,3.857914794921875,-0.0010158531367778778,-0.0009443340823054314,-0.0010004802606999874
1761341791650980600,3.867980712890625,0.0006744549609720707,-0.00003619585186243057,-0.0022766669280827045
1761341791661047800,3.8780478515625,-0.0027342080138623714,0.0000029262155294418335,-0.0026687737554311752
1761341791671113700,3.88811376953125,0.0010315016843378544,0.00042663514614105225,-0.00006100628525018692
1761341791681179600,3.8981796875,0.00040398817509412766,-0.00018186494708061218,0.0014033960178494453
1761341791691245600,3.90824560546875,0.0016972189769148827,0.0007840627804398537,-0.001719160471111536
1761341791701312800,3.918312744140625,-0.001022295095026493,0.0005952604115009308,0.001369765494018793
1761341791711378700,3.928378662109375,-0.00006062770262360573,-0.00033684633672237396,-0.001520030666142702
1761341791721444600,3.938444580078125,0.0024432966019958258,-0.000848717987537384,-0.00043447641655802727
1761341791731510500,3.948510498046875,-0.0011280025355517864,-0.00002793222665786743,0.0010824603959918022
1761341791741577700,3.95857763671875,0.0009774602949619293,-0.0024190135300159454,-0.0016667391173541546
1761341791751643600,3.9686435546875,-0.0022825151681900024,-0.0012410972267389297,-0.0006099967285990715
1761341791761709600,3.97870947265625,0.0018486548215150833,0.0016754185780882835,-0.0015521463938057423
1761341791771775500,3.988775390625,0.0006648795679211617,-0.0011462010443210602,0.0002100677229464054
1761341791781841400,3.99884130859375,-0.0012311157770454884,-0.001240071840584278,0.001375243067741394
1761341791791907600,4.008907470703125,-0.00013229576870799065,0.001112564466893673,-0.0002871020697057247
1761341791801973500,4.018973388671875,-0.0013303193263709545,-0.0018529882654547691,0.00004521571099758148
1761341791812040400,4.02904052734375,0.00033122720196843147,0.00041868817061185837,-0.0026847906410694122
1761341791822106600,4.039106689453125,-0.0009970786049962044,-0.00004272162914276123,-0.0003247791901230812
1761341791832172500,4.049172607421875,-0.002617345657199621,0.0004134783521294594,0.0010321014560759068
1761341791842239700,4.05923974609375,-0.00007503433153033257,0.00019716005772352219,0.0006099878810346127
1761341791852305700,4.0693056640625,-0.0005722464993596077,-0.0013823611661791801,0.0011612619273364544
1761341791862371300,4.079371337890625,-0.00008573150262236595,0.000034887343645095825,-0.00003558304160833359
1761341791872437500,4.0894375,0.0009299982339143753,-0.0007129283621907234,-0.00018924754112958908
1761341791882503400,4.09950341796875,0.0005968315526843071,-0.0010569216683506966,-0.0032814773730933666
1761341791892570400,4.1095703125,0.0013204123824834824,-0.0009179050102829933,0.0016280603595077991
1761341791902636500,4.119636474609375,0.0025140973739326,0.00037735141813755035,-0.0006779623217880726
1761341791912702500,4.129702392578125,-0.001228176523000002,-0.00029056984931230545,0.001268808264285326
1761341791922769700,4.139769775390625,-0.0006599067710340023,0.00021561607718467712,-0.0002422565594315529
1761341791932835600,4.149835693359375,-0.0007504541426897049,0.001050516963005066,-0.0007266858592629433
1761341791942901500,4.159901611328125,-0.0005010548047721386,0.0005175955593585968,-0.000021735206246376038
1761341791952967700,4.1699677734375,-0.0007756268605589867,-0.0014166580513119698,-0.0014830115251243114
1761341791963034600,4.18003466796875,-0.00007088901475071907,0.0006596259772777557,0.0021413620561361313
1761341791973100500,4.1901005859375,-0.0008650436066091061,-0.0012184353545308113,-0.000873335637152195
1761341791983166500,4.20016650390625,0.002077945042401552,0.00048090238124132156,-0.0008513778448104858
1761341791993232400,4.210232421875,-0.0006472673267126083,-0.0003422815352678299,0.002189686056226492
1761341792003298600,4.220298583984375,-0.0013806326314806938,0.0005069999024271965,-0.00011035893112421036
1761341792013365500,4.230365478515625,0.0011110207997262478,-0.0016959672793745995,-0.00047574471682310104
1761341792023431400,4.240431396484375,-0.0005924268625676632,0.00014247745275497437,0.00123134208843112
1761341792033497600,4.25049755859375,-0.0016193417832255363,-0.0006127944216132164,0.0003991038538515568
1761341792043564500,4.260564453125,-0.0023139072582125664,0.00021745078265666962,-0.004868790507316589
1761341792053630500,4.27063037109375,0.0007974635809659958,0.0011298498138785362,0.0000692424364387989
1761341792063696600,4.280696533203125,0.00023496011272072792,-0.0006211381405591965,0.00014397269114851952
1761341792073762600,4.290762451171875,-0.0005623903125524521,-0.0021535204723477364,-0.000007827766239643097
1761341792083829800,4.300829833984375,-0.0009357426315546036,0.0015109684318304062,0.0022151567973196507
1761341792093895400,4.3108955078125,-0.002075308933854103,-0.002371920272707939,0.000544289592653513
1761341792103961300,4.32096142578125,0.0013481457717716694,-0.000964585691690445,-0.0005896389484405518
1761341792114027500,4.331027587890625,0.0012208465486764908,-0.0016785794869065285,0.00014779064804315567
1761341792124094500,4.341094482421875,0.0009216614998877048,0.0003454294055700302,0.0017260112799704075
1761341792134160600,4.35116064453125,-0.00023388396948575974,0.00041733402758836746,-0.003492453135550022
1761341792144226600,4.3612265625,0.0006410107016563416,0.002633100375533104,0.002273167949169874
1761341792154292500,4.37129248046875,-0.0002788449637591839,-0.002109190449118614,0.0021690386347472668
1761341792164359700,4.381359619140625,0.0008812220767140388,-0.0008597671985626221,-0.0010035200975835323
1761341792174425600,4.391425537109375,-0.000012001954019069672,0.0009519811719655991,-0.0022815712727606297
1761341792184492500,4.401492431640625,0.00033270474523305893,-0.000985046848654747,0.0003165039233863354
1761341792194558700,4.411558837890625,0.0019455146975815296,-0.0012146113440394402,-0.0010819220915436745
1761341792204624600,4.421624755859375,-0.0008615003898739815,0.0016957232728600502,-0.0025512692518532276
1761341792214690600,4.431690673828125,0.0026552036870270967,-0.002247619442641735,-0.004811227787286043
1761341792224757500,4.441757568359375,-0.0007826839573681355,-0.0013740668073296547,-0.003098525106906891
1761341792234823400,4.451823486328125,0.0011228076182305813,-0.00026486068964004517,-0.0015869149938225746
1761341792244889600,4.4618896484375,0.000004007481038570404,-0.0008631758391857147,0.0017772158607840538
1761341792254955500,4.47195556640625,-0.0003256918862462044,-0.002405146136879921,-0.002059333957731724
1761341792265022500,4.4820224609375,-0.002253242302685976,-0.002509128302335739,0.00037992000579833984
1761341792275088600,4.492088623046875,-0.0014910451136529446,0.0003577647730708122,0.0004853811115026474
1761341792285154600,4.502154541015625,0.0002630823291838169,0.0012205317616462708,0.0022003897465765476
1761341792295220700,4.512220703125,0.001250582281500101,0.0003534061834216118,0.0005542892031371593
1761341792305287700,4.52228759765625,-0.002382333856076002,-0.0012416010722517967,-0.002324603497982025
1761341792315353600,4.532353515625,0.0012448914349079132,0.0014812145382165909,0.00010553095489740372
1761341792325419800,4.542419677734375,0.0019624638371169567,0.0002565225586295128,-0.0012394106015563011
1761341792335485400,4.5524853515625,-0.0024650413542985916,0.00013801176100969315,0.0007105553522706032
1761341792345552400,4.562552490234375,0.002380113583058119,0.0014601629227399826,-0.0003539617173373699
1761341792355618600,4.57261865234375,-0.0007898472249507904,0.000014333054423332214,-0.0026599932461977005
1761341792365684500,4.5826845703125,0.0007115649059414864,-0.0009850552305579185,-0.0032973093912005424
1761341792375750700,4.592750732421875,-0.0010618343949317932,-0.001444983296096325,0.0012891869992017746
1761341792385817600,4.602817626953125,0.0019881087355315685,-0.00033872947096824646,-0.00012853648513555527
1761341792395883500,4.612883544921875,0.004200130235403776,-0.0007238220423460007,-0.00179594149813056
1761341792405949700,4.62294970703125,-0.00006427895277738571,0.000040143728256225586,0.0029938174411654472
1761341792416015600,4.633015625,-0.0003036968410015106,-0.001099955290555954,0.0019469289109110832
1761341792426082600,4.64308251953125,-0.00010512722656130791,0.00015920493751764297,0.0016936683095991611
1761341792436148700,4.653148681640625,-0.00020339805632829666,0.00007851049304008484,0.0031584068201482296
1761341792446214400,4.66321435546875,0.00007555261254310608,-0.00009347498416900635,0.001127693336457014
1761341792456280600,4.673280517578125,-0.0024387380108237267,-0.00012836232781410217,-0.0012766080908477306
1761341792466347500,4.683347412109375,-0.0000482974573969841,-0.00007058307528495789,-0.0018113190308213234
1761341792476413400,4.693413330078125,0.0031578820198774338,0.0008298316970467567,0.000718417577445507
1761341792486479600,4.703479736328125,-0.0006952271796762943,0.0007308647036552429,0.0007707616314291954
1761341792496545500,4.713545654296875,-0.0013847197405993938,-0.0028044814243912697,0.0007039159536361694
1761341792506612500,4.723612548828125,0.000025881920009851456,0.00146406888961792,-0.003334027249366045
1761341792516678700,4.7336787109375,0.000143327284604311,-0.0004840334877371788,-0.0011427784338593483
1761341792526744600,4.74374462890625,-0.0004801093600690365,0.0006800806149840355,0.0017665987834334373
1761341792536810800,4.753810791015625,0.0008203121833503246,0.0009280210360884666,-0.0005687270313501358
1761341792546877700,4.763877685546875,-0.0010151113383471966,-0.0014858515933156013,0.0022850679233670235
1761341792556943600,4.773943603515625,-0.00020764116197824478,0.000007915310561656952,0.00038064178079366684
1761341792567009500,4.784009521484375,0.002349957823753357,0.001795847900211811,0.002376365475356579
1761341792577075500,4.794075439453125,-0.0013632876798510551,-0.0027509666979312897,0.0007758056744933128
1761341792587142400,4.804142333984375,0.0001733824610710144,-0.00006919354200363159,0.0007756492123007774
1761341792597208600,4.81420849609375,0.00044369325041770935,0.0008357483893632889,-0.0007415539585053921
1761341792607274500,4.8242744140625,-0.002206224948167801,0.0006853565573692322,0.0005738511681556702
1761341792617340700,4.834340576171875,-0.00035772519186139107,-0.0009879078716039658,-0.00500893360003829
1761341792627407600,4.84440771484375,0.0012428294867277145,-0.0001437366008758545,0.0019533024169504642
1761341792637473500,4.8544736328125,0.0024473771918565035,0.001436317339539528,-0.0001508616842329502
1761341792647539700,4.864539794921875,-0.00040542660281062126,0.0013412106782197952,-0.0007457537576556206
1761341792657605600,4.874605712890625,-0.00018465053290128708,-0.0030988119542598724,0.0017661401070654392
1761341792667672600,4.884672607421875,-0.0006021987646818161,-0.003273271955549717,0.0018552369438111782
1761341792677738800,4.89473876953125,-0.0008456120267510414,-0.002311072312295437,-0.0008422788232564926
1761341792687804400,4.904804443359375,-0.0003839838318526745,-0.0006699897348880768,-0.0005794870667159557
1761341792697870600,4.91487060546875,0.00044425949454307556,0.0008211145177483559,0.001157959457486868
1761341792707937500,4.9249375,-0.000740312971174717,0.0008829506114125252,0.0029561277478933334
1761341792718003000,4.9350029296875,-0.0008657481521368027,-0.0005008280277252197,0.0003707306459546089
1761341792728068900,4.94506884765625,-0.000539219006896019,-0.0004219142720103264,-0.00109165720641613
1761341792738134800,4.955134765625,0.00016785040497779846,-0.002104499377310276,-0.0004506343975663185
1761341792748201700,4.96520166015625,-0.0018413728103041649,0.0010770782828330994,0.00005505559965968132
1761341792758268000,4.975267822265625,0.00341730541549623,0.0015282174572348595,0.0024926471523940563
1761341792768333800,4.985333740234375,-0.0014362912625074387,0.00045278575271368027,0.0016193725168704987
1761341792778400000,4.99539990234375,0.0022274195216596127,0.0010932758450508118,-0.00042939698323607445
1761341792788467000,5.005467041015625,-0.0009324331767857075,-0.00043611228466033936,-0.00009436905384063721
1761341792798532900,5.015532958984375,-0.0008815671317279339,-0.0006116144359111786,0.00028300099074840546
1761341792808599000,5.02559912109375,-0.003182527609169483,-0.0010762671008706093,0.0018768771551549435
1761341792818665000,5.0356650390625,-0.00003254041075706482,0.0021581416949629784,-0.001571384258568287
1761341792828732000,5.04573193359375,0.00017718225717544556,-0.0010551894083619118,-0.0014146757312119007
1761341792838797800,5.0557978515625,-0.0008779624477028847,-0.00308797974139452,0.001102544367313385
1761341792848863700,5.06586376953125,-0.00010440917685627937,0.0002071661874651909,0.0000879303552210331
1761341792858930000,5.075929931640625,-0.0005105412565171719,-0.00023598410189151764,-0.0022620433010160923
1761341792868996900,5.085996826171875,0.002145275939255953,-0.0012870701029896736,0.00032838573679327965
1761341792879062800,5.096062744140625,0.00012659979984164238,-0.0003871871158480644,0.0007792594842612743
1761341792889129000,5.10612890625,0.00027314387261867523,-0.001106436364352703,-0.001511632464826107
1761341792899195000,5.11619482421875,0.0012361425906419754,0.0009838789701461792,0.0005294140428304672
1761341792909261800,5.12626171875,0.001479567028582096,0.0012311860918998718,-0.00023945840075612068
1761341792919328000,5.136327880859375,0.0015368247404694557,0.0009424993768334389,-0.001978502608835697
1761341792929394000,5.146393798828125,0.002902334788814187,-0.00041882041841745377,-0.0015282523818314075
1761341792939460000,5.156460205078125,0.0008058943785727024,0.0003249999135732651,-0.00047443946823477745
1761341792949527000,5.166527099609375,0.0015605669468641281,0.0019257757812738419,0.0014704745262861252
1761341792959592700,5.1765927734375,-0.0003662300296127796,-0.0016322070732712746,-0.002232384867966175
1761341792969659000,5.186658935546875,0.0004758397117257118,0.0000301385298371315,0.0008142953738570213
1761341792979724800,5.196724853515625,-0.00024294713512063026,-0.0005975682288408279,-0.0022081262432038784
1761341792989791700,5.206791748046875,0.0007606879808008671,-0.0010813502594828606,0.0009426367469131947
1761341792999858000,5.21685791015625,0.0005870498716831207,-0.0004302076995372772,-0.0007551279850304127
1761341793009923800,5.226923828125,0.00011051120236515999,0.002017563208937645,0.0020791455172002316
1761341793019990000,5.236989990234375,-0.0013406453654170036,0.001438857987523079,-0.0013273037038743496
1761341793030057000,5.247056884765625,-0.0006127809174358845,-0.00037035997956991196,0.0004889704287052155
1761341793040123000,5.257122802734375,0.0017515732906758785,0.00015375018119812012,-0.0011150515638291836
1761341793050189000,5.26718896484375,0.00015975721180438995,0.0011568237096071243,0.0006328779272735119
1761341793060254700,5.277254638671875,-0.0006098966114223003,-0.0010320283472537994,0.002493096049875021
1761341793070322000,5.287322021484375,-0.0020659640431404114,0.0020478125661611557,0.0013482291251420975
1761341793080387800,5.297387939453125,-0.0026747630909085274,-0.0005996357649564743,-0.0019426392391324043
1761341793090453800,5.307453857421875,0.0009494740515947342,-0.00038756057620048523,0.0016183285042643547
1761341793100520000,5.31752001953125,0.001246150117367506,0.0013533476740121841,0.0004444075748324394
1761341793110587000,5.3275869140625,-0.00025566667318344116,-0.0012296279892325401,-0.001779310405254364
1761341793120652800,5.33765283203125,-0.0013116099871695042,-0.0002679601311683655,0.0025778878480196
1761341793130719000,5.347718994140625,-0.00040570134297013283,0.0000051138922572135925,0.001798716839402914
1761341793140785000,5.357784912109375,0.0006723459810018539,-0.0016252733767032623,0.002606453839689493
1761341793150851800,5.367851806640625,-0.0004423600621521473,-0.0005629677325487137,-0.0020452667959034443
1761341793160918000,5.37791796875,0.0010482114739716053,0.0010213470086455345,-0.0010793386027216911
1761341793170984000,5.38798388671875,-0.001609260682016611,0.00023545604199171066,-0.002168110106140375
1761341793181049900,5.3980498046875,0.0000839773565530777,0.001096455380320549,-0.0017699678428471088
1761341793191116800,5.40811669921875,-0.0015566814690828323,0.0005522239953279495,-0.0009707380086183548
1761341793201182700,5.4181826171875,0.00033922260627150536,-0.0003726910799741745,0.0008167759515345097
1761341793211249000,5.428248779296875,0.0002570939250290394,0.0005227634683251381,-0.0014238432049751282
1761341793221314800,5.438314697265625,0.0009388630278408527,-0.001416284590959549,0.0010313247330486774
1761341793231382000,5.448382080078125,0.0012720362283289433,-0.0005893884226679802,-0.0005220607854425907
1761341793241448000,5.458447998046875,-0.0017194920219480991,0.0009256843477487564,-0.000686377752572298
1761341793251513900,5.468513916015625,-0.0007461663335561752,-0.0013061324134469032,-0.0017158170230686665
1761341793261580000,5.478580078125,0.0008658450096845627,0.002950398251414299,-0.0004718545824289322
1761341793271647000,5.48864697265625,-0.001740388572216034,0.0005829110741615295,-0.00020585441961884499
1761341793281713000,5.498712890625,0.0013126591220498085,-0.00023361388593912125,-0.0013267789036035538
1761341793291779000,5.508779052734375,-0.0023382813669741154,0.0004357248544692993,0.0013739834539592266
1761341793301844700,5.5188447265625,-0.0016301469877362251,0.0005475776270031929,-0.0014598863199353218
1761341793311912000,5.528911865234375,0.0006557484157383442,0.0005531897768378258,0.0014639375731348991
1761341793321977900,5.538977783203125,0.0007897056639194489,0.0012924829497933388,-0.0007203873246908188
1761341793332043800,5.549043701171875,0.0013925470411777496,-0.0007245121523737907,0.0019054478034377098
1761341793342110000,5.55910986328125,0.0008966661989688873,-0.002049434930086136,0.0005400450900197029
1761341793352177000,5.569177001953125,0.0001584179699420929,-0.000418148934841156,-0.0009890878573060036
1761341793362242800,5.579242919921875,-0.0013968679122626781,0.00022553745657205582,0.00132013950496912
1761341793372309000,5.58930908203125,0.0016273390501737595,-0.0030133724212646484,-0.002322874963283539
1761341793382375000,5.599375,-0.001685100607573986,0.0001904107630252838,-0.0010474869050085545
1761341793392442000,5.609442138671875,0.0006290809251368046,0.0030798427760601044,0.000015533994883298874
1761341793402508000,5.619508056640625,0.0008687656372785568,-0.000550311990082264,-0.00032082339748740196
1761341793412573700,5.62957373046875,-0.000693006906658411,0.0019330624490976334,-0.0003972775302827358
1761341793422639900,5.639639892578125,-0.0013622590340673923,-0.0002219676971435547,-0.0013674674555659294
1761341793432706800,5.649706787109375,0.0005567711777985096,-0.0005475664511322975,0.00019826088100671768
1761341793442773000,5.65977294921875,-0.00018092477694153786,0.0011856192722916603,-0.0013490356504917145
1761341793452839000,5.6698388671875,0.0005965735763311386,-0.0002705138176679611,0.0008459780365228653
1761341793462904800,5.67990478515625,-0.0007043806836009026,0.0004211096093058586,-0.0000784057192504406
1761341793472972000,5.689971923828125,0.000813810620456934,-0.0006316322833299637,-0.0005334229208528996
1761341793483038000,5.700037841796875,-0.0015707840211689472,-0.0003943443298339844,0.0003395616076886654
1761341793493103900,5.710103759765625,0.0014670230448246002,0.0018776031211018562,-0.001138034276664257
1761341793503170000,5.720170166015625,0.0018606381490826607,0.0016504349187016487,-0.0010032784193754196
1761341793513237000,5.730237060546875,0.0024915789254009724,0.0009300783276557922,0.0004036109894514084
1761341793523303000,5.740302978515625,-0.0014975699596107006,-0.0016633085906505585,-0.0013492819853127003
1761341793533368800,5.750368896484375,0.0022010712418705225,0.00012020021677017212,0.000742706935852766
1761341793543434800,5.760434814453125,-0.00020669260993599892,0.001972162164747715,0.0026892111636698246
1761341793553502000,5.770501953125,0.0007196627557277679,0.0005883025005459785,-0.00196200143545866
1761341793563567900,5.78056787109375,0.0013566911220550537,-0.0015637986361980438,0.0013480414636433125
1761341793573633800,5.7906337890625,-0.0024584862403571606,0.0003129616379737854,0.0016887984238564968
1761341793583700000,5.800699951171875,-0.0009399512782692909,0.0004868665710091591,0.001050970982760191
1761341793593766000,5.810765869140625,0.001159984152764082,0.002558654174208641,0.0015798285603523254
1761341793603833000,5.8208330078125,-0.0013497788459062576,-0.003679533489048481,-0.002341143786907196
1761341793613899000,5.83089892578125,-0.0014942865818738937,0.0008770283311605453,0.00014342181384563446
1761341793623965000,5.84096484375,-0.0004287557676434517,0.0018970193341374397,-0.00018441351130604744
1761341793634030800,5.85103076171875,-0.0002650422975420952,-0.0010377243161201477,-0.0013351785019040108
1761341793644097800,5.861097900390625,-0.000890352763235569,0.0017066635191440582,-0.00020892778411507607
1761341793654163700,5.871163818359375,0.0014157844707369804,0.0016692355275154114,0.002206385601311922
1761341793664230000,5.88122998046875,-0.0016844016499817371,0.0018644453957676888,-0.00018566567450761795
1761341793674296800,5.891296875,0.0013532009907066822,0.00027377065271139145,-0.0025509283877909184
1761341793684363000,5.901363037109375,-0.0023307497613132,-0.0002785688266158104,-0.0002739257179200649
1761341793694429000,5.911428955078125,-0.0002068714238703251,-0.0005650222301483154,0.00112997367978096
1761341793704494800,5.921494873046875,0.0009630555287003517,-0.0007695527747273445,-0.0024170908145606518
1761341793714561800,5.931561767578125,0.00004994077607989311,-0.00009851343929767609,0.00044152792543172836
1761341793724628700,5.941628662109375,0.00087365647777915,-0.0008812164887785912,0.00216858834028244
1761341793734694400,5.9516943359375,-0.0002728649415075779,0.0013123322278261185,-0.0010229195468127728
1761341793744760600,5.961760498046875,0.0005194256082177162,0.00010458845645189285,-0.001466868445277214
1761341793754826500,5.971826416015625,-0.0002461029216647148,-0.00014424696564674377,0.003360253293067217
1761341793764893400,5.9818935546875,0.0002742786891758442,-0.0011253561824560165,-0.0008693784475326538
1761341793774959600,5.991959716796875,-0.0007458399049937725,0.00017264019697904587,0.002205231226980686
1761341793785025500,6.002025634765625,0.0004432615824043751,-0.0019227350130677223,-0.0011508841998875141
1761341793795091700,6.012091796875,-0.0012001283466815948,-0.00012128986418247223,-0.0014268681406974792
1761341793805158700,6.02215869140625,-0.00010184058919548988,-0.0020784465596079826,-0.0014926479198038578
1761341793815224600,6.032224609375,-0.001579753588885069,-0.0015257438644766808,0.0008688014931976795
1761341793825290800,6.042290771484375,-0.0016806875355541706,0.001813594251871109,-0.00009180046617984772
1761341793835356400,6.0523564453125,0.0004911520518362522,0.0004491237923502922,-0.0018735132180154324
1761341793845423600,6.062423583984375,0.0024112912360578775,0.0005822815001010895,-0.0020916261710226536
1761341793855489500,6.072489501953125,0.0012440099380910397,0.0011208578944206238,-0.00009046820923686028
1761341793865555500,6.082555419921875,0.0033303305972367525,-0.0006490796804428101,0.0018110289238393307
1761341793875621600,6.09262158203125,0.0005737855099141598,0.00007453560829162598,0.0002386895939707756
1761341793885688600,6.1026884765625,0.0014630150981247425,0.0009818747639656067,-0.0006654537282884121
1761341793895754500,6.11275439453125,0.0010233544744551182,0.0031048422679305077,0.0011426336131989956
1761341793905820700,6.122820556640625,0.0003911200910806656,0.00037110690027475357,-0.0027983123436570168
1761341793915886600,6.132886474609375,-0.00017543975263834,0.0010126279667019844,-0.0007918174378573895
1761341793925953500,6.14295361328125,0.0006781034171581268,0.0012768134474754333,0.0023850672878324986
1761341793936019700,6.153019775390625,0.0007044500671327114,-0.0020474204793572426,-0.0008420171216130257
1761341793946085600,6.163085693359375,-0.0009107571095228195,0.0022663678973913193,0.0023995828814804554
1761341793956151600,6.173151611328125,-0.00020000338554382324,0.0019669216126203537,-0.0016470295377075672
1761341793966218500,6.183218505859375,0.0008711200207471848,-0.0008794646710157394,0.002750381361693144
1761341793976284400,6.193284423828125,0.0017118500545620918,0.0005992529913783073,0.001343289390206337
1761341793986350600,6.2033505859375,-0.0019366806373000145,-0.001350180245935917,-0.0015734047628939152
1761341793996416500,6.21341650390625,-0.0015668091364204884,-0.0015366189181804657,0.002300627063959837
1761341794006483500,6.2234833984375,0.0005884873680770397,0.003202209249138832,0.0012129922397434711
1761341794016549600,6.233549560546875,0.00015480630099773407,-0.0031792661175131798,-0.0009112227708101273
1761341794026615600,6.243615478515625,-0.0005527958273887634,0.000022652558982372284,-0.00012905243784189224
1761341794036681700,6.253681640625,0.00021098461002111435,0.0013222917914390564,0.0013450118713080883
1761341794046748700,6.263748779296875,0.0008815685287117958,-0.0016436707228422165,0.0019122655503451824
1761341794056814600,6.273814697265625,0.0005841553211212158,-0.00008421670645475388,-0.0014615054242312908
1761341794066880800,6.283880859375,0.0010022716596722603,0.0004417579621076584,0.0008783480152487755
1761341794076946400,6.293946533203125,-0.0010267142206430435,0.0015206104144454002,0.002519176807254553
1761341794087013400,6.304013427734375,-0.0004975441843271255,-0.0011060647666454315,0.0010757441632449627
1761341794097079600,6.31407958984375,-0.0004018498584628105,0.00023949332535266876,-0.0022453945130109787
1761341794107145500,6.3241455078125,-0.0023411642760038376,0.0005550775676965714,-0.000556684099137783
1761341794117211600,6.334211669921875,-0.0007980559021234512,-0.002215336076915264,-0.0011894102208316326
1761341794127278600,6.344278564453125,-0.0024627982638776302,0.00022518448531627655,-0.0007803486660122871
1761341794137344500,6.354344482421875,0.000398111529648304,0.0014175353571772575,-0.0006219935603439808
1761341794147410700,6.36441064453125,-0.00027620093896985054,-0.0015955651178956032,0.0001894715242087841
1761341794157476600,6.3744765625,-0.000983834732323885,-0.0009845048189163208,-0.0004389313980937004
1761341794167543600,6.38454345703125,-0.002066410146653652,0.0001262994483113289,0.000003952067345380783
1761341794177609700,6.394609619140625,0.002669351175427437,-0.0006509535014629364,-0.00034485384821891785
1761341794187675400,6.40467529296875,-0.00210862560197711,0.0027967747300863266,0.00026900507509708405
1761341794197741600,6.414741455078125,-0.00008878950029611588,-0.0027241790667176247,-0.00009263819083571434
1761341794207808500,6.42480859375,-0.0012046541087329388,-0.002057589590549469,-0.000021531712263822556
1761341794217874400,6.43487451171875,0.0004060831852257252,0.002460128627717495,-0.0012823217548429966
1761341794227940600,6.444940673828125,-0.000855189748108387,0.00041641853749752045,-0.0018458464182913303
1761341794238006500,6.455006591796875,-0.0004193522036075592,0.0018246341496706009,-0.000151866115629673
1761341794248073500,6.465073486328125,0.0011630980297923088,-0.0010241493582725525,0.000672382302582264
1761341794258139600,6.4751396484375,0.0011104275472462177,0.0019451482221484184,-0.0005165813490748405
1761341794268205600,6.48520556640625,-0.00034126127138733864,-0.001648787409067154,-0.00033042626455426216
1761341794278271700,6.495271728515625,0.0012903064489364624,-0.00015146750956773758,0.000621376559138298
1761341794288338700,6.505338623046875,0.0003321012482047081,0.0015771910548210144,0.0013422947376966476
1761341794298404600,6.515404541015625,-0.000499167013913393,-0.0018963245674967766,0.0011123539879918098
1761341794308470500,6.525470458984375,-0.0013039740733802319,-0.000804961659014225,0.000934455543756485
1761341794318536400,6.535536376953125,-0.0003543086349964142,0.0014419928193092346,0.0005146749317646027
1761341794328603400,6.545603271484375,-0.0006078416481614113,-0.002967669628560543,-0.0014986749738454819
1761341794338669600,6.555669677734375,0.0007689944468438625,-0.0014034230262041092,0.0015225564129650593
1761341794348735500,6.565735595703125,-0.0008542020805180073,-0.0010340427979826927,-0.0017651156522333622
1761341794358801700,6.5758017578125,0.001142375636845827,0.0004852414131164551,0.0003470578230917454
1761341794368868600,6.58586865234375,-0.0004398082382977009,0.0019803401082754135,0.0025494913570582867
1761341794378934500,6.5959345703125,0.0009646727703511715,0.0013685952872037888,0.0016719209961593151
1761341794389000700,6.606000732421875,0.0012576207518577576,-0.0004159891977906227,0.00043727969750761986
1761341794399066600,6.616066650390625,-0.001268670428544283,-0.0019153952598571777,0.0007500010542571545
1761341794409132500,6.626132568359375,-0.00004175212234258652,0.0002963598817586899,0.0038853404112160206
1761341794419199700,6.63619970703125,0.000812087208032608,0.0006492855027318001,-0.0015780269168317318
1761341794429265400,6.646265380859375,0.0007383176125586033,-0.0002977345138788223,-0.00009278208017349243
1761341794439331600,6.65633154296875,-0.0008069281466305256,0.00029251445084810257,-0.004173599183559418
1761341794449397500,6.6663974609375,-0.0010210461914539337,-0.003050285391509533,0.0026744534261524677
1761341794459464400,6.67646435546875,-0.0007835738360881805,0.00018043257296085358,-0.0009030885994434357
1761341794469530600,6.686530517578125,-0.00001285504549741745,0.001855027861893177,0.0003059864975512028
1761341794479596500,6.696596435546875,-0.00004022102802991867,0.0006435923278331757,-0.0013360008597373962
1761341794489662700,6.706662841796875,-0.0014881817623972893,0.0005208207294344902,0.0006975885480642319
1761341794499729700,6.716729736328125,0.00043626828119158745,0.0016521066427230835,-0.0005438458174467087
1761341794509795600,6.726795654296875,-0.0016223546117544174,-0.002347162924706936,0.00020050769671797752
1761341794519861800,6.73686181640625,0.000010223127901554108,0.001090656965970993,-0.00008984003216028214
1761341794529927400,6.746927490234375,-0.00025502778589725494,0.000819547101855278,0.00100631732493639
1761341794539994400,6.756994384765625,0.0004071551375091076,0.0017244014889001846,0.000441795215010643
1761341794550060500,6.767060546875,0.002313978271558881,0.001401626504957676,0.0024562105536460876
1761341794560126500,6.77712646484375,-0.0012670625001192093,-0.0005219252780079842,-0.002182314172387123
1761341794570192600,6.787192626953125,-0.00017729680985212326,0.0006530610844492912,0.0009660753421485424
1761341794580259600,6.797259521484375,0.001206777524203062,0.0006663873791694641,0.0005543348379433155
1761341794590325500,6.807325439453125,-0.000026798807084560394,-0.0010761190205812454,-0.002224407624453306
1761341794600391700,6.8173916015625,-0.0008809324353933334,-0.00007228273898363113,0.0016798581928014755
1761341794610457600,6.82745751953125,0.0009776875376701355,-0.0012171762064099312,-0.0008919565007090569
1761341794620524500,6.837524658203125,-0.0005126581527292728,0.0014919852837920189,0.0009912755340337753
1761341794630590700,6.8475908203125,0.0009920280426740646,0.003155129961669445,-0.0014998456463217735
1761341794640656400,6.857656494140625,0.000054490286856889725,-0.000164850614964962,-0.00013983389362692833
1761341794650722600,6.86772265625,-0.0006829393096268177,0.00013715215027332306,-0.00006340118125081062
1761341794660789500,6.87778955078125,0.002497035311535001,-0.0012067453935742378,0.0011341082863509655
1761341794670855400,6.88785546875,-0.0026636384427547455,0.0005485443398356438,-0.0008225156925618649
1761341794680921600,6.897921630859375,-0.001496198121458292,0.0015508951619267464,0.0016584866680204868
1761341794690987500,6.907987548828125,0.0007717497646808624,-0.001358075998723507,-0.001349820289760828
1761341794701054500,6.918054443359375,0.00008858507499098778,-0.0011315178126096725,-0.0014665331691503525
1761341794711120600,6.92812060546875,0.001119761262089014,-0.0004731845110654831,0.0015316535718739033
1761341794721186800,6.938186767578125,-0.002227067481726408,-0.0005550440400838852,0.0004965076223015785
1761341794731253000,6.9482529296875,-0.002307229209691286,0.000685456208884716,-0.002239624038338661
1761341794741320000,6.95831982421875,0.0014506117440760136,-0.0008906526491045952,0.0019728452898561954
1761341794751385900,6.9683857421875,-0.0005310466513037682,-0.0011258097365498543,-0.00011054519563913345
1761341794761452000,6.9784521484375,0.0010251961648464203,-0.0010722512379288673,-0.001056584995239973
1761341794771518000,6.98851806640625,-0.00022755470126867294,-0.00011937133967876434,-0.0017090598121285439
1761341794781585000,6.9985849609375,-0.0012426073662936687,-0.0032684383913874626,0.0013120882213115692
1761341794791651000,7.008651123046875,0.0012967162765562534,0.0016991561278700829,-0.001367851160466671
1761341794801716700,7.018716796875,-0.0004147551953792572,0.0020012175664305687,-0.002513405866920948
1761341794811783000,7.028782958984375,-0.0007926579564809799,-0.002586609683930874,-0.0003290809690952301
1761341794821849900,7.038849853515625,-0.00023464486002922058,0.0007878150790929794,-0.0004962170496582985
1761341794831915800,7.048915771484375,-0.00034436676651239395,0.0017098011448979378,-0.0007854360155761242
1761341794841982000,7.05898193359375,0.0002693701535463333,-0.0006929868832230568,-0.0011690002866089344
1761341794852048000,7.0690478515625,-0.0005335728637874126,0.0005898578092455864,0.0002821558155119419
1761341794862114800,7.07911474609375,0.00019475864246487617,0.0027317749336361885,-0.0009647230617702007
1761341794872181000,7.089180908203125,0.0017705513164401054,0.0003418540582060814,0.0021815355867147446
1761341794882247000,7.099246826171875,-0.0009189406409859657,-0.00023268535733222961,0.0006770677864551544
1761341794892313000,7.10931298828125,-0.0007538245990872383,-0.0004502655938267708,-0.00030137738212943077
1761341794902380000,7.119380126953125,-0.00015225913375616074,0.0016657933592796326,-0.0005641989409923553
1761341794912446000,7.129446044921875,0.0010336465202271938,0.0007166434079408646,0.0010036039166152477
1761341794922512000,7.139511962890625,0.0007910961285233498,-0.00037900544703006744,-0.0012713600881397724
1761341794932577800,7.149577880859375,0.004073441959917545,0.0005573621019721031,0.0004415847361087799
1761341794942644700,7.159644775390625,0.0014836285263299942,-0.00030324235558509827,-0.0013982327654957771
1761341794952711000,7.1697109375,-0.0015526413917541504,0.0013649612665176392,-0.0006525479257106781
1761341794962776800,7.17977685546875,-0.00024895090609788895,0.00007992703467607498,0.0017642234452068806
1761341794972843000,7.189843017578125,0.00006583472713828087,-0.0013240911066532135,-0.0003077154979109764
1761341794982910000,7.199909912109375,-0.0011105849407613277,0.0011042878031730652,0.0008609099313616753
1761341794992976000,7.209975830078125,0.0026442056987434626,-0.000893881544470787,0.00055704265832901
1761341795003042000,7.2200419921875,0.0014473479241132736,0.0014350125566124916,0.00024372199550271034
1761341795013108000,7.23010791015625,0.0003972635604441166,0.0006246129050850868,0.0010165711864829063
1761341795023175000,7.2401748046875,-0.0013996907509863377,-0.0009500347077846527,-0.0001821964979171753
1761341795033241000,7.250240966796875,0.0014312495477497578,0.0013658497482538223,0.0019861487671732903
1761341795043306800,7.260306640625,-0.0029880977235734463,0.0005016857758164406,0.0036420528776943684
1761341795053373000,7.270373046875,0.002240486443042755,0.0020055733621120453,0.00008593359962105751
1761341795063438800,7.28043896484375,0.0017389976419508457,0.002046060748398304,0.0023650256916880608
1761341795073505800,7.290505859375,-0.0013428125530481339,-0.00008952803909778595,0.0018094899132847786
1761341795083572000,7.300572021484375,0.0008191452361643314,0.0013503944501280785,-0.0008718017488718033
1761341795093638000,7.310637939453125,-0.0025103390216827393,0.0005546417087316513,0.0012858910486102104
1761341795103704000,7.3207041015625,-0.0025439634919166565,0.0009004883468151093,-0.0009675254113972187
1761341795113771000,7.33077099609375,-0.000006769783794879913,-0.0003187069669365883,-0.002033855300396681
1761341795123837000,7.3408369140625,-0.0013125808909535408,-0.0025822697207331657,-0.0002110544592142105
1761341795133903000,7.350903076171875,-0.0010867449454963207,0.0006662542000412941,-0.0016632764600217342
1761341795143968800,7.36096875,0.000727314967662096,-0.0004898440092802048,0.0018360959365963936
1761341795154035700,7.37103564453125,0.0015965704806149006,-0.0008696103468537331,-0.0009887190535664558
1761341795164102000,7.381101806640625,-0.0022413721308112144,0.000688234344124794,-0.0034204162657260895
1761341795174167800,7.391167724609375,0.001177328173071146,0.000380638986825943,-0.0018030786886811256
1761341795184234000,7.40123388671875,-0.0007307552732527256,0.0015846723690629005,0.0013063694350421429
1761341795194301000,7.411301025390625,-0.00006736163049936295,0.0007441788911819458,0.0014243475161492825
1761341795204366800,7.421366943359375,-0.00018261978402733803,0.0009226016700267792,-0.0013759220018982887
1761341795214433000,7.43143310546875,-0.0001264270395040512,0.0002786489203572273,0.0014294516295194626
1761341795224499000,7.4414990234375,0.0032657242845743895,-0.0019484059885144234,-0.0022034659050405025
1761341795234566000,7.45156591796875,-0.0005814782343804836,0.0007701488211750984,0.001111903227865696
1761341795244632000,7.461632080078125,0.0005689756944775581,0.005136778578162193,0.001648204866796732
1761341795254698000,7.471697998046875,-0.0006518173031508923,-0.0022335201501846313,-0.0011784741654992104
1761341795264764000,7.481763916015625,-0.001500663347542286,0.00046136509627103806,0.0016377842985093594
1761341795274830800,7.491830810546875,-0.0006316737271845341,0.001809190958738327,0.004780847113579512
1761341795284896800,7.501896728515625,0.0007114834152162075,-0.001817137934267521,0.00266973115503788
1761341795294963000,7.511962890625,0.0005045561119914055,-0.0007031373679637909,0.0009501278400421143
1761341795305028900,7.52202880859375,0.0016302242875099182,0.0002813199535012245,0.00024088751524686813
1761341795315095800,7.532095703125,0.0021966788917779922,0.0002485625445842743,-0.0005258368328213692
1761341795325162000,7.542161865234375,-0.0008209799416363239,-0.00009789876639842987,0.0002821325324475765
1761341795335228000,7.552227783203125,-0.0008627912029623985,0.00044485367834568024,0.0006019785068929195
1761341795345294000,7.562294189453125,-0.00025399914011359215,0.0004838397726416588,-0.0025907643139362335
1761341795355361000,7.572361083984375,-0.0013195294886827469,0.0027557825669646263,-0.00038353633135557175
1761341795365427000,7.582427001953125,0.001244665589183569,-0.000559602864086628,0.00018683075904846191
1761341795375492900,7.592492919921875,0.0003775404766201973,-0.0002456158399581909,0.0027447971515357494
1761341795385558800,7.602558837890625,-0.00038802623748779297,0.0007600011304020882,-0.00008465070277452469
1761341795395625700,7.612625732421875,-0.0008120015263557434,-0.00016598030924797058,0.001844276674091816
1761341795405692000,7.62269189453125,0.000022839754819869995,-0.0006409017369151115,0.0002692551352083683
1761341795415757800,7.6327578125,0.0024332667235285044,0.001033693552017212,0.0005163969472050667
1761341795425824000,7.642823974609375,-0.00021879002451896667,0.0003047483041882515,-0.0007101278752088547
1761341795435891000,7.652890869140625,0.00004166737198829651,-0.00010671000927686691,0.001618274487555027
1761341795445956900,7.662956787109375,0.0008439184166491032,-0.0003024907782673836,0.002362427767366171
1761341795456023000,7.67302294921875,-0.00013133138418197632,-0.00019916053861379623,0.0017254003323614597
1761341795466089000,7.6830888671875,0.0012947223149240017,-0.0015824828296899796,-0.0029603694565594196
1761341795476156000,7.693156005859375,-0.000014221295714378357,0.00037653837352991104,-0.0006628604605793953
1761341795486222000,7.70322216796875,0.001625651028007269,0.0003094552084803581,-0.0004496881738305092
1761341795496287700,7.713287841796875,-0.0002470840699970722,-0.0015955036506056786,-0.00017857830971479416
1761341795506354000,7.72335400390625,0.002397900214418769,0.0017948029562830925,-0.00007084989920258522
1761341795516419800,7.733419921875,0.0016700583510100842,0.00005495920777320862,0.0000423346646130085
1761341795526486800,7.74348681640625,0.0006312960758805275,-0.0011343732476234436,-0.001763585489243269
1761341795536553000,7.753552978515625,-0.0003673890605568886,0.0018118824809789658,-0.00020670192316174507
1761341795546619000,7.763618896484375,0.0003062887117266655,0.00033747125416994095,0.002693319693207741
1761341795556685000,7.77368505859375,-0.0011552544310688972,0.0005555842071771622,-0.002217549365013838
1761341795566752000,7.783751953125,0.0003558970056474209,0.0013451818376779556,0.001539465505629778
1761341795576818000,7.79381787109375,0.0009127636440098286,0.0009707417339086533,0.0006236047483980656
1761341795586884000,7.803884033203125,-0.000944242812693119,0.0004555303603410721,0.002657548990100622
1761341795596949800,7.81394970703125,0.002358875935897231,0.002193775027990341,-0.001534000039100647
1761341795607017000,7.824016845703125,-0.0018223808147013187,-0.002038191072642803,0.0007638176903128624
1761341795617083000,7.834082763671875,0.0012671523727476597,0.0013655954971909523,-0.0018396885134279728
1761341795627148800,7.844148681640625,-0.0025885915383696556,0.00006143562495708466,0.0027818772941827774
1761341795637215000,7.854215087890625,0.00017923163250088692,0.0004510562866926193,-0.0022373818792402744
1761341795647282000,7.864281982421875,-0.00203870702534914,-0.00003834068775177002,0.00014791637659072876
1761341795657347800,7.874347900390625,0.0009930357336997986,0.0026708925142884254,-0.0009074942208826542
1761341795667414000,7.8844140625,-0.0017261896282434464,0.0001645497977733612,0.003533733543008566
1761341795677480000,7.89447998046875,-0.0009197844192385674,0.0010375333949923515,-0.0028506629168987274
1761341795687547000,7.904546875,-0.0016325893811881542,-0.002088138833642006,-0.0011405306868255138
1761341795697613000,7.914613037109375,-0.0002711811102926731,-0.0007312586531043053,0.0031021516770124435
1761341795707679000,7.924678955078125,-0.0018875314854085445,0.0017752135172486305,0.0007436014711856842
1761341795717744000,7.934744140625,-0.0002608723007142544,-0.0004618419334292412,0.0016240421682596207
1761341795727811000,7.94481103515625,0.00009299349039793015,0.0005465801805257797,0.002996250055730343
1761341795737877200,7.954877197265625,0.0014133886434137821,-0.000476873479783535,-0.0011710640974342823
1761341795747943200,7.964943115234375,0.00035806745290756226,-0.0010505914688110352,0.0012137312442064285
1761341795758008800,7.9750087890625,-0.0012701894156634808,0.0007441127672791481,0.0005159825086593628
1761341795768076000,7.985075927734375,-0.0013529700227081776,-0.0007155602797865868,-0.0014703283086419106
1761341795778142000,7.995141845703125,-0.0011694785207509995,-0.000958440825343132,0.0009986883960664272
1761341795788208000,8.0052080078125,-0.0011271634139120579,-0.000391203910112381,0.0012741643004119396
1761341795798274000,8.015274169921875,-0.00022195512428879738,-0.0007304912433028221,0.0004685581661760807
1761341795808340000,8.025340087890624,0.00018548639491200447,-0.003043913282454014,-0.001070633064955473
1761341795818406100,8.03540625,-0.0007181242108345032,0.003696814179420471,0.0031637931242585182
1761341795828472000,8.04547216796875,0.0010184082202613354,-0.0008941441774368286,0.0019662603735923767
1761341795838539000,8.0555390625,-0.00026150699704885483,0.001469678245484829,0.0015633245930075645
1761341795848605200,8.065605224609374,-0.0011233994737267494,-0.00012172665446996689,0.001347868237644434
1761341795858670800,8.0756708984375,0.0008832924067974091,0.0009283572435379028,0.0008293506689369678
1761341795868737000,8.085737060546874,-0.00006202515214681625,-0.00146397203207016,0.0017524957656860352
1761341795878804000,8.095803955078125,0.0007385211065411568,0.00036535318940877914,0.0018750010058283806
1761341795888870000,8.105869873046874,0.0008317292667925358,-0.0005723703652620316,0.00002935575321316719
1761341795898936000,8.11593603515625,-0.0012732329778373241,-0.0006037959828972816,0.0006674490869045258
1761341795909002000,8.126001953125,-0.0017797397449612617,0.0017106570303440094,-0.0007517766207456589
1761341795919069000,8.13606884765625,-0.00026067253202199936,-0.0010499758645892143,0.0003254720941185951
1761341795929135000,8.146135009765626,0.0011764662340283394,0.0005721421912312508,-0.001519481185823679
1761341795939201000,8.156200927734375,-0.0014811023138463497,0.0016139708459377289,0.0013410202227532864
1761341795949267200,8.16626708984375,-0.0009898771531879902,-0.0013865809887647629,-0.0009018294513225555
1761341795959334100,8.176334228515625,0.000828529242426157,0.0013884324580430984,-0.0014365925453603268
1761341795969399800,8.18639990234375,0.0015425030142068863,-0.0018394999206066132,0.0007657604292035103
1761341795979466000,8.196466064453125,-0.0009997505694627762,-0.0012762416154146194,0.0020435452461242676
1761341795989532000,8.206531982421875,-0.001506312284618616,-0.0014072991907596588,0.0018577617593109608
1761341795999599000,8.21659912109375,-0.0027284366078674793,-0.0009178100153803825,-0.00025918520987033844
1761341796009665000,8.2266650390625,-0.0001541338860988617,0.0016188332810997963,-0.001032605767250061
1761341796019731000,8.23673095703125,0.0012890328653156757,-0.0007074372842907906,-0.0021897493861615658
1761341796029797000,8.246797119140625,0.0011552274227142334,0.0005987118929624557,-0.0002717114984989166
1761341796039864000,8.256864013671875,-0.0016773110255599022,-0.0014849454164505005,0.0007714489474892616
1761341796049930000,8.266929931640625,-0.0023050233721733093,-0.0006612613797187805,-0.0007362561300396919
1761341796059996200,8.27699609375,-0.0009710458107292652,0.001530786044895649,0.004765302408486605
1761341796070062000,8.28706201171875,-0.000646454282104969,0.0007621971890330315,0.004248153883963823
1761341796080129000,8.29712890625,0.0012148288078606129,-0.0015843138098716736,-0.0032339971512556076
1761341796090195000,8.30719482421875,-0.00008600624278187752,0.0005993088707327843,0.0020681656897068024
1761341796100260900,8.3172607421875,-0.002153418492525816,-0.002310195006430149,-0.0016330955550074577
1761341796110327000,8.3273271484375,0.00009230384603142738,-0.00006682425737380981,0.0024402569979429245
1761341796120394000,8.33739404296875,0.002111512701958418,0.0006255973130464554,0.00011478457599878311
1761341796130460000,8.3474599609375,-0.0003580925986170769,-0.002027696929872036,0.0015074633993208408
1761341796140526000,8.357526123046876,0.0005276747979223728,0.002865063026547432,0.0010211705230176449
1761341796150592000,8.367592041015625,-0.0009188507683575153,-0.0001973537728190422,0.0008669835515320301
1761341796160659200,8.3776591796875,0.0030726951081305742,0.0026820553466677666,-0.0005791131407022476
1761341796170725000,8.38772509765625,0.00017418945208191872,-0.00011817272752523422,0.0003767712041735649
1761341796180791000,8.397791015625,-0.0009163748472929001,0.00014361552894115448,-0.0011787810362875462
1761341796190857000,8.40785693359375,-0.0015313527546823025,0.0017111729830503464,-0.0015494669787585735
1761341796200924200,8.417924072265626,-0.0005076336674392223,-0.0015370845794677734,-0.0002724812366068363
1761341796210990000,8.427989990234375,0.000623882282525301,-0.0006602229550480843,0.0029162620194256306
1761341796221056000,8.438055908203125,0.0009599733166396618,-0.00015475507825613022,0.000008090399205684662
1761341796231123000,8.448123046875,-0.001887553371489048,-0.0003613121807575226,-0.0014345445670187473
1761341796241189000,8.458189208984376,-0.0016444064676761627,-0.0017757164314389229,0.0023404862731695175
1761341796251255000,8.468255126953125,-0.00018928060308098793,-0.0013820715248584747,0.0004315418191254139
1761341796261321000,8.478321044921875,-0.0002113846130669117,-0.0001221299171447754,-0.0008622216992080212
1761341796271387100,8.48838720703125,-0.002228294499218464,0.0013556517660617828,-0.0008189468644559383
1761341796281454000,8.4984541015625,0.002133963629603386,-0.0021011317148804665,0.0026604728773236275
1761341796291520000,8.50852001953125,0.002152626868337393,0.0009852442890405655,-0.0015595434233546257
1761341796301586200,8.518586181640625,-0.0012074834667146206,0.0014843214303255081,0.0010266518220305443
1761341796311651800,8.52865185546875,-0.0004778224974870682,-0.0005767513066530228,0.0006572660058736801
1761341796321719000,8.538718994140625,-0.0007918090559542179,-0.0003610355779528618,0.0011347699910402298
1761341796331785000,8.548784912109374,-0.0015689171850681305,0.0006423406302928925,-0.0010442719794809818
1761341796341851000,8.558850830078125,0.0019451240077614784,0.0009480714797973633,0.001562695950269699
1761341796351917000,8.5689169921875,-0.0004744715988636017,0.0029260097071528435,0.00032455893233418465
1761341796361984000,8.57898388671875,0.00013885414227843285,-0.0006104018539190292,-0.0015063644386827946
1761341796372050000,8.5890498046875,-0.0016136877238750458,0.0017233509570360184,-0.0001558847725391388
1761341796382116000,8.5991162109375,0.002299294341355562,-0.0018972167745232582,0.00040257954970002174
1761341796392182000,8.60918212890625,-0.00035964837297797203,0.0008964557200670242,0.002331426367163658
1761341796402249200,8.619249267578125,-0.0003431364893913269,-0.002025565132498741,0.002580964006483555
1761341796412315100,8.629315185546876,-0.00009051989763975143,-0.002278274856507778,-0.00030438369140028954
1761341796422381000,8.639381103515625,0.000363815575838089,0.0005462737753987312,0.00005833897739648819
1761341796432447000,8.649447021484375,-0.0024366993457078934,-0.003613648936152458,0.0008304575458168983
1761341796442514000,8.659513916015625,-0.0020476114004850388,0.0005278326570987701,-0.0018071369268000126
1761341796452580000,8.669580078125,-0.00030886055901646614,-0.001173139549791813,0.0035592331551015377
1761341796462646000,8.67964599609375,-0.0015195333398878574,0.0009664436802268028,-0.0008008945733308792
1761341796472712000,8.6897119140625,-0.001485210843384266,-0.00218984205275774,0.0007361322641372681
1761341796482779100,8.699779052734375,0.00022773444652557373,0.002993202768266201,-0.0009400611743330956
1761341796492845000,8.709844970703125,-0.0013553262688219547,0.04041816666722298,0.016670681536197662
1761341796502911000,8.719910888671874,0.001118483953177929,-0.012317483313381672,-0.006275114603340626
1761341796512977200,8.72997705078125,0.0002759932540357113,-0.007250301074236631,-0.0024481024593114853
1761341796523044000,8.740044189453124,0.0009814645163714886,-0.005986098665744066,-0.0021173381246626377
1761341796533110000,8.750110107421875,-0.00028200820088386536,-0.0031101079657673836,-0.0009314138442277908
1761341796543176000,8.760176025390624,0.001222411636263132,-0.002079465426504612,0.0005498360842466354
