time,seconds_elapsed,z,y,x
1761391612155922700,0.075922607421875,-0.05338555322885513,-0.5100083543635905,0.10231421838039531
1761391612165988600,0.085988525390625,0.17741700656712053,-0.3924097105517983,0.3194144708372652
1761391612176054800,0.0960546875,0.500340216177702,-0.2218599594056606,0.5400137991899624
1761391612186120400,0.106120361328125,0.7465782455146313,-0.113640407705307,0.7652448059312998
1761391612196186600,0.1161865234375,0.8950310234040021,-0.0927754604615271,1.0103289890579878
1761391612206253600,0.126253662109375,0.8817956942558288,-0.16241992844343184,1.1649218040723353
1761391612216319500,0.136319580078125,0.754946845409274,-0.26640228096544744,1.2884266762532293
1761391612226385700,0.1463857421875,0.5947305644899606,-0.43346462838724253,1.3512570803061126
1761391612236451600,0.15645166015625,0.47001405149698255,-0.623870734256506,1.370169578307867
1761391612246517800,0.166517822265625,0.34766485215723514,-0.7646230207711457,1.2533702681802212
1761391612256583700,0.176583740234375,0.19319792854487894,-0.8195511272668838,1.0541560019552707
1761391612266650600,0.186650634765625,0.05621580821871757,-0.8227345796085893,0.8640846809983252
1761391612276716800,0.196716796875,-0.16124737753272056,-0.8114103447787463,0.795716808823496
1761391612286782700,0.20678271484375,-0.3385767058163881,-0.7736930469334125,0.7811131139315665
1761391612296848600,0.2168486328125,-0.4479208776324987,-0.7897406570233404,0.8363651186194271
1761391612306914600,0.22691455078125,-0.5207768550068139,-0.8215222812093794,0.9123850399173795
1761391612316980500,0.23698046875,-0.5398182400852441,-0.9119653532005846,1.034755062849447
1761391612327047700,0.247047607421875,-0.6090004973828792,-1.044626395457238,1.1675877353459596
1761391612337113600,0.257113525390625,-0.742973499020934,-1.1191377388231456,1.2423081914179026
1761391612347179800,0.2671796875,-0.9271943403840065,-1.1677004019401966,1.2632611092060804
1761391612357245700,0.27724560546875,-1.0372598122119903,-1.2411604826875031,1.2347229969859121
1761391612367311600,0.2873115234375,-1.1487824971109628,-1.3409928759232164,1.176624662956223
1761391612377377500,0.29737744140625,-1.310811964932084,-1.3811704264022409,1.0368095842264593
1761391612387444700,0.30744482421875,-1.5281331118643282,-1.3109785536706446,0.7495484204318374
1761391612397510700,0.3175107421875,-1.7418021660298109,-1.1841510398730635,0.4453907746329903
1761391612407576600,0.32757666015625,-2.0130787750333545,-1.1397416970431804,0.21596870940998195
1761391612417642200,0.337642333984375,-2.083785465419292,-1.1093648250885306,0.12924480407238007
1761391612427708200,0.347708251953125,-1.8953829544574021,-1.030182421171665,0.07462072202451527
1761391612437774000,0.357774169921875,-1.494576294699311,-0.9354957202613353,0.06736611125376075
1761391612447841300,0.36784130859375,-0.9842916076123713,-0.8927601558625697,0.19731825987789778
1761391612457907200,0.3779072265625,-0.5172960271537304,-0.9021621904581785,0.3895498641412705
1761391612467973000,0.38797314453125,-0.23030513166785238,-0.9220536164946853,0.5292439103072509
1761391612478039000,0.3980390625,-0.07623159128725528,-0.9287352862156927,0.6154416363462806
1761391612488105000,0.40810498046875,-0.03426291960775852,-0.8936468755692243,0.5727067295346409
1761391612498171100,0.418171142578125,0.01601122360229492,-0.8082457432679832,0.3939711146496236
1761391612508238000,0.428238037109375,0.19296587335467338,-0.7116119999431073,0.20831808505896476
1761391612518304000,0.438303955078125,0.43961949775516984,-0.6385033629819751,0.07330025054309516
1761391612528370200,0.4483701171875,0.6641033759236336,-0.6106117319718003,-0.010694266363233328
1761391612538436000,0.45843603515625,0.7887409784615039,-0.6190889068074524,0.07315499685350806
1761391612548502300,0.468502197265625,0.7315162854611873,-0.779259156627953,0.33997985061258074
1761391612558568200,0.478568115234375,0.6140723938196897,-1.0342881029248236,0.6072276424914598
1761391612568635100,0.48863525390625,0.5190244583815335,-1.0685511686630547,0.5779537633426487
1761391612578701000,0.498701171875,0.4049176022082567,-0.9280519801266491,0.20024989288300274
1761391612588767000,0.50876708984375,0.09078443277478218,-0.7900954618103802,-0.2585840084299445
1761391612598833200,0.518833251953125,-0.40292029091119763,-0.5638404823161661,-0.5053472306847572
1761391612608899000,0.528899169921875,-1.0554904654294253,-0.24980156703740358,-0.6089456253904849
1761391612618965200,0.53896533203125,-1.6534037516087292,0.031980069367587564,-0.5729628962527961
1761391612629032200,0.5490322265625,-1.9728601618915795,0.212585496712476,-0.2924056870762259
1761391612639098000,0.55909814453125,-1.9392454770594834,0.26187201712466773,0.16488668388314545
1761391612649164300,0.569164306640625,-1.6488345439970493,0.23861389113403855,0.593330561498925
1761391612659230200,0.579230224609375,-1.2902449777215719,0.20516674488857387,0.8614159001804887
1761391612669296000,0.589296142578125,-0.9581120412170886,0.21123094029836356,0.9467924094971268
1761391612679362000,0.599362060546875,-0.7197638883471489,0.11043094413951039,1.0401808872904628
1761391612689429000,0.609428955078125,-0.6028793841540813,0.05831862571686506,0.9808432937894016
1761391612699495200,0.6194951171875,-0.6053501581817865,0.12487009611949323,0.7696079695768654
1761391612709561000,0.62956103515625,-0.6745593034863472,0.2113204452127218,0.5238309088151901
1761391612719627300,0.639627197265625,-0.9068313513129949,0.2565913733080029,0.27119389915615316
1761391612729693200,0.649693115234375,-1.234031507590413,0.297098301871866,0.030889936043322085
1761391612739759000,0.659759033203125,-1.3803537031918762,0.3332695393189788,-0.11663425575904547
1761391612749826300,0.669826416015625,-1.220150281754136,0.39588717740401624,-0.2395463496785611
1761391612759892200,0.679892333984375,-0.7318249130189418,0.4238229398168623,-0.18555742372907696
1761391612769958100,0.689958251953125,-0.1382569625675678,0.3716261579811573,-0.09031301587074994
1761391612780024000,0.700024169921875,0.2649123346686363,0.24632044692337512,-0.08573434631098062
1761391612790090000,0.710090087890625,0.2509755792528391,-0.05956891803890466,-0.09158508163318037
1761391612800157200,0.7201572265625,-0.08330021449923515,-0.48021980369091033,-0.008917137155495584
1761391612810223000,0.73022314453125,-0.6490571979612112,-0.6823812292836606,0.12634641574975103
1761391612820289000,0.7402890625,-1.014156584522128,-0.5339283052638173,0.24176294801579787
1761391612830355200,0.750355224609375,-1.000141503173113,-0.23123934377804398,0.20882535872766747
1761391612840421000,0.760421142578125,-0.7936340112000704,0.02810658893510699,0.15488602580726146
1761391612850487300,0.7704873046875,-0.45225978361964225,0.09976312739178538,0.15445249322820453
1761391612860554200,0.78055419921875,-0.11443068130016326,0.10132102435827255,0.12136639884747565
1761391612870620000,0.790619873046875,0.1678168190509081,0.10243117755725979,-0.033451114601106384
1761391612880686000,0.80068603515625,0.5494423929989337,0.09159998694136738,-0.3159418262906372
1761391612890752000,0.810751953125,1.0147843610316514,-0.014608078806102275,-0.5276400553071872
1761391612900818200,0.820818115234375,1.2978028457552193,-0.307042480520159,-0.5520623297063634
1761391612910884000,0.830884033203125,1.2191402279287575,-0.5488160777941345,-0.43242359490171073
1761391612920951000,0.840950927734375,0.8844242891937494,-0.49483781936913723,-0.4004644952569157
1761391612931017200,0.851017333984375,0.7013193001180886,-0.2558645203381777,-0.5029899269688874
1761391612941083100,0.861083251953125,0.7761667435705661,-0.007172083586454391,-0.6356793916024267
1761391612951149300,0.8711494140625,0.8651414965748786,0.11350012245178222,-0.6747706081494689
1761391612961215000,0.881215087890625,0.8602659994930029,0.16834785718768835,-0.6211160287208854
1761391612971281200,0.89128125,0.8977852905482053,0.12365502124130726,-0.5703477087857202
1761391612981348000,0.90134814453125,0.9723492408841847,-0.015436930845677852,-0.6033034547850489
1761391612991414000,0.9114140625,1.1175357104539871,-0.13581336880773306,-0.6730109050005674
1761391613001480200,0.921480224609375,1.3685130432724952,-0.3078828768670559,-0.8153730378646403
1761391613011546000,0.931546142578125,1.5289607948601245,-0.5193015217572451,-0.93100162371248
1761391613021612300,0.9416123046875,1.4708897141635418,-0.5899775247439741,-1.0850020257916302
1761391613031678200,0.95167822265625,1.1916980942517519,-0.4893132107287645,-1.214532003480941
1761391613041745200,0.9617451171875,0.6214508136332034,-0.4754930674299597,-1.2778798555366695
1761391613051811300,0.971811279296875,0.20934125409424303,-0.6651841568976641,-1.2258493701785802
1761391613061877000,0.981876953125,0.06132745214402675,-0.8745002765506505,-1.0673417928732931
1761391613071943200,0.991943115234375,-0.10664134259819984,-0.9132081928685307,-0.9627941346187144
1761391613082009000,1.002009033203125,-0.41480069831907745,-0.889783185878396,-0.7851045947205275
1761391613092075000,1.012074951171875,-0.7114613394260406,-0.9073208883956074,-0.7293028471954166
1761391613102142200,1.02214208984375,-0.9352022902727126,-0.9203054576531052,-0.6551702740140258
1761391613112208100,1.0322080078125,-0.9222112912744284,-0.9465952064245938,-0.611638517736271
1761391613122274000,1.042274169921875,-0.18935761972963808,-1.0809262277200817,-0.589408419619128
1761391613132340200,1.05234033203125,0.7914397160261869,-1.2755810770750045,-0.20224588900581
1761391613142406100,1.06240625,0.6488461855590343,-1.033395830260217,0.050391047587990755
1761391613152472000,1.07247216796875,0.2309451831370592,-0.7821759208574891,0.041231443446129556
1761391613162539300,1.082539306640625,-0.3654764031797647,-0.5749687561824918,0.31385910173244774
1761391613172605000,1.09260498046875,-0.5697983678072691,-0.5721417160630226,0.6173138599589467
1761391613182671000,1.102671142578125,-0.7092734739929437,-0.5165922627985478,1.03902243797034
1761391613192737000,1.112737060546875,-0.9431021036118269,-0.5242945077389478,1.4973112726211546
1761391613202803200,1.12280322265625,-0.8736614876389504,-0.7014741984188556,1.794327887558937
1761391613212870100,1.1328701171875,-0.7055880634784698,-0.7926096365883946,1.9218102120034395
1761391613222936000,1.14293603515625,-0.21166122147440908,-0.6548199992716311,1.703955981107801
1761391613233002200,1.153002197265625,0.6791933930277824,-0.41318420303314923,1.1188261886559425
1761391613243068200,1.163068115234375,1.3696452621728181,-0.23185499145835636,0.5761014134742319
1761391613253134000,1.173134033203125,1.0072072037756443,-0.2620361947104335,0.3135658909395337
1761391613263200000,1.183199951171875,-0.055112815412878984,-0.39627749189585443,-0.1969207484602928
1761391613273267000,1.193266845703125,-0.8408014205664396,-0.37404695538729427,-0.7043861403428018
1761391613283333000,1.2033330078125,-1.5099398680478333,-0.2028115600645542,-1.0394523538202047
1761391613293399000,1.21339892578125,-2.048477420672774,-0.014917583146691322,-1.0277801823355257
1761391613303465200,1.22346533203125,-2.2996575825870034,0.19603549005836246,-0.8803306632045655
1761391613313531100,1.23353125,-2.0841998914390802,0.47054888902604575,-0.41464693252947177
1761391613323597300,1.243597412109375,-1.4432938512295483,0.7007654656276107,0.21539595102332532
1761391613333664300,1.253664306640625,-0.5093102890968323,0.9120292122170328,0.8480215080130845
1761391613343730200,1.263730224609375,0.432013698926568,1.0499635187014937,1.4856160125218332
1761391613353796400,1.27379638671875,1.1574047795057296,1.0522145124986768,2.0455174018234015
1761391613363862000,1.283862060546875,1.5968828229635954,1.008423593828082,2.405833353500068
1761391613373928200,1.29392822265625,1.6623066045105457,0.9615028526991605,2.40402016659826
1761391613383994000,1.303994140625,1.4422785367071627,1.0152630844593047,2.034544172388315
1761391613394061000,1.31406103515625,1.133528229355812,1.0886734808459877,1.4736271763034163
1761391613404127200,1.324127197265625,0.7888572983175516,1.1117314080893992,0.9038544543940573
1761391613414194000,1.33419384765625,0.5011036017656326,1.0076605005010961,0.4183498421680182
1761391613424259800,1.344259765625,0.40751930913925166,0.8197346671402453,0.14135865490995347
1761391613434326000,1.354325927734375,0.4672498474806547,0.6158075470492244,0.04802563363090157
1761391613444392000,1.364391845703125,0.5708949308723211,0.4443555863663554,0.07649258031100034
1761391613454459000,1.374458984375,0.7242115154057741,0.3766612295389175,0.15293215179312974
1761391613464525000,1.384525146484375,0.888130742496252,0.38920185442119837,0.23692531699258831
1761391613474590700,1.3945908203125,0.9751894327461719,0.41545010213851924,0.37763803868182
1761391613484657000,1.404656982421875,1.0488397753685712,0.4473071296483278,0.5367168765364214
1761391613494722800,1.414722900390625,1.2336767028033733,0.5232660414740443,0.6269831671886146
1761391613504789000,1.4247890625,1.5255004252731799,0.5743669908970594,0.790214265884459
1761391613514856000,1.43485595703125,1.3977894066393375,0.622898966614902,0.9682216395601629
1761391613524921900,1.444921875,1.047668978023529,0.5942179387927055,1.0773395283397287
1761391613534988000,1.454988037109375,0.7928454911708831,0.4197127280190587,1.1998362463913856
1761391613545054000,1.465053955078125,0.6927537163466214,0.3255070886239409,1.2682413818366824
1761391613555119900,1.475119873046875,0.09149638043642043,0.3952557476326823,1.230885318519175
1761391613565185800,1.485185791015625,-0.910894947490096,0.42815263958424327,0.9977520507533103
1761391613575252700,1.495252685546875,-1.1298439878851174,0.44592327407449484,1.102082120734453
1761391613585319000,1.50531884765625,-0.9841256033957004,0.466999379850924,1.2706116180993616
1761391613595384800,1.515384765625,-0.7071949141532182,0.29960020169019697,1.4662966872848568
1761391613605450800,1.52545068359375,-0.3649643620043993,0.007910919255018235,1.6493194049045443
1761391613615517000,1.535516845703125,0.027072715842723846,-0.23742694637179373,1.6707510461203754
1761391613625582800,1.545582763671875,0.4648801957398653,-0.44132747071683404,1.4990589930713176
1761391613635649800,1.55564990234375,0.7782587474137544,-0.6313944077596068,1.324337947589904
1761391613645716000,1.565716064453125,0.982617536920309,-0.8679840265244245,1.2216082254774867
1761391613655782000,1.575781982421875,0.9455874906867742,-1.0479688377529381,1.1430508215911686
1761391613665847800,1.585847900390625,0.44571489202082154,-1.1105781464010476,1.0007776091195641
1761391613675913700,1.595913818359375,-0.27509704407453534,-0.9499861640371382,0.7292102735411375
1761391613685980000,1.60597998046875,-0.7779939589977264,-0.7134146654509007,0.39857663568370044
1761391613696046800,1.616046875,-1.0474000979542732,-0.47644130806550383,0.29265584417870266
1761391613706112800,1.62611279296875,-1.2193734521627426,-0.4336743256151676,0.2634626107843593
1761391613716179000,1.636178955078125,-1.5390817913800476,-0.5700514657855034,0.3959553472694009
1761391613726244900,1.646244873046875,-1.8837497998088597,-0.5015079447828233,0.47784861758016045
1761391613736311000,1.65631103515625,-1.9600258147597311,-0.33427053305506704,0.5663147269425913
1761391613746377000,1.666376953125,-1.805116992598772,-0.2802083957388997,0.8390000702328979
1761391613756444000,1.67644384765625,-1.5111474902719257,-0.5018064893379807,1.258473144277185
1761391613766509800,1.686509765625,-1.2005477556616067,-0.7500402225367725,1.5037874828979372
1761391613776575700,1.69657568359375,-0.9841489842712878,-0.81094652665928,1.4602550690330565
1761391613786642000,1.706641845703125,-1.0864286245286463,-0.7653435901306569,1.1362078238286077
1761391613796707800,1.716707763671875,-1.3524474591344595,-0.6281967807620763,0.6615671354442835
1761391613806774000,1.72677392578125,-1.6927338914781809,-0.4989062378518283,0.2840289038751274
1761391613816841000,1.736841064453125,-2.063185744982958,-0.24851824922859667,-0.0319087576970458
1761391613826907000,1.746906982421875,-2.351481293326616,0.04630202470868826,-0.1931363345507532
1761391613836973000,1.75697314453125,-2.375212297526002,0.22707725566253065,-0.0655760494992137
1761391613847039000,1.7670390625,-2.0966642362147567,0.28967691969946024,0.35846835104860364
1761391613857105000,1.77710498046875,-1.5567559797585009,0.3475711825244128,0.9023049599297344
1761391613867170800,1.7871708984375,-0.9215484434515238,0.4898537473462522,1.3950734256789088
1761391613877237800,1.79723779296875,-0.40517596088349817,0.7204368191726506,1.8209946529492735
1761391613887304000,1.807303955078125,-0.04948211604952812,0.8611883750349283,2.173408745460212
1761391613897369900,1.817369873046875,0.04458382261395454,0.8846218575924635,2.407035568896681
1761391613907435800,1.827435791015625,-0.0286082548469305,0.8828599624864757,2.4244503756865856
1761391613917502000,1.837501953125,-0.1964583916455507,0.971513374581933,2.1542229834750293
1761391613927568000,1.84756787109375,-0.5929892737805843,1.1018401286721229,1.6945196058511733
1761391613937635000,1.857635009765625,-1.0151537788659333,1.2216836288012562,1.227819208946824
1761391613947701000,1.867700927734375,-1.5043991850554943,1.3198176936864852,0.8505016343910247
1761391613957766700,1.8777666015625,-1.449860954660177,1.2307779126219451,0.8065268105208874
1761391613967832800,1.887832763671875,-1.0524275707274675,1.0125675617650152,0.9449516770012676
1761391613977898800,1.897898681640625,-0.5659907922178506,0.8196469888567924,1.071888058000803
1761391613987965000,1.90796484375,-0.09878419935703277,0.6182356509789824,1.1173355847720057
1761391613998032000,1.918031982421875,0.33401743507683274,0.39694589267671104,1.006932624617964
1761391614008097800,1.928097900390625,0.5122743995994329,0.26949177141338587,0.8300774897173047
1761391614018164000,1.9381640625,0.618835078176856,0.19210852587297558,0.800396198811382
1761391614028230000,1.94822998046875,0.5407821166813374,0.2496425770834088,0.8240330219212919
1761391614038296000,1.958296142578125,0.3615741350442171,0.37194998310804367,0.8728062590491026
1761391614048361700,1.96836181640625,0.23663199660181997,0.49178953771442174,0.9543147678259759
1761391614058428700,1.9784287109375,0.24299393284916876,0.6284644917875528,0.9845415637854487
1761391614068494800,1.988494873046875,0.28440730873346326,0.6969915000468492,0.9449201858844608
1761391614078560800,1.998560791015625,0.2576537418425083,0.716136053238809,0.9243041719004511
1761391614088627000,2.008626953125,0.16433306858837604,0.7215683074206113,0.9561889642000198
1761391614098692900,2.01869287109375,0.07528408130407332,0.7027762209281325,0.9326865080595016
1761391614108759000,2.028759033203125,0.18951076446473597,0.7736293340474367,0.9360875486746429
1761391614118826000,2.038825927734375,0.40476153486371036,0.8123290670588612,0.8855958171911538
1761391614128892000,2.048891845703125,0.660672816953063,0.7487728329494595,0.9150349699042737
1761391614138958000,2.0589580078125,0.8245897059559821,0.5967810672789812,1.0402559252880512
1761391614149023700,2.069023681640625,0.7108966912806034,0.447827061869204,1.255947279061377
1761391614159090000,2.07908984375,0.36719606657922266,0.3880167362898588,1.3691162698626518
1761391614169155800,2.08915576171875,0.06578910772800445,0.49711628569513555,1.3289835814386606
1761391614179222800,2.099222900390625,-0.12358487861454485,0.6734007811009883,1.1322180235400796
1761391614189289000,2.1092890625,-0.15532967792153357,0.828536397755146,0.9032029316827654
1761391614199355000,2.11935498046875,-0.1549713660031557,1.0283291945204138,0.765602168001607
1761391614209420800,2.1294208984375,-0.13396014215648175,1.1615142606511712,0.7602867451325058
1761391614219487000,2.139487060546875,0.1522001477241516,1.1690063699722288,0.7767373830653727
1761391614229554000,2.149553955078125,0.5284919594287872,0.9587807342588901,0.7458669554401188
1761391614239620000,2.1596201171875,0.8932195900678634,0.5507148971527814,0.733666668428108
1761391614249685800,2.169685791015625,0.8733166197240352,0.09108341572135686,0.6689189595118165
1761391614259751700,2.179751708984375,0.9386568146407603,-0.2524853992938995,0.47452696234416214
1761391614269817900,2.18981787109375,0.7933715608716011,-0.5032052502200007,0.43342349265925584
1761391614279883800,2.1998837890625,0.3866489550679922,-0.35365766283124683,0.2758347472319379
1761391614289950700,2.20995068359375,0.1039981346130371,-0.13456658361703155,0.17204722316227852
1761391614300017000,2.220016845703125,-0.2497369773685932,0.04701426463127136,0.32143403049875047
1761391614310082800,2.230082763671875,-0.5064397020965814,0.3827992939025163,0.5298397938411683
1761391614320149000,2.24014892578125,-0.6875041252553462,0.49825844146758314,0.7826663347229361
1761391614330215000,2.25021484375,-0.6129951199769973,0.4790674187853932,1.1474340051114558
1761391614340280800,2.26028076171875,-0.5001116681188345,0.6373980320885777,1.4619013749353587
1761391614350347800,2.27034765625,-0.5771732804894447,0.6712707833349705,1.767197596310079
1761391614360413700,2.28041357421875,-0.8311047869384288,0.5399526801198721,2.01946584572196
1761391614370479900,2.29047998046875,-0.9897317528396844,0.4317477414667606,2.1157314863868057
1761391614380545800,2.3005458984375,-1.3238660922944545,0.5343634818106889,1.9556293333664536
1761391614390612000,2.310612060546875,-1.799564619168639,0.7729284923017025,1.6105496753968298
1761391614400678000,2.320677978515625,-2.2342934222728013,1.0921814889669417,1.3099305059224366
1761391614410744800,2.330744873046875,-2.6188497889757154,1.390658531846106,1.1187949898000806
1761391614420810800,2.340810791015625,-2.5170968029409644,1.6368115132480858,1.1173556046467275
1761391614430876700,2.350876708984375,-1.9067460599929094,1.816650194004178,1.2353050346575676
1761391614440942800,2.36094287109375,-0.8942395807653665,1.814074498297274,1.507749080005288
1761391614451008800,2.3710087890625,0.32469664902389045,1.6258271778970956,1.8858271906048059
1761391614461075000,2.381074951171875,1.4683897140413522,1.3582774804621933,2.2868524615496395
1761391614471142000,2.391141845703125,2.322982928594947,1.0297735481098294,2.733785789449513
1761391614481207800,2.401207763671875,2.842282112264633,0.6475514695733785,3.25654271235764
1761391614491274000,2.41127392578125,3.0778333278924226,0.4508388109058141,3.667259940755367
1761391614501339600,2.421339599609375,2.8216356300771235,0.6135200206339358,3.695090196967125
1761391614511405800,2.43140576171875,2.0628969911694526,0.9481228543832898,3.269864843006432
1761391614521471700,2.4414716796875,1.1298398962318896,1.267528703522682,2.6120018227770925
1761391614531538700,2.45153857421875,0.10507248584628105,1.5267732216879724,1.994063255048543
1761391614541604900,2.46160498046875,-0.9786433725923299,1.6241250501543283,1.5653427524484693
1761391614551670800,2.4716708984375,-1.8164245685547589,1.5342296751737594,1.3161536182209848
1761391614561736700,2.48173681640625,-2.2474691301882266,1.3591802745208144,1.2745992264308035
1761391614571803000,2.491802978515625,-2.260731931865215,1.1690616072908042,1.4957386164769528
1761391614581868800,2.501868896484375,-1.96959560713768,1.0557640216737985,1.931333827152103
1761391614591936000,2.51193603515625,-1.5587018531292676,1.0967886905014514,2.292852578747272
1761391614602002000,2.522001953125,-1.035755252867937,1.288406071856618,2.5120298749402163
1761391614612067600,2.532067626953125,-0.5398983195841313,1.4478680272772908,2.655788357533514
1761391614622133800,2.5421337890625,-0.16597908222973345,1.5020263184443114,2.8028996576860545
1761391614632199700,2.55219970703125,-0.043566170004010196,1.4492197341471909,2.8971245863035318
1761391614642265900,2.562265869140625,0.05818681603074073,1.4028390912443398,2.9121587815672156
1761391614652332800,2.572332763671875,0.07256137834191322,1.3968983030185103,2.7596836162939664
1761391614662398700,2.582398681640625,-0.016761165186762808,1.339147248056531,2.4890339070171117
1761391614672465000,2.59246484375,-0.0015168343037366865,1.2304939811140299,2.189806776423007
1761391614682530800,2.60253076171875,0.08926876751482486,1.0884355804368853,1.9174194296985863
1761391614692596700,2.6125966796875,0.2653630010455847,0.9347656524211168,1.6792603696599602
1761391614702662700,2.62266259765625,0.4313952747672796,0.8005299081936478,1.5070273416019975
1761391614712729600,2.6327294921875,0.46236733613610265,0.7023492276877165,1.3649899837128818
1761391614722795800,2.642795654296875,0.260794962477684,0.6351306716784835,1.2027814329978077
1761391614732861700,2.65286181640625,0.07099427515566349,0.5728939957350492,0.9842856893282383
1761391614742928000,2.662927978515625,-0.07624971146583556,0.49150399877130985,0.7655091559559106
1761391614752993800,2.672993896484375,-0.2527776602387428,0.4210308248803019,0.5882899735158309
1761391614763060000,2.68306005859375,-0.4342921652525663,0.33821576354950666,0.4768412306359037
1761391614773127000,2.693126953125,-0.6661573858439922,0.3407064113214612,0.3914678996570408
1761391614783192800,2.70319287109375,-0.8949813390433787,0.3783934601590037,0.34703714871294794
1761391614793259000,2.713259033203125,-0.8951391599535942,0.39131840818375346,0.30507419438818467
1761391614803324700,2.72332470703125,-0.7045593049526214,0.40726211950778957,0.2435657596540637
1761391614813390800,2.733390869140625,-0.4567956734836101,0.36074528300464154,0.22107072699042035
1761391614823456800,2.743456787109375,-0.213477915507555,0.26561200737059115,0.1863859104424715
1761391614833523700,2.753523681640625,-0.19114450314641,0.10369126062095164,0.16363164232075214
1761391614843590000,2.76358984375,-0.3248193986207247,-0.05938040972948074,0.10071074697282165
1761391614853655800,2.77365576171875,-0.34375030906200404,-0.13457739727199078,-0.02485560604883358
1761391614863721700,2.7837216796875,-0.2744277665108442,-0.10205196898132562,-0.09912040904145687
1761391614873788000,2.793787841796875,-0.1815805559873581,0.00035918870121240615,-0.11085490517262368
1761391614883853600,2.803853515625,-0.1875485244810581,0.06217647018879652,-0.016831015552580354
1761391614893921000,2.813921142578125,-0.10864566815793514,-0.05463730685561895,0.25874953772258014
1761391614903986700,2.823986572265625,0.04590075043141842,-0.5757485083833337,0.7097158109329641
1761391614914052600,2.834052490234375,0.24817338131368158,-1.0928642105340958,0.9065762075081467
1761391614924118800,2.844118896484375,0.6458160240828991,-0.6225400701746344,0.8125713513821363
1761391614934184700,2.854184814453125,0.7004553767651319,-0.14009879104197023,0.4584819460701197
1761391614944251000,2.8642509765625,0.5780114848792552,-0.6569821457415819,0.04064589864313602
1761391614954317800,2.87431787109375,-0.034627661266922946,-0.5455629212170839,-0.21421149047911167
1761391614964383700,2.8843837890625,-0.7452408594310284,-0.24580372957289218,-0.579486050943844
1761391614974450000,2.894449951171875,-1.2410557071387767,-0.07193681670278311,-0.6595711393214762
1761391614984515800,2.904515869140625,-1.4410288289070128,0.03350011854171753,-0.441383950144425
1761391614994581800,2.914581787109375,-1.3210481122642754,0.17389730800837278,-0.1611039139414206
1761391615004647700,2.924647705078125,-0.709636462086439,0.3344651788443327,0.1394192478125915
1761391615014714600,2.934714599609375,0.30433190638720986,0.555600331106782,0.5330654413567856
1761391615024780800,2.94478076171875,1.1063771875798702,0.7562722487941383,0.8098366657212376
1761391615034846700,2.9548466796875,1.0779665011316537,0.7487468217253684,0.7608424062538891
1761391615044913000,2.964912841796875,0.5797036757498979,0.3938245457857847,0.5644377906221896
1761391615054978800,2.974978759765625,0.6554717411786317,0.09744009127169848,0.587948649264872
1761391615065045800,2.985045654296875,1.1320564032375813,-0.006459259141981601,0.631100904705748
1761391615075112000,2.99511181640625,1.5582634617120026,-0.22442630276232955,0.4049089074451476
1761391615085177900,3.005177734375,1.6652870816260574,-0.32482465931773186,0.21663842536509037
1761391615095243800,3.015243896484375,1.521608094009757,-0.26280162612497804,0.10658310960493982
1761391615105309700,3.025309814453125,1.2648504242241383,-0.03029547728151083,0.06888217837251723
1761391615115375900,3.0353759765625,1.0646335568279028,0.33517537294030186,0.03646970893703401
1761391615125442800,3.04544287109375,0.9908651407837867,0.622613719932735,-0.0029567309137433764
1761391615135508700,3.0555087890625,1.2151964587390423,0.9416916522920131,0.18196254104226828
1761391615145575000,3.065574951171875,1.4306295999675989,1.1414984775826333,0.591269135457091
1761391615155640800,3.075640869140625,1.3049515484660863,1.137250757010281,1.0331184746235609
1761391615165706800,3.085706787109375,0.5932014552265406,1.0538044120386243,1.1989199352640658
1761391615175773000,3.09577294921875,0.06483341443836689,1.1416121670901775,0.986353216317296
1761391615185839900,3.10583984375,-0.07450783623456954,1.3153656827136873,0.8509642104014754
1761391615195905800,3.11590576171875,0.11619184575378894,1.1202519836753606,0.5495073845265432
1761391615205971700,3.1259716796875,0.847779442885518,0.7204436873048543,0.30283724738266316
1761391615216037600,3.13603759765625,1.8222072436094283,0.18511574437618256,0.28709212737064804
1761391615226103800,3.146103759765625,2.677723418226838,0.04453998347222805,0.27830844386909154
1761391615236169700,3.156169677734375,3.1033091299325224,0.2447454526916146,0.0013066986843943596
1761391615246237000,3.16623681640625,2.220503966373205,-0.21987521532922982,0.2503306689454242
1761391615256302800,3.176302734375,1.5733587395131587,-0.6354295084945857,0.5927145850250497
1761391615266368800,3.18636865234375,0.9387047454357147,-0.823393628039211,0.66305138265267
1761391615276435000,3.19643505859375,0.5269482371181249,-0.9473376953549683,0.666474781230092
1761391615286500600,3.20650048828125,0.3709194710165262,-0.7778906447537243,0.7197870500270277
1761391615296566800,3.21656689453125,0.17344284223914144,-0.5990088263310491,0.656266837079078
1761391615306633700,3.2266337890625,-0.3524550090432167,-0.7462802854813635,0.35717699606381353
1761391615316699600,3.23669970703125,-0.8846341325521468,-0.9356294296436011,0.2802497871952131
1761391615326765800,3.246765869140625,-1.0605383964687585,-1.1052177884116767,0.2650318328624591
1761391615336831700,3.256831787109375,-1.1768658513009547,-1.1689815277919173,0.26598065801989285
1761391615346898000,3.26689794921875,-1.1924971356749534,-1.061006087045744,0.2605527512196451
1761391615356963800,3.2769638671875,-1.8356220209777354,-1.0218271191500126,0.14139851199630646
1761391615367030800,3.28703076171875,-2.5987147634416816,-0.8842492979530244,-0.022472784299217164
1761391615377097000,3.297096923828125,-3.1209225280344484,-0.6620710663784295,0.10329217830076813
1761391615387162600,3.30716259765625,-3.3969968927085397,-0.3947280704967677,0.24571458998471496
1761391615397228800,3.317228759765625,-3.2452269530951976,-0.25534210389927026,0.17691523105744272
1761391615407294700,3.327294677734375,-2.6127976493299006,-0.4495885185837745,0.07161171293426305
1761391615417361000,3.33736083984375,-1.849718350869417,-0.8081221899535507,0.04921696230731904
1761391615427428000,3.347427978515625,-1.3066758880406617,-1.1297203615054487,-0.0771046112621203
1761391615437494000,3.357493896484375,-1.0170125584751366,-1.3319409699395297,-0.2957437454577535
1761391615447560200,3.367560302734375,-0.8800584951996803,-1.477239375451207,-0.4036172601994127
1761391615457626000,3.377626220703125,-1.0333633892953396,-1.7114837462641297,-0.4654244952170178
1761391615467692000,3.387692138671875,-1.5297241804480552,-1.928516870035231,-0.5220634242186323
1761391615477758200,3.39775830078125,-2.1797838334500788,-1.9917378808408974,-0.6377559056155383
1761391615487825200,3.4078251953125,-2.966062221190333,-1.800693038676679,-0.7904504127278924
1761391615497891000,3.41789111328125,-3.5207647266745563,-1.4847691864341497,-1.0273951285406946
1761391615507957200,3.427957275390625,-3.657409577870369,-1.1874666672270744,-1.1959015372909605
1761391615518023000,3.43802294921875,-3.293919380071759,-1.1457936905585229,-0.9967956998765468
1761391615528089000,3.448089111328125,-2.5272815123468635,-1.2848273365870118,-0.6531926903307438
1761391615538155000,3.458155029296875,-1.3536848919749258,-1.3481062150597571,-0.3735368869733065
1761391615548222000,3.468221923828125,-0.15155015938282013,-1.3241162676632403,-0.064641800856404
1761391615558288100,3.4782880859375,0.6090834994912148,-1.6892460493624208,0.09769260472804307
1761391615568354000,3.48835400390625,0.6124672967106104,-1.9166567747630179,0.11862601409815252
1761391615578420200,3.498420166015625,-0.27657120828032494,-2.0312742108069357,0.17449257048778236
1761391615588486100,3.508486083984375,-1.7314105358749627,-2.053970172870159,0.10273067196048796
1761391615598552300,3.51855224609375,-2.9732307976454493,-1.6578202528767287,-0.25138390432540325
1761391615608619300,3.528619384765625,-3.4710926410108804,-0.9803322024621068,-0.7183564327020198
1761391615618685000,3.538684814453125,-3.306938436120748,-0.35121611489802596,-0.9868649652317166
1761391615628751000,3.548751220703125,-2.6969115182995793,0.22540566918849944,-0.9948856284715235
1761391615638817000,3.558817138671875,-1.779655803605914,0.6223210205964744,-0.7811698856201023
1761391615648883200,3.56888330078125,-0.6919505832701921,0.6964226141177118,-0.43186479197517036
1761391615658950100,3.5789501953125,0.3745627959549427,0.6859871448211371,-0.0146352590739727
1761391615669016000,3.58901611328125,1.3791244536578655,0.8185019104748964,0.26422267190404236
1761391615679082200,3.599082275390625,2.27195007597208,1.1376450170248746,0.42332361199259755
1761391615689148200,3.609148193359375,2.745551922827959,1.3106436226278542,0.6174393860347569
1761391615699214300,3.61921435546875,2.670349090066552,1.093408400413394,0.7977038909874856
1761391615709280000,3.629280029296875,2.46367267126739,0.9201505593523382,0.8115548678159713
1761391615719347200,3.63934716796875,2.1420219658106565,0.7095555058047175,0.8430556292340159
1761391615729413000,3.6494130859375,1.769810701417923,0.7721420180991292,0.7551037164714187
1761391615739479000,3.65947900390625,1.3162152852803468,1.2492173862844704,0.42461832797825333
1761391615749545200,3.669545166015625,0.783468591016531,1.5383467551037668,0.23437574210762976
1761391615759611100,3.679611083984375,0.2665992648422718,1.7039914908125995,0.18218502468653022
1761391615769677000,3.689677001953125,-0.17671441125571727,1.7084133989080785,0.1961895846415311
1761391615779744300,3.699744140625,-0.4178828822433948,1.7594424521386622,0.19961247176229951
1761391615789810200,3.70981005859375,-0.3964899656027555,1.8195897545874118,0.12747194918096064
1761391615799876000,3.7198759765625,-0.1945025814026594,1.8919059259966016,0.08485577337816357
1761391615809942000,3.72994189453125,0.07743979803323746,1.8520637449517845,-0.026756124174222348
1761391615820008000,3.740008056640625,0.5108294614881277,1.710822213615477,-0.10039419183693826
1761391615830074000,3.75007421875,0.9531003505349158,1.618672337706387,-0.106148225319013
1761391615840141000,3.76014111328125,1.3282178577631711,1.5309090063184498,-0.08372472352162003
1761391615850207000,3.77020703125,1.5900199514567852,1.3868825204387307,-0.11798289388902485
1761391615860273200,3.780273193359375,1.782472030070424,1.2478843841150402,-0.3027235944077372
1761391615870339000,3.790339111328125,1.954442461669445,1.1029749779209495,-0.5236653429899364
1761391615880405200,3.8004052734375,2.0089923825025555,0.7918059189900756,-0.5809805638179183
1761391615890471200,3.81047119140625,1.9763819062769412,0.7754141716375946,-0.8084414850357919
1761391615900538000,3.8205380859375,1.9633201801300049,0.5560977592349052,-1.012232776852697
1761391615910604300,3.830604248046875,1.8936931016743181,0.285925896602869,-1.0225145899575203
1761391615920670000,3.840669921875,1.8318150299102067,-0.021025544632971287,-0.966323477788642
1761391615930736000,3.850736083984375,1.7007599615454674,-0.267104291754961,-0.8123493791945278
1761391615940802000,3.860802001953125,1.6136171001434325,-0.26927111440002915,-0.7214530104778707
1761391615950868200,3.8708681640625,1.534726518779993,-0.14522344057932496,-0.6874526873290538
1761391615960935200,3.88093505859375,1.5100491736412047,-0.10801526129990816,-0.6474119149722158
1761391615971001000,3.8910009765625,1.5039718995541334,-0.23197174970582127,-0.5769992390967905
1761391615981067300,3.9010673828125,1.3815145636647939,-0.1983255006916821,-0.5277570692829787
1761391615991133200,3.91113330078125,0.9924754985898733,-0.10797405250668525,-0.4602379228919744
1761391616001199000,3.92119921875,0.41615211292803284,0.26100100644379853,-0.5063588919453322
1761391616011265000,3.93126513671875,-0.12357669530808925,0.38683117976710196,-0.4580331063240766
1761391616021332000,3.94133203125,-0.7060358072459697,0.2798484763853252,-0.20718246862515807
1761391616031398100,3.951398193359375,-1.2843793005585669,-0.012609890726208686,0.07303001876696943
1761391616041464000,3.961464111328125,-1.7058178294569253,-0.49996860638633367,0.18593714376166462
1761391616051530200,3.9715302734375,-1.914786743107438,-0.9136994835168123,0.1009736722253263
1761391616061596200,3.98159619140625,-1.8852981982946395,-1.1800934350453316,0.01237761634029448
1761391616071662000,3.991662109375,-1.6884189508885143,-1.3010694463357328,-0.05870528694689273
1761391616081729300,4.001729248046875,-1.4345055646181106,-1.2756906749293206,-0.12325630424730478
1761391616091795200,4.011795166015625,-1.2304746918916702,-1.1859202415026724,-0.21334062592871486
1761391616101861000,4.021861083984375,-1.1766495782017707,-1.0893177700988947,-0.2963707182496786
1761391616111927000,4.031927001953125,-1.265858139961958,-0.8465783965326845,-0.3839586200054735
1761391616121993000,4.041992919921875,-1.2831208249300718,-0.5825846380136906,-0.4435070067130029
1761391616132059100,4.05205908203125,-1.0923258658736943,-0.44129298392534255,-0.3698534857528284
1761391616142126000,4.0621259765625,-0.9917769949316978,-0.5687110109619796,-0.30005711514484135
1761391616152192000,4.07219189453125,-0.9683663087278604,-0.7964997758947312,-0.34688338292334225
1761391616162258200,4.082258056640625,-1.0526777460962533,-0.9679173959165811,-0.5874053727010264
1761391616172324000,4.092323974609375,-1.4191490055322646,-1.0805701077587901,-0.7816750586632639
1761391616182390300,4.102390380859375,-1.9356921684920787,-1.181690933369845,-0.8447136255741119
1761391616192456000,4.1124560546875,-2.2568840242654082,-1.0402008340999482,-0.9441083580449223
1761391616202523100,4.122523193359375,-2.523963181579113,-0.8574754919916391,-0.883846050914377
1761391616212589000,4.132589111328125,-2.65144156050086,-0.7497112828433513,-0.49437670466341077
1761391616222655000,4.142655029296875,-2.5760779842197894,-0.3566336099021137,-0.007567110786028206
1761391616232721200,4.15272119140625,-2.4381454313009976,0.08310644549280405,0.5307673204822465
1761391616242787000,4.162787109375,-2.341020689588785,0.5554059775784611,1.0185933248605579
1761391616252853200,4.172853271484375,-2.2754677287042138,1.0455535933047533,1.4190173419766128
1761391616262920200,4.182920166015625,-1.9454934315383434,1.3481222894117235,1.7120761591993272
1761391616272986000,4.192986083984375,-1.374502054554224,1.5149800541721283,1.7136749726980924
1761391616283052300,4.20305224609375,-0.7401800689101219,1.4688763285145163,1.7391230099484323
1761391616293118200,4.2131181640625,-0.1810878040343523,1.256959670974314,1.7346297901824115
1761391616303184100,4.22318408203125,0.21942717930078506,0.8107200244270265,1.639939728271216
1761391616313250000,4.23325,0.5033616098254918,0.26499387547224756,1.4679790874138474
1761391616323317000,4.24331689453125,0.6186041920304298,-0.30873014134615656,1.1931941780284046
1761391616333383200,4.253383056640625,0.6298077230900526,-0.8471013974934816,0.9177025816783309
1761391616343449000,4.263448974609375,0.7515940278500318,-0.9360526234917342,0.5437197045031935
1761391616353515300,4.273515380859375,0.8904144695192575,-0.7053034013181925,0.13069500288069247
1761391616363581200,4.283581298828125,0.8377332651674747,-0.36969460539668797,-0.10836951809767634
1761391616373647000,4.293647216796875,0.64637365796566,-0.05304609214141964,-0.11657470759153366
1761391616383714300,4.30371435546875,0.5071522342801094,0.29383827716261146,0.12133432320877909
1761391616393780200,4.3137802734375,0.433764926508069,0.6430028663583099,0.5987861965563148
1761391616403846100,4.32384619140625,0.4457517168998718,0.8356561666324734,1.009908279427886
1761391616413912000,4.333912109375,0.5290186136513948,0.9316796691045165,1.258509823025763
1761391616423977700,4.343977783203125,0.6858557735264301,0.9775228441298007,1.4078598420158028
1761391616434043600,4.354043701171875,0.9088888683646916,0.8878376047685742,1.4640607449263334
1761391616444110600,4.364110595703125,1.2072919692248105,0.729883131301403,1.3594826184682547
1761391616454176500,4.374176513671875,1.498748611947894,0.5681593684285878,1.162568445879221
1761391616464242400,4.384242431640625,1.6577631158620119,0.389389924339205,0.9571239800278096
1761391616474308600,4.39430859375,1.8396335947066544,0.1808576485402882,0.7548571943644434
1761391616484374500,4.40437451171875,2.0061130276739596,-0.014431699325889348,0.5754119699053466
1761391616494440400,4.4144404296875,2.039870920369029,-0.10787205343693494,0.39929146942216903
1761391616504507600,4.424507568359375,2.016581814718246,-0.2661468448996544,0.22802757865730672
1761391616514573600,4.434573486328125,1.9374527484238147,-0.5250817125938833,0.06624389315764419
1761391616524639500,4.444639404296875,1.8000170391112564,-0.6997086500510573,-0.0747548241324257
1761391616534705700,4.45470556640625,1.6503583925634622,-0.7759804272182286,-0.20975810953313484
1761391616544771300,4.464771240234375,1.4964245529145002,-0.8819596526458859,-0.32645240665003655
1761391616554837500,4.47483740234375,1.2575281185120344,-1.003372009526938,-0.4131617720056325
1761391616564904400,4.484904541015625,0.9272527925729751,-1.1376676672480999,-0.4676514140188694
1761391616574970400,4.494970458984375,0.5040922621876001,-1.1968182137444614,-0.4554513462025672
1761391616585036500,4.50503662109375,-0.1595335593521595,-1.2217007260665296,-0.3721863856798038
1761391616595102500,4.5151025390625,-0.8037123376220464,-1.1552435098186136,-0.20330317950639873
1761391616605168600,4.525168701171875,-1.1777116544753312,-0.992697909168899,-0.007733799989288672
1761391616615234600,4.535234619140625,-1.3563894747585057,-0.8360200315088033,0.08015044523142277
1761391616625301500,4.545301513671875,-1.3771686434149741,-0.6427576594255864,0.07435396998026408
1761391616635367700,4.55536767578125,-1.285688629591465,-0.5109169936411082,0.03897353585097007
1761391616645433300,4.565433349609375,-1.1128367389827967,-0.4308887865498662,-0.020294846605090424
1761391616655499500,4.57549951171875,-0.8658990369439125,-0.4246760495148599,-0.008127703810855745
1761391616665565400,4.5855654296875,-0.6031237143039703,-0.45326501513943074,0.14806081029656343
1761391616675632400,4.59563232421875,-0.4231412411630153,-0.4476221869468689,0.278818055625353
1761391616685698600,4.605698486328125,-0.45135786634385583,-0.32762919534444807,0.3606547186443582
1761391616695764500,4.615764404296875,-0.6256938580304384,-0.09189590114802122,0.3769798670340329
1761391616705830700,4.62583056640625,-0.7801198651105165,0.1362066059090197,0.33327947619110343
1761391616715896600,4.635896484375,-0.9166916510701179,0.31675621141344307,0.31036661997418846
1761391616725962800,4.645962646484375,-1.222723931634426,0.4109386160634458,0.33705782568603754
1761391616736028400,4.6560283203125,-1.5693565181344746,0.4742478896744549,0.3913752529375255
1761391616746095600,4.666095703125,-1.6509411608874798,0.44942982089072464,0.42900282667279244
1761391616756161500,4.67616162109375,-1.4769465299844742,0.1925995242603123,0.4892497901037335
1761391616766227500,4.6862275390625,-1.0291560007333755,-0.1320655605815351,0.4538399654831737
1761391616776293600,4.696293701171875,-0.46295068898200986,-0.3714170452751219,0.19272326023783534
1761391616786359600,4.706359619140625,0.07053659451603889,-0.6863048324681819,-0.057671998376399275
1761391616796425500,4.716425537109375,0.21871698520481586,-1.1941413957506417,-0.3053284796765074
1761391616806492700,4.72649267578125,-0.29727731170058247,-1.6195435675829648,-0.7610736577264964
1761391616816558600,4.73655859375,-1.1658686564683913,-1.7632441825091838,-1.361243344530463
1761391616826624500,4.74662451171875,-1.9693951161295173,-1.5939043916746973,-1.743806783850491
1761391616836690400,4.7566904296875,-2.532327689820528,-1.259341597674787,-1.6762546119727193
1761391616846756400,4.76675634765625,-2.731741424140334,-0.8091101050123571,-1.0773718962393701
1761391616856823600,4.776823486328125,-2.517724579450488,-0.39729295254871244,-0.302647259502206
1761391616866889500,4.786889404296875,-1.9840280371159313,0.1680970972970128,0.328310528672114
1761391616876955400,4.796955322265625,-1.2555150251239537,0.7403801215268672,0.8007565565563738
1761391616887021600,4.807021484375,-0.2653431273013353,1.2157149296551941,1.2103855513259767
1761391616897087500,4.81708740234375,0.8795674968123436,1.5981269778057932,1.532954540671408
1761391616907153700,4.827153564453125,1.911185503745079,1.7261986464455723,1.8071011521533131
1761391616917220600,4.837220703125,2.703648717600107,1.6264391723155975,2.0645650705121454
1761391616927286500,4.84728662109375,3.016520488795638,1.2839680894091725,2.3404601330965757
1761391616937352700,4.857352783203125,2.9129437944650647,0.8069231163620948,2.5003470359310507
1761391616947418400,4.86741845703125,2.536451491752267,0.5614055102542043,2.3112658950552345
1761391616957484500,4.877484619140625,2.073595495316386,0.5289806197285651,1.6886740946933627
1761391616967550500,4.887550537109375,1.5546096153795719,0.5444570058017969,0.9230330559860914
1761391616977617400,4.897617431640625,0.9206324976503848,0.5108998963758349,0.3316746713429689
1761391616987683600,4.90768359375,0.2405734277039766,0.4642068265229463,-0.06871829304769635
1761391616997749500,4.91774951171875,-0.31866146051287647,0.4019593369245529,-0.29819139433819797
1761391617007815700,4.927815673828125,-0.8100128990709781,0.47997985745519395,-0.3565691298311576
1761391617017881600,4.937881591796875,-1.4195312828481197,0.662000558425486,-0.21772740791188552
1761391617027947500,4.947947509765625,-2.145840647315979,0.8557125739723443,-0.044716728278622025
1761391617038014700,4.9580146484375,-2.60709154664278,1.0882061555951834,0.13156550210490822
1761391617048080400,4.968080322265625,-2.545862294176221,1.3551035266011953,0.2589321094815619
1761391617058146600,4.978146484375,-2.0455635790526867,1.6332535285055636,0.33292708255685866
1761391617068212500,4.98821240234375,-1.2445435492545365,1.8723121677324175,0.32899858400151133
1761391617078278700,4.998278564453125,-0.3665367258876562,1.96263862760663,0.23762477049883454
1761391617088344600,5.008344482421875,0.44193361991643904,1.8275477278545498,0.13286007196009159
1761391617098411500,5.01841162109375,1.08084527143836,1.4089973216131328,0.010362367527745664
1761391617108477700,5.028477783203125,1.5744038646519183,1.0783829729780554,-0.2097264905521646
1761391617118543600,5.038543701171875,1.980875126042962,0.9317828372180461,-0.3919169220661744
1761391617128609500,5.048609619140625,2.2608494207650423,0.8553548465758561,-0.574760227998346
1761391617138675500,5.058675537109375,2.4703087482810018,0.7369792270421981,-0.7436622119374573
1761391617148741400,5.068741455078125,2.6479472886443136,0.4768976735308766,-0.7489280235111713
1761391617158808600,5.07880859375,2.7450346209555865,0.19650310757011175,-0.6710337597087025
1761391617168874500,5.08887451171875,2.6927859628021715,0.08975538198798895,-0.5306754044150933
1761391617178940400,5.0989404296875,2.303071190422773,0.04754793311655521,-0.3803802500620484
1761391617189006600,5.109006591796875,1.7388111675202846,-0.21744974174797535,-0.3032131680229679
1761391617199072500,5.119072509765625,1.3601017732799052,-0.4079582850784063,-0.27875918331127614
1761391617209138700,5.129138671875,1.0232014762431383,-0.2856935491517186,-0.24339476873502133
1761391617219205600,5.13920556640625,0.7216402036130428,-0.17531565037369726,-0.24523100771885364
1761391617229271600,5.149271484375,0.4324228642493486,-0.0855235896371305,-0.14101754985470324
1761391617239337500,5.15933740234375,0.18902268868684768,0.0011611527338624,-0.012093940560705958
1761391617249403400,5.1694033203125,-0.14445873981714247,0.051153556393086906,0.14324512624368071
1761391617259469600,5.179469482421875,-0.40188685621023174,0.1341502579011023,0.3788390485020354
1761391617269535500,5.189535400390625,-0.4757411969721317,0.24945450716540216,0.6657703592877835
1761391617279602400,5.1996025390625,-0.644514293834567,0.2636963830076158,0.9856791164480149
1761391617289668600,5.209668701171875,-0.936943580982089,0.21890987742841242,1.230005028553307
1761391617299734500,5.219734619140625,-1.2309592605382202,0.25935660023763774,1.2986328668385743
1761391617309800700,5.22980078125,-1.4658838687002658,0.3018538258358836,1.2926673825629054
1761391617319866600,5.23986669921875,-1.6004706183224915,0.26258111524209377,1.1857429852396248
1761391617329932500,5.2499326171875,-1.63725165823102,0.06609393589347601,1.0225042146939785
1761391617339999500,5.25999951171875,-1.4768880777955053,-0.13137450957745314,0.9410263933163135
1761391617350065400,5.2700654296875,-1.1941180148750543,-0.32555706524550915,0.9886102014638483
1761391617360131600,5.280131591796875,-1.008067619997263,-0.5247084953673183,1.1218091499894858
1761391617370197500,5.290197509765625,-0.9110545219659805,-0.7629920585684478,1.2432327589169143
1761391617380263700,5.300263671875,-0.7398100665539503,-1.048966178227216,1.3204194589719176
1761391617390329600,5.31032958984375,-0.6160153445810079,-1.3506200975768268,1.1614089736457913
1761391617400396500,5.320396484375,-0.5731564460635185,-1.4762392584979533,0.6394740346450358
1761391617410462700,5.330462646484375,-0.9723457337528466,-1.6313333740979432,0.11763009839598089
1761391617420529000,5.34052880859375,-1.974731800982356,-1.7775446566708384,-0.29246130798729136
1761391617430594800,5.3505947265625,-3.265640211048722,-1.6911736564241349,-0.6208018482051789
1761391617440661000,5.360660888671875,-4.289307551237941,-1.2330265683315693,-0.7786791647829115
1761391617450727000,5.370726806640625,-4.713868011549115,-0.6416843311056495,-0.5158457552801817
1761391617460793900,5.3807939453125,-4.377689599046111,0.05741743909344077,0.11106398134604095
1761391617470859800,5.39085986328125,-3.5060219155728816,0.7392752290248871,0.8113261736266314
1761391617480925700,5.40092578125,-2.470599255660176,1.2196534381479025,1.439369517392665
1761391617490991900,5.410991943359375,-1.4750912575066089,1.6095518965311348,1.930452806533873
1761391617501057800,5.421057861328125,-0.5684510448515415,1.9208640171945095,2.2846464759379623
1761391617511124000,5.4311240234375,0.17895020748376844,2.1519287350580094,2.539680975192785
1761391617521191000,5.44119091796875,0.7302578098326921,2.2780276423200965,2.703585004714131
1761391617531256800,5.4512568359375,1.0326678082466125,2.2653508238375184,2.7405431547552346
1761391617541323000,5.461322998046875,1.2178478500306607,2.115152225194126,2.625217278181016
1761391617551389000,5.471388916015625,1.3213070554614066,1.8892507353127002,2.252814875130355
1761391617561454800,5.481454833984375,1.3227823887109755,1.6878206927344201,1.7465354781620204
1761391617571520800,5.491520751953125,1.417566704776883,1.5268629457980394,1.2790461228370666
1761391617581587700,5.501587646484375,1.6970353880643843,1.3560092432692645,0.9787586695350706
1761391617591654000,5.51165380859375,2.0625427709043023,1.0592273138701915,0.9407966762136667
1761391617601719800,5.5217197265625,2.3691011211693285,0.5248989033728838,0.9563192395161837
1761391617611786000,5.531785888671875,2.5393296775370833,0.011155892525613307,0.9042207304231822
1761391617621852000,5.541851806640625,2.463179334792495,-0.39786476108729835,0.8125287543494254
1761391617631918000,5.55191796875,2.069123318338394,-0.6733584032639861,0.7250456281423568
1761391617641985000,5.561985107421875,1.5063777916520833,-0.7901157739460468,0.7325520582497119
1761391617652051000,5.572051025390625,0.9010825785279274,-0.7435363936007022,0.9627341480597853
1761391617662116900,5.582116943359375,0.1384416714847088,-0.5640545634582639,1.3720134526088834
1761391617672182800,5.592182861328125,-0.7897153764516115,-0.2541729139894247,1.7711881272509693
1761391617682248700,5.602248779296875,-1.6982716518610714,0.1276788699299097,2.197407460685074
1761391617692315000,5.61231494140625,-2.331433361554146,0.5950277938708662,2.5756267333209513
1761391617702381800,5.6223818359375,-2.5862381437063218,1.0767996493093668,2.8827409639030694
1761391617712448000,5.632447998046875,-2.5650702679932116,1.4653576528690755,3.0936227254375814
1761391617722514000,5.642513916015625,-2.3320652297168967,1.7984379532262682,3.1503844771012663
1761391617732579800,5.652579833984375,-1.8887924701511858,2.004164670085162,3.0804347425624727
1761391617742646000,5.66264599609375,-1.3567238212794064,1.9880799428552387,2.9054215822666882
1761391617752711700,5.672711669921875,-0.8184078024506568,1.6954570328317582,2.466686758391559
1761391617762779000,5.68277880859375,-0.32628362595438953,1.3818587009273469,1.9830337653815746
1761391617772844800,5.6928447265625,0.02657762580215931,1.086358189640939,1.565232423941791
1761391617782910700,5.70291064453125,0.1930249100655317,0.7849968234971165,1.096538661263138
1761391617792977000,5.712976806640625,0.3557295006692409,0.5874129349529743,0.6326495954524726
1761391617803042800,5.723042724609375,0.49370472368597984,0.4896183311551809,0.2404713555689901
1761391617813109000,5.73310888671875,0.49909343098700043,0.369947264983505,-0.032678207699581976
1761391617823176000,5.743176025390625,0.4893909521400928,0.2909481086790561,-0.210340055873245
1761391617833241900,5.753241943359375,0.6254530350118875,0.33827260830327865,-0.2309337118949741
1761391617843308000,5.76330810546875,0.8507721949607133,0.4642882211960852,0.031950185685977336
1761391617853373700,5.773373779296875,1.096539684176445,0.5752487421676516,0.4517173473060131
1761391617863440000,5.78343994140625,1.310713180732727,0.7162823298417031,0.8466936934754252
1761391617873505800,5.793505859375,1.3828525342702864,0.9224554752938449,1.1478127752959728
1761391617883572700,5.80357275390625,1.3153724047154187,1.0872628833957017,1.3746180821493268
1761391617893639000,5.813638916015625,1.126717380297184,1.2598670828536152,1.5838240194261073
1761391617903704800,5.823704833984375,0.8864590098917484,1.4593432148851453,1.7746882443264125
1761391617913771000,5.83377099609375,0.4942752170503139,1.6060313211895525,1.946439480216801
1761391617923837000,5.8438369140625,0.04287584965229034,1.7371499563097952,2.0368870822526515
1761391617933903000,5.853903076171875,-0.22837679395377636,1.9091804475329814,2.0965670594505963
1761391617943970000,5.863969970703125,-0.24698095665872097,2.0777523227348924,2.159713251454383
1761391617954035700,5.87403564453125,-0.09656769235134124,2.133819516263157,2.2963865980923175
1761391617964102000,5.884101806640625,0.17601298498809337,2.04905405151695,2.4582705199629067
1761391617974167800,5.894167724609375,0.4739005375415086,1.8622179130889474,2.5255960434779525
1761391617984234000,5.90423388671875,0.7502274156719446,1.665340273118019,2.451879065360129
1761391617994300000,5.9142998046875,0.8855933329731226,1.4758847459718585,2.196447383481264
1761391618004366800,5.924366943359375,0.8139362099945545,1.392352914673835,1.7487708359986542
1761391618014433000,5.93443310546875,0.4799333879649639,1.4176643199324608,1.3063891800537704
1761391618024499000,5.9444990234375,-0.0991004256993532,1.4831000841781496,0.9931435340445488
1761391618034564900,5.95456494140625,-0.86692954903543,1.662767646151036,0.7857399700146168
1761391618044630800,5.964630859375,-1.6044342612564564,1.8752005826503038,0.839813140181452
1761391618054696700,5.97469677734375,-2.096580065062642,2.045350666954368,1.2102994804777205
1761391618064764000,5.984763916015625,-2.25335643466115,2.210724769028276,1.7106383814811705
1761391618074829800,5.994829833984375,-1.853903527599573,2.3737375487983225,2.195330069889128
1761391618084895700,6.004895751953125,-0.9905968452364206,2.5420380597129464,2.4941560723364353
1761391618094962000,6.0149619140625,0.01683481494486332,2.5995319250434634,2.602071088132262
1761391618105027800,6.02502783203125,0.8429694122552871,2.3651148280121386,2.623162683738768
1761391618115094000,6.035093994140625,1.314993634530902,1.9628757973633706,2.455237728138268
1761391618125161000,6.045160888671875,1.173857317134738,1.5702666187167167,1.8796373960539698
1761391618135227000,6.055226806640625,0.5576128399729728,1.229112609758228,1.0643433417096733
1761391618145292800,6.065292724609375,-0.4309983844041824,0.8388887188129126,0.24313900387566537
1761391618155358700,6.075358642578125,-1.70681619284451,0.4162723783068359,-0.30429471618197856
1761391618165425000,6.0854248046875,-2.917490790244937,-0.03136149907782674,-0.5607809486150741
1761391618175490800,6.09549072265625,-3.7279876734405755,-0.34703663725629447,-0.5587058228414505
1761391618185557800,6.105557861328125,-4.165978108689188,-0.5502765057355166,-0.3015479016918689
1761391618195624000,6.1156240234375,-4.093300410491228,-0.5483864542052149,0.049621962911635634
1761391618205689900,6.12568994140625,-3.3394828613728285,-0.2571104287460446,0.35683746191114185
1761391618215756000,6.135756103515625,-2.131013665062189,0.040419250280410046,0.7334803520757704
1761391618225822000,6.145822021484375,-0.947342809921503,0.16188465252295137,1.1676903189375996
1761391618235887900,6.155887939453125,0.06442424911558628,0.14876038253381849,1.5643766838952897
1761391618245955000,6.165955078125,0.9287024068593979,0.07934212452322244,1.922996353048086
1761391618256020700,6.176020751953125,1.4058347659289836,-0.0651075552046299,2.2576368884593245
1761391618266087000,6.1860869140625,1.5504174243867397,-0.164210026730597,2.450502954701334
1761391618276152800,6.19615283203125,1.5790227566242216,-0.1505022577650845,2.534964468064904
1761391618286219000,6.206218994140625,1.4960206482887268,-0.1267370590351522,2.6066116541713473
1761391618296285000,6.216284912109375,1.2945412136107683,-0.09392126949578523,2.6466163323014973
1761391618306351900,6.226351806640625,0.9124731565922498,0.012103110247850418,2.5492908073201774
1761391618316418000,6.23641796875,0.31178806761205197,0.2469211892955005,2.2825702541857957
1761391618326484000,6.24648388671875,-0.39787703604698177,0.4759795357726514,1.910190209097415
1761391618336549600,6.256549560546875,-0.9858744928896427,0.6572665156409144,1.4890715598031878
1761391618346615800,6.26661572265625,-1.3381705119788645,0.7309563134908675,1.1103653804332017
1761391618356681700,6.276681640625,-1.3385375917255877,0.7318300275854766,1.1245696276787667
1761391618366748000,6.286747802734375,-1.4876047021210193,0.7038987952172756,0.8280849276605993
1761391618376813800,6.296813720703125,-1.462177999919653,0.647437633935362,0.5894896681617945
1761391618386880000,6.3068798828125,-1.359725341182947,0.5707061303019523,0.29309487491678443
1761391618396947000,6.316947021484375,-1.1825889051228762,0.5052228736527263,-0.08044908111812546
1761391618407012900,6.327012939453125,-0.8980243600010871,0.45215646937564014,-0.45902423625327643
1761391618417079000,6.3370791015625,-0.5684089592754841,0.3604948153749108,-0.7737810174778104
1761391618427144700,6.347144775390625,-0.24685820706188677,0.1982803463757038,-1.014854211397469
1761391618437211000,6.3572109375,-0.06496200925409794,-0.020941373480856416,-1.2568044804126024
1761391618447276800,6.36727685546875,0.025386370190978048,-0.25696736701354383,-1.4034046161726117
1761391618457343700,6.37734375,0.10290566320121287,-0.3955447937071323,-1.4634611715979873
1761391618467410000,6.387409912109375,0.11320435437560081,-0.4715935757733881,-1.528995281651616
1761391618477475600,6.3974755859375,0.08027882085144519,-0.5727709538772702,-1.5668255383521317
1761391618487541800,6.407541748046875,-0.0056885670304298395,-0.7507558234602213,-1.5281415874317288
1761391618497607700,6.417607666015625,-0.1747778902351856,-0.893719210153073,-1.439187877215445
1761391618507673900,6.427673828125,-0.42435295504033566,-0.9441115729153156,-1.3172855448603629
1761391618517740800,6.43774072265625,-0.7024100179642438,-0.918034297850728,-1.142992734728381
1761391618527806700,6.447806640625,-0.9080664460659027,-0.8666255976527929,-0.8919973547965288
1761391618537873000,6.457872802734375,-0.9599965397894382,-0.873330063727498,-0.6127680332228541
1761391618547938800,6.467938720703125,-0.8861047896265983,-0.917678031758964,-0.4421162830069661
1761391618558004700,6.478004638671875,-0.728014414820075,-0.938878494567424,-0.505055371598713
1761391618568070700,6.488070556640625,-0.586844779676199,-0.9134988463781774,-0.7224171793349087
1761391618578137600,6.4981376953125,-0.6827396873325109,-0.9260742503128945,-0.8907279924478382
1761391618588203800,6.508203857421875,-0.9605249475777149,-0.9113478058241308,-0.9144294052265584
1761391618598269700,6.518269775390625,-1.1370265928655863,-0.7284054599642753,-0.7724686197049916
1761391618608335600,6.528335693359375,-1.1108248146384954,-0.39314372391477226,-0.44677959864288563
1761391618618401800,6.53840185546875,-0.8826128558576106,-0.05933160215169191,-0.10268869598228483
1761391618628467700,6.5484677734375,-0.4193693214088678,0.22957930161133408,0.21793595436234026
1761391618638535000,6.558534912109375,0.2224959192216396,0.45018604608550666,0.5612639828916639
1761391618648600800,6.568600830078125,0.8170727544546127,0.5263530477039515,0.8586455586843192
1761391618658666800,6.578666748046875,1.2684376350611448,0.523738627421856,1.086243111893907
1761391618668732700,6.588732666015625,1.4375380641818045,0.5185869437471032,1.1892352112695574
1761391618678798600,6.598798583984375,1.2764625360846518,0.5543590988740325,1.2147817404583097
1761391618688864800,6.60886474609375,0.8352835339277982,0.6490595360487699,1.153783228007704
1761391618698931700,6.618931640625,0.22402736657261846,0.7475700330309569,1.0876635731510818
1761391618708997600,6.62899755859375,-0.3922515973806381,0.8457483754493296,1.0617316979065536
1761391618719063800,6.639063720703125,-0.8688345058739185,0.944102366695553,1.0350106450457126
1761391618729129700,6.649129638671875,-1.067281440988183,1.0385210643194616,0.9879955766968429
1761391618739196000,6.65919580078125,-0.9337164356291293,1.1087892171576619,0.9519264113847166
1761391618749261800,6.66926171875,-0.540948705419898,1.0988730955600738,0.951258375930041
1761391618759328800,6.679328857421875,-0.039057752668857575,1.0116785039708018,0.9696147013537585
1761391618769394700,6.689394775390625,0.4019651821434498,0.8618285726346075,0.9788423292305319
1761391618779460600,6.699460693359375,0.6776227827101945,0.6627662821009754,0.9464567478019743
1761391618789526800,6.70952685546875,0.783136582583189,0.46768034785240886,0.8447619947604834
1761391618799592700,6.7195927734375,0.7353729608893395,0.2684390474900603,0.7176359364077448
1761391618809659000,6.729658935546875,0.6176058286428451,0.047221039249747986,0.592656826955825
1761391618819725800,6.739725830078125,0.34114860213100906,-0.1721868508286774,0.4188548690807074
1761391618829791700,6.749791748046875,0.04098550586104393,-0.32279008475020526,0.21729767472511155
1761391618839858000,6.75985791015625,-0.11872867075502871,-0.3774363055646419,0.07500935601592064
1761391618849923800,6.769923828125,-0.08908698120713233,-0.35044454600363967,0.09675411830153316
1761391618859989800,6.77998974609375,0.058441083052754396,-0.2545867554873228,0.24905736107397822
1761391618870055700,6.7900556640625,0.1726607519507408,-0.12573986469134688,0.40164501027837396
1761391618880122600,6.80012255859375,0.26414018125236033,-0.001728138966858387,0.5195542544092983
1761391618890188800,6.810188720703125,0.33515549919605253,0.02379033317118883,0.5936392255892977
1761391618900254700,6.820254638671875,0.37482933793663975,0.001322626905888319,0.5741872138833627
1761391618910320600,6.830320556640625,0.41444647805392737,-0.027401947797089814,0.4252214084379375
1761391618920386800,6.84038671875,0.4721902264922857,-0.08109729762747883,0.24353355615120378
1761391618930452700,6.85045263671875,0.551260256075859,-0.15234920080602168,0.13780936493054033
1761391618940520000,6.86052001953125,0.5210796373456716,-0.21965002827122806,0.13291636872459203
1761391618950585900,6.8705859375,0.4071621662646532,-0.3164167503260076,0.12265373524427413
1761391618960651500,6.880651611328125,0.43845863728225226,-0.33951033340469,0.09692874421607703
1761391618970717700,6.8907177734375,0.5455208356410265,-0.2916037961088121,-0.01710385941090062
1761391618980783600,6.90078369140625,0.6507762768387794,-0.30360432276502247,-0.1678254224824719
1761391618990849800,6.910849853515625,0.6433534333616495,-0.36888562710136175,-0.2715571429779753
1761391619000916700,6.920916748046875,0.555356000956893,-0.4197022066250443,-0.35099059904646124
1761391619010982700,6.930982666015625,0.3351964157283306,-0.4268402418114245,-0.40334713802114125
1761391619021048800,6.941048828125,0.03717793027162552,-0.3992123763039708,-0.4525985871199518
1761391619031114800,6.95111474609375,-0.3018114479988813,-0.3905247735880315,-0.45830132880620655
1761391619041181000,6.961180908203125,-0.6200900466740131,-0.39095512782931324,-0.44064171694237736
1761391619051246600,6.97124658203125,-0.8717799116760492,-0.3879742123223841,-0.42159481543861327
1761391619061313800,6.981313720703125,-1.0434025527507067,-0.35284707710072394,-0.36677206901349124
1761391619071379700,6.991379638671875,-1.1580571059346199,-0.28744711482077834,-0.39736031869649885
1761391619081445600,7.001445556640625,-1.1103139425069093,-0.216745392870903,-0.4906288599045947
1761391619091511800,7.01151171875,-0.889922886610031,-0.19031784306392072,-0.6113621850129216
1761391619101577700,7.02157763671875,-0.5983902560412884,-0.2709888781033456,-0.7303175771959125
1761391619111644000,7.031643798828125,-0.3867711201429367,-0.42829687036052344,-0.7751457299597561
1761391619121710800,7.0417109375,-0.2100871040254831,-0.5702034414768219,-0.7633038279313593
1761391619131776800,7.05177685546875,-0.09841302795708179,-0.6617943683288992,-0.746833243189007
1761391619141843000,7.061843017578125,-0.04225216479599476,-0.6792005534209311,-0.7015441949151456
1761391619151908600,7.07190869140625,-0.013816343906521797,-0.5808510922193527,-0.6292325535506009
1761391619161974800,7.081974853515625,-0.09252396991848945,-0.464481551811099,-0.5317701408492401
1761391619172040700,7.092040771484375,-0.27192192116975783,-0.40042584374696016,-0.42478447832539673
1761391619182107600,7.102107666015625,-0.5252420177221298,-0.3755445004686713,-0.3505546553146094
1761391619192173800,7.112173828125,-0.837557324078679,-0.3550733748480677,-0.30791115311346945
1761391619202239700,7.12223974609375,-1.1139414853543042,-0.2861594130977988,-0.316177753938362
1761391619212305700,7.1323056640625,-1.212473755776882,-0.20449366793259977,-0.2745995428811759
1761391619222371800,7.142371826171875,-1.0868185006290674,-0.21057211106345056,-0.07422301424408796
1761391619232437800,7.152437744140625,-0.7836404404520988,-0.4053672456718981,0.2247813084787689
1761391619242505000,7.1625048828125,-0.24674597885906696,-0.6389993298053741,0.41765228835791346
1761391619252571000,7.17257080078125,0.3920119434058666,-0.7152816283665597,0.36106830441392956
1761391619262636500,7.182636474609375,0.8319593579411506,-0.6917864787496626,0.08477600440653041
1761391619272702700,7.19270263671875,0.9345347662746906,-0.7459770647510886,-0.340772206566669
1761391619282768600,7.2027685546875,0.5084767608821392,-0.8066293941125273,-0.8211071245372294
1761391619292834800,7.212834716796875,-0.2050128695011139,-0.787208800458163,-1.215681611907482
1761391619302901800,7.22290185546875,-0.9385697208791971,-0.6694111269429326,-1.4725444956332445
1761391619312967700,7.2329677734375,-1.7334195376098156,-0.48432402413934467,-1.5775708042502403
1761391619323033900,7.243033935546875,-2.341349190890789,-0.2525879828855395,-1.4250649515777825
1761391619333099800,7.253099853515625,-2.3877537991911173,0.08841463490352033,-1.018462757283449
1761391619343165700,7.263165771484375,-1.8396780183702706,0.48246948231384157,-0.45195605143271383
1761391619353231600,7.273231689453125,-0.8303419858723878,0.79271616570279,0.05961451987945474
1761391619363298600,7.283298583984375,0.3670861764639616,0.9952870488792658,0.3733092522298917
1761391619373364700,7.29336474609375,1.472165140926838,1.0863739717319607,0.6273883869886397
1761391619383430700,7.3034306640625,2.308828731036186,1.0362694860003887,0.9221285814270377
1761391619393496800,7.313496826171875,2.886411761370301,0.9157983554922043,1.2018783466782421
1761391619403562800,7.323562744140625,3.157085728305578,0.8109307445682584,1.4389398938037454
1761391619413629000,7.33362890625,3.0191952609628436,0.6636363429337739,1.5857900588020681
1761391619423695400,7.3436953125,2.613147193419933,0.4814302023939788,1.6747124970972538
1761391619433761300,7.35376123046875,2.1013918492585417,0.40389980346783994,1.572225936090946
1761391619443827500,7.363827392578125,1.710133939090371,0.5716765827693044,1.2546924566946922
1761391619453893400,7.373893310546875,1.4136696973383427,0.7264911507755517,0.999154537962377
1761391619463959600,7.38395947265625,1.1509329531431198,0.6736477415993809,0.7989220346055924
1761391619474025500,7.394025390625,0.9853834945023059,0.5965528114810585,0.5575528899466619
1761391619484092400,7.404092529296875,0.9043144000560045,0.603400193157792,0.2852074096025899
1761391619494158600,7.41415869140625,0.8520219027608632,0.7216288054361939,0.06305182825122028
1761391619504224300,7.424224365234375,0.656446723690629,0.7980297619409858,0.008402684827335178
1761391619514290400,7.43429052734375,0.18246552212834358,0.6502358863517642,0.11483410186874679
1761391619524356400,7.4443564453125,-0.49053018530309195,0.39894539593085643,0.20800578597309066
1761391619534422300,7.45442236328125,-1.1010182908952235,0.21103052235543726,0.16775622970378026
1761391619544489500,7.464489501953125,-1.5794319219470023,0.1142196688979864,0.032564445126801726
1761391619554555400,7.474555419921875,-1.9424194309204816,0.051840808004885906,-0.13589717463366688
1761391619564621600,7.48462158203125,-2.1284458604007956,0.10087781063541769,-0.27700013774950055
1761391619574687500,7.4946875,-2.288148346579075,0.10330942169651389,-0.5240330072585493
1761391619584753400,7.50475341796875,-2.0027847600340842,0.2640923965878785,-0.6940775853615254
1761391619594819300,7.5148193359375,-1.4847300234675407,0.5853416816368698,-0.5987260638669133
1761391619604886500,7.524886474609375,-0.8695745105862617,0.8248726145505905,-0.4269054160021245
1761391619614952400,7.534952392578125,-0.18695757285058498,0.8318696338310837,-0.15338314696364103
1761391619625018400,7.545018310546875,0.4172755640000105,0.6510434033423662,0.25055844981931147
1761391619635084300,7.555084228515625,0.9209972393095492,0.4076854594863951,0.4650198599388823
1761391619645150500,7.565150390625,1.3346218795865774,0.3281938434898853,0.48721923412419854
1761391619655216400,7.57521630859375,1.6329180129408836,0.20756664563715457,0.428003878763318
1761391619665283300,7.585283447265625,1.8852479294121265,-0.02018456376418471,0.311114698395133
1761391619675349500,7.595349609375,2.122445743203163,-0.25131314064413307,0.15612806175760924
1761391619685415400,7.60541552734375,2.271580658137798,-0.4421681593246758,0.047860250468738375
1761391619695481300,7.6154814453125,2.21236274549365,-0.6481104186303913,-0.00077587974332273
1761391619705547300,7.62554736328125,1.6929904965877531,-0.820978018264845,-0.13198040304873138
1761391619715614200,7.6356142578125,0.8633364929795264,-0.9078026074979454,-0.42031146109718825
1761391619725680400,7.645680419921875,0.19859540367424486,-0.8196312067657708,-0.6293987769629806
1761391619735746300,7.655746337890625,-0.21691431969702243,-0.6483806869391352,-0.7064774865988641
1761391619745812500,7.6658125,-0.46306817788183685,-0.6296583777472377,-0.6323223362594843
1761391619755878400,7.67587841796875,-0.5502648152977228,-0.6648325669810176,-0.4512660233419388
1761391619765944600,7.685944580078125,-0.48724283419549463,-0.6117752227932214,-0.25718963146209717
1761391619776010500,7.696010498046875,-0.4230307665258646,-0.5159552800692617,-0.03645641106404364
1761391619786077400,7.706077392578125,-0.433362190926075,-0.4067934790827334,0.1294131463766098
1761391619796143600,7.7161435546875,-0.516933039060235,-0.24973741576001046,0.15534282966405152
1761391619806209300,7.726209228515625,-0.7954039434820414,-0.04546761971116066,0.020254998651891946
1761391619816275500,7.736275390625,-1.1454781948685646,0.17093984644226728,-0.1661400449451059
1761391619826341400,7.74634130859375,-1.4828601379424333,0.32865831919647753,-0.23989910863898692
1761391619836407300,7.7564072265625,-1.8209417537182568,0.32303931027092037,-0.09905154505632817
1761391619846474500,7.766474609375,-1.9576456416249275,0.07722732432633637,0.3829566764213145
1761391619856540400,7.77654052734375,-1.8901812941610812,-0.2689373524010181,0.7432801538173109
1761391619866606600,7.786606689453125,-1.7823609709113835,-0.25385011177584527,0.6140786043647677
1761391619876672500,7.796672607421875,-1.5563392156511544,0.022999621184915303,0.20527210495918988
1761391619886738200,7.80673828125,-1.4847978280067442,0.08300181607455015,-0.30554815030917526
1761391619896804400,7.816804443359375,-1.700055612668395,-0.04877674425914883,-0.6494359681457281
1761391619906871300,7.826871337890625,-2.0720698931843042,-0.07458002468794583,-0.8549247845955192
1761391619916937500,7.8369375,-2.458334817370772,0.037694209230691195,-1.0484707959257065
1761391619927003400,7.84700341796875,-2.7199095320492983,0.2366200139030814,-1.0512633492536843
1761391619937069300,7.8570693359375,-2.755195364964008,0.46885041454508897,-0.7527220089666545
1761391619947135500,7.867135498046875,-2.454640054506063,0.7041798041157424,-0.22722528583109378
1761391619957201400,7.877201416015625,-1.883273414468765,0.7510832287836819,0.22960282861739395
1761391619967268400,7.887268310546875,-1.167175062891841,0.9213577431850135,0.3907012991987169
1761391619977334500,7.89733447265625,-0.49171734926104543,1.0308565210409462,0.428296724230051
1761391619987400400,7.907400390625,0.05883271271884441,1.013179263922572,0.42438261952623724
1761391619997466400,7.91746630859375,0.2752799994260072,0.9922145826313644,0.3687752255294472
1761391620007532300,7.9275322265625,0.11839724684357643,0.9716505180303007,0.35347222326174377
1761391620017598500,7.937598388671875,-0.12388240025639534,0.9894681334674358,0.4248853083513677
1761391620027665400,7.94766552734375,-0.4186205488681793,0.9447013555020093,0.5293673540238291
1761391620037731300,7.9577314453125,-0.4843646484106779,0.8922144316133112,0.6289551248487085
1761391620047797500,7.967797607421875,-0.27183775001764293,0.917499898713082,0.5477993019670248
1761391620057863400,7.977863525390625,0.13417875334322452,0.9705242174141109,0.2722746070649475
1761391620067929600,7.9879296875,0.6565601209372282,0.8612158475637436,-0.10030665968395769
1761391620077995300,7.997995361328125,1.2258885331451892,0.4548325567170977,-0.43558454315066336
1761391620088062500,8.0080625,1.8065023094773291,-0.06268237388432026,-0.7529376244787126
1761391620098128400,8.01812841796875,2.264962116780877,-0.4846234454773366,-1.0407837485544382
1761391620108194300,8.0281943359375,2.377418283137679,-0.6329566886402667,-1.2950149686023593
1761391620118260500,8.038260498046874,2.077434050565958,-0.50875017099604,-1.4130885364495216
1761391620128326400,8.048326416015625,1.3607856638908384,-0.2581806883260608,-1.3740138326458633
1761391620138392600,8.058392578125,0.49115036302804943,0.09940393869057297,-1.1434840984418988
1761391620148459500,8.06845947265625,-0.21378888115286826,0.5267493535451591,-0.6512539773531257
1761391620158525400,8.078525390625,-0.5628723679363727,0.7975739809975028,0.015190408738702534
1761391620168591600,8.088591552734375,-0.4645733217477798,1.210800123476237,0.5428206367716193
1761391620178657500,8.098657470703126,-0.08047288211882114,1.494959156537056,0.9724109079435467
1761391620188723200,8.10872314453125,0.35910569910407064,1.4437509473472834,1.3410273627147078
1761391620198789400,8.118789306640625,0.741093676623702,1.186607054723054,1.5995992423154413
1761391620208856300,8.128856201171875,1.0568266824692487,0.8511556413203477,1.6246534579426049
1761391620218922500,8.138922607421875,1.1882663662374018,0.5197431280449033,1.4423369888961315
1761391620228988400,8.148988525390624,1.1881021155864,0.1768953938458115,1.1011516349513084
1761391620239054300,8.159054443359375,1.1933330019772053,-0.06896919906884431,0.798821350710094
1761391620249120500,8.16912060546875,1.100537813901901,-0.16329809951744972,0.5739799643408506
1761391620259186400,8.1791865234375,0.8210878353148698,-0.234827066071704,0.3797124338030815
1761391620269253400,8.18925341796875,0.4511252266317606,-0.41070035032816227,0.2331554065324366
1761391620279319600,8.199319580078125,0.22926585174798964,-0.3940655880000442,0.16318747874982653
1761391620289385200,8.20938525390625,0.11434709466993809,-0.304430032999441,0.10712123506963252
1761391620299451400,8.219451416015625,0.11234919885098933,-0.28932861771844326,0.10259542820826172
1761391620309517300,8.229517333984376,0.1853396162599325,-0.32890761778242883,0.18960976785980163
1761391620319583500,8.23958349609375,0.2889993126988411,-0.43824894005432724,0.2827810227058828
1761391620329650400,8.249650390625,0.49873979524374007,-0.5050172680780292,0.22833156657256184
1761391620339716400,8.25971630859375,0.7185702946484088,-0.45786235286705196,0.039706279705464836
1761391620349782500,8.269782470703126,0.8341419626772403,-0.4619261682398617,-0.10624131042994558
1761391620359848400,8.279848388671875,0.8945920474648476,-0.4975932555571198,-0.14217398988083005
1761391620369914600,8.28991455078125,0.8632640122652053,-0.4866491060860455,-0.13069471061974763
1761391620379980300,8.299980224609374,0.6800169843703509,-0.4522036695182323,-0.16757051613964138
1761391620390047200,8.310047119140625,0.3577648058891296,-0.44835437367893755,-0.18026107088662682
1761391620400113400,8.320113525390624,0.021916063731908797,-0.45502435296215116,-0.10976890003420411
1761391620410179300,8.330179443359375,-0.30665888803005215,-0.5543522307418286,0.004962006321549415
1761391620420245500,8.34024560546875,-0.5325123009860515,-0.6707577923115342,0.08129640039615332
1761391620430311400,8.3503115234375,-0.6012631811290979,-0.7649432657014578,0.1063609182216227
1761391620440377600,8.360377685546876,-0.49247722771763797,-0.9201569890931248,0.015200199480354785
1761391620450444500,8.370444580078125,-0.3395703930288553,-1.0312736504744737,-0.09834946120157838
1761391620460510500,8.380510498046876,-0.17950550327897072,-1.0373485864739864,-0.20583171160332858
1761391620470576600,8.39057666015625,-0.10262450817227363,-0.9044128919944167,-0.4172000145457685
1761391620480642600,8.400642578125,-0.23204876046478748,-0.8093728476017713,-0.7688575896009803
1761391620490708500,8.41070849609375,-0.7159872924178838,-0.8377882102251052,-1.1866199872698635
1761391620500774700,8.420774658203126,-1.3617875344097614,-0.8022988175623118,-1.5137484665505587
1761391620510841600,8.430841552734375,-2.1233827317923306,-0.440179615855962,-1.5029853727348148
1761391620520907500,8.440907470703126,-2.3740169502615927,-0.41315461161248385,-0.8627607389181852
1761391620530973400,8.450973388671875,-1.6998773334920405,-0.7993814688108861,0.7607464715987443
1761391620541039400,8.461039306640625,-0.7051146007478237,-0.8217294942192733,1.82614414466694
1761391620551105500,8.47110546875,-0.14726269132196904,-0.3879318344853818,1.645529218841344
1761391620561171500,8.48117138671875,0.2701829685479402,0.08786065428256988,0.4779601881958544
1761391620571238400,8.49123828125,0.5870768348664045,0.046631841184943915,-0.34863241854775695
1761391620581304600,8.5013046875,0.3034907793879509,-0.5654090468071401,-0.6536893878065049
1761391620591370500,8.51137060546875,-0.49800914288163184,-0.8520091894097626,-1.1048184868957847
1761391620601436700,8.521436767578125,-1.4939070171356201,-0.7909682991221547,-1.650474420158565
