time,seconds_elapsed,z,y,x
1761391612155922700,0.075922607421875,0.11552225798368454,0.07210558652877808,-0.0766146183013916
1761391612165988600,0.085988525390625,0.10956811904907227,0.1726066917181015,-0.10401205718517303
1761391612176054800,0.0960546875,0.13711664080619812,0.26444101333618164,-0.16108199954032898
1761391612186120400,0.106120361328125,0.19061776995658875,0.3312947452068329,-0.22338859736919403
1761391612196186600,0.1161865234375,0.26530560851097107,0.3698618412017822,-0.2819320857524872
1761391612206253600,0.126253662109375,0.33874377608299255,0.3763425052165985,-0.3144829273223877
1761391612216319500,0.136319580078125,0.40099650621414185,0.35944315791130066,-0.32220450043678284
1761391612226385700,0.1463857421875,0.4582669734954834,0.31906116008758545,-0.31195124983787537
1761391612236451600,0.15645166015625,0.5011255145072937,0.2455805391073227,-0.31061434745788574
1761391612246517800,0.166517822265625,0.5130168795585632,0.15505968034267426,-0.3296670615673065
1761391612256583700,0.176583740234375,0.5093401074409485,0.09842570126056671,-0.3613019585609436
1761391612266650600,0.186650634765625,0.4891129732131958,0.07893853634595871,-0.41372379660606384
1761391612276716800,0.196716796875,0.4874700605869293,0.09107056260108948,-0.4528650939464569
1761391612286782700,0.20678271484375,0.4908674955368042,0.11617089807987213,-0.48882773518562317
1761391612296848600,0.2168486328125,0.5060589909553528,0.1256064772605896,-0.5112430453300476
1761391612306914600,0.22691455078125,0.525132417678833,0.1113642081618309,-0.5234149098396301
1761391612316980500,0.23698046875,0.541123628616333,0.07877644151449203,-0.5550554394721985
1761391612327047700,0.247047607421875,0.5663385987281799,0.04662512615323067,-0.5729811191558838
1761391612337113600,0.257113525390625,0.5989362597465515,0.014698619954288006,-0.5809551477432251
1761391612347179800,0.2671796875,0.6403657793998718,-0.004380021244287491,-0.583581268787384
1761391612357245700,0.27724560546875,0.6849585771560669,-0.06353388726711273,-0.5865797400474548
1761391612367311600,0.2873115234375,0.725429356098175,-0.16049760580062866,-0.5850220918655396
1761391612377377500,0.29737744140625,0.754189133644104,-0.27041345834732056,-0.5560958981513977
1761391612387444700,0.30744482421875,0.7622557878494263,-0.3449491858482361,-0.4946634769439697
1761391612397510700,0.3175107421875,0.7434999346733093,-0.39730772376060486,-0.4100479185581207
1761391612407576600,0.32757666015625,0.7134873867034912,-0.3778778910636902,-0.30437934398651123
1761391612417642200,0.337642333984375,0.6871727108955383,-0.2805255055427551,-0.19429409503936768
1761391612427708200,0.347708251953125,0.6612574458122253,-0.17444199323654175,-0.09938441962003708
1761391612437774000,0.357774169921875,0.6394512057304382,-0.09276896715164185,-0.04724744334816933
1761391612447841300,0.36784130859375,0.6323121786117554,-0.030453236773610115,-0.02249870076775551
1761391612457907200,0.3779072265625,0.6342999935150146,-0.0028639528900384903,-0.009255332872271538
1761391612467973000,0.38797314453125,0.6526654958724976,-0.017212174832820892,0.00819442979991436
1761391612478039000,0.3980390625,0.6702111959457397,-0.05427751690149307,0.04567895084619522
1761391612488105000,0.40810498046875,0.6888055205345154,-0.06959275901317596,0.10410802811384201
1761391612498171100,0.418171142578125,0.6852265000343323,-0.08431205153465271,0.17600885033607483
1761391612508238000,0.428238037109375,0.6630263328552246,-0.10336574167013168,0.23004896938800812
1761391612518304000,0.438303955078125,0.6225537061691284,-0.13941802084445953,0.25797566771507263
1761391612528370200,0.4483701171875,0.5694341063499451,-0.19760262966156006,0.2483089566230774
1761391612538436000,0.45843603515625,0.5342487096786499,-0.2466098517179489,0.2027672976255417
1761391612548502300,0.468502197265625,0.5200543999671936,-0.2949833869934082,0.16005191206932068
1761391612558568200,0.478568115234375,0.5171658992767334,-0.3517955243587494,0.10718310624361038
1761391612568635100,0.48863525390625,0.4920312762260437,-0.4721454381942749,0.033671628683805466
1761391612578701000,0.498701171875,0.3963124752044678,-0.6095126271247864,-0.07800137251615524
1761391612588767000,0.50876708984375,0.2449033260345459,-0.6947768330574036,-0.21921075880527496
1761391612598833200,0.518833251953125,0.1054258719086647,-0.6322471499443054,-0.3574186861515045
1761391612608899000,0.528899169921875,0.009125102311372757,-0.41193872690200806,-0.4528193175792694
1761391612618965200,0.53896533203125,-0.05523977056145668,-0.1016189381480217,-0.4855426251888275
1761391612629032200,0.5490322265625,-0.08103148639202118,0.20258131623268127,-0.4400649666786194
1761391612639098000,0.55909814453125,-0.07719280570745468,0.4117395877838135,-0.3306143581867218
1761391612649164300,0.569164306640625,-0.03848101198673248,0.4761660099029541,-0.19778791069984436
1761391612659230200,0.579230224609375,0.017704227939248085,0.40535175800323486,-0.07132556289434433
1761391612669296000,0.589296142578125,0.08729462325572968,0.27607378363609314,0.04833807796239853
1761391612679362000,0.599362060546875,0.16102689504623413,0.10474599152803421,0.14848092198371887
1761391612689429000,0.609428955078125,0.2207733392715454,-0.06207678094506264,0.22811253368854523
1761391612699495200,0.6194951171875,0.2644885778427124,-0.1686607450246811,0.2842210531234741
1761391612709561000,0.62956103515625,0.2913282513618469,-0.19500413537025452,0.3142695724964142
1761391612719627300,0.639627197265625,0.3109309673309326,-0.1318986713886261,0.3331260681152344
1761391612729693200,0.649693115234375,0.3329928517341614,0.03989624232053757,0.3736787736415863
1761391612739759000,0.659759033203125,0.35541480779647827,0.31235864758491516,0.4234828054904938
1761391612749826300,0.669826416015625,0.38546261191368103,0.5679843425750732,0.45067858695983887
1761391612759892200,0.679892333984375,0.41285428404808044,0.7798899412155151,0.45055368542671204
1761391612769958100,0.689958251953125,0.44198641180992126,0.9769819974899292,0.41650310158729553
1761391612780024000,0.700024169921875,0.47568976879119873,1.1052517890930176,0.38798436522483826
1761391612790090000,0.710090087890625,0.5167049169540405,1.1382627487182617,0.38742855191230774
1761391612800157200,0.7201572265625,0.514731764793396,1.0271767377853394,0.4350820779800415
1761391612810223000,0.73022314453125,0.48010411858558655,0.824772298336029,0.5592415928840637
1761391612820289000,0.7402890625,0.4401543140411377,0.7157339453697205,0.7649965882301331
1761391612830355200,0.750355224609375,0.42097732424736023,0.617918074131012,0.9794820547103882
1761391612840421000,0.760421142578125,0.44585153460502625,0.5106179714202881,1.1450165510177612
1761391612850487300,0.7704873046875,0.5163804888725281,0.4094196557998657,1.219589352607727
1761391612860554200,0.78055419921875,0.6091498136520386,0.36886343359947205,1.2034037113189697
1761391612870620000,0.790619873046875,0.678558886051178,0.4236307442188263,1.1187044382095337
1761391612880686000,0.80068603515625,0.6958758234977722,0.5071722269058228,0.9696238040924072
1761391612890752000,0.810751953125,0.6579835414886475,0.5460418462753296,0.7767255902290344
1761391612900818200,0.820818115234375,0.5830984115600586,0.5502187609672546,0.5810386538505554
1761391612910884000,0.830884033203125,0.5032484531402588,0.5444890856742859,0.43522176146507263
1761391612920951000,0.840950927734375,0.44027936458587646,0.6424846649169922,0.36481335759162903
1761391612931017200,0.851017333984375,0.414188027381897,0.7798764705657959,0.34200096130371094
1761391612941083100,0.861083251953125,0.403756707906723,0.8331024050712585,0.3421469032764435
1761391612951149300,0.8711494140625,0.41420382261276245,0.7952502369880676,0.3586958348751068
1761391612961215000,0.881215087890625,0.4548332691192627,0.7795319557189941,0.40927964448928833
1761391612971281200,0.89128125,0.499369353055954,0.7548208236694336,0.4412018656730652
1761391612981348000,0.90134814453125,0.5259916186332703,0.6750596761703491,0.4543149769306183
1761391612991414000,0.9114140625,0.5286940932273865,0.6209966540336609,0.44621574878692627
1761391613001480200,0.921480224609375,0.5217429995536804,0.5628899335861206,0.4069293439388275
1761391613011546000,0.931546142578125,0.5047130584716797,0.4712536931037903,0.34166496992111206
1761391613021612300,0.9416123046875,0.46695560216903687,0.4203167259693146,0.2679809033870697
1761391613031678200,0.95167822265625,0.42456451058387756,0.3872576951980591,0.2044956088066101
1761391613041745200,0.9617451171875,0.39956727623939514,0.4203738272190094,0.19048471748828888
1761391613051811300,0.971811279296875,0.380707323551178,0.4870336353778839,0.2036404311656952
1761391613061877000,0.981876953125,0.34478819370269775,0.5003255009651184,0.2060420662164688
1761391613071943200,0.991943115234375,0.31251367926597595,0.4841706454753876,0.2117687612771988
1761391613082009000,1.002009033203125,0.31453341245651245,0.5103849768638611,0.22564969956874847
1761391613092075000,1.012074951171875,0.313347190618515,0.5200384855270386,0.24160884320735931
1761391613102142200,1.02214208984375,0.3234027326107025,0.5509122610092163,0.27524828910827637
1761391613112208100,1.0322080078125,0.31499990820884705,0.5691909193992615,0.30354437232017517
1761391613122274000,1.042274169921875,0.24377578496932983,0.4883669316768646,0.28859207034111023
1761391613132340200,1.05234033203125,0.16323910653591156,0.17357003688812256,0.18765534460544586
1761391613142406100,1.06240625,0.10782857984304428,0.07178109884262085,0.05639985576272011
1761391613152472000,1.07247216796875,0.10049641132354736,0.24065344035625458,-0.07269777357578278
1761391613162539300,1.082539306640625,0.1303025186061859,0.573204517364502,-0.1488998681306839
1761391613172605000,1.09260498046875,0.14788156747817993,0.8509389758110046,-0.1602170318365097
1761391613182671000,1.102671142578125,0.19875194132328033,0.8903263211250305,-0.07644222676753998
1761391613192737000,1.112737060546875,0.2806167006492615,0.9058685898780823,0.06706343591213226
1761391613202803200,1.12280322265625,0.4334448575973511,0.801361620426178,0.24399159848690033
1761391613212870100,1.1328701171875,0.6433164477348328,0.5568060278892517,0.4803418517112732
1761391613222936000,1.14293603515625,0.7818974852561951,0.1961219161748886,0.6613805890083313
1761391613233002200,1.153002197265625,0.8383238911628723,-0.31280380487442017,0.7052005529403687
1761391613243068200,1.163068115234375,0.8782963156700134,-0.9341802597045898,0.5751094222068787
1761391613253134000,1.173134033203125,0.9501811265945435,-1.4307482242584229,0.3451835811138153
1761391613263200000,1.183199951171875,0.9864488840103149,-1.5198144912719727,0.11964873224496841
1761391613273267000,1.193266845703125,0.9143744111061096,-1.2885833978652954,-0.08686289191246033
1761391613283333000,1.2033330078125,0.7753512859344482,-0.9160963296890259,-0.24075765907764435
1761391613293399000,1.21339892578125,0.5623605251312256,-0.37400826811790466,-0.30661240220069885
1761391613303465200,1.22346533203125,0.34504789113998413,0.20969833433628082,-0.2764603793621063
1761391613313531100,1.23353125,0.18142835795879364,0.7367759943008423,-0.1816268116235733
1761391613323597300,1.243597412109375,0.08621901273727417,1.0880732536315918,-0.06851863116025925
1761391613333664300,1.253664306640625,0.08778103440999985,1.2151615619659424,0.015465864911675453
1761391613343730200,1.263730224609375,0.17066925764083862,1.1345429420471191,0.050017181783914566
1761391613353796400,1.27379638671875,0.3299351930618286,0.8925812244415283,0.04538233205676079
1761391613363862000,1.283862060546875,0.5259560942649841,0.5375059247016907,0.026194792240858078
1761391613373928200,1.29392822265625,0.7295490503311157,0.18106402456760406,0.005275228526443243
1761391613383994000,1.303994140625,0.8891528248786926,-0.13149362802505493,0.025659862905740738
1761391613394061000,1.31406103515625,0.9878618121147156,-0.3413469195365906,0.07603514194488525
1761391613404127200,1.324127197265625,1.0283764600753784,-0.4070553481578827,0.1252780556678772
1761391613414194000,1.33419384765625,1.016830563545227,-0.38955622911453247,0.1450853943824768
1761391613424259800,1.344259765625,0.9552767276763916,-0.34735310077667236,0.12849870324134827
1761391613434326000,1.354325927734375,0.8711820244789124,-0.31105831265449524,0.06303247064352036
1761391613444392000,1.364391845703125,0.7792001366615295,-0.28809627890586853,-0.04078873619437218
1761391613454459000,1.374458984375,0.685207188129425,-0.2863278090953827,-0.19040927290916443
1761391613464525000,1.384525146484375,0.6091030836105347,-0.2844686508178711,-0.37058329582214355
1761391613474590700,1.3945908203125,0.5504571199417114,-0.24632641673088074,-0.5427404642105103
1761391613484657000,1.404656982421875,0.5059053301811218,-0.19006340205669403,-0.7034553289413452
1761391613494722800,1.414722900390625,0.4663959741592407,-0.13138459622859955,-0.8645127415657043
1761391613504789000,1.4247890625,0.4449865520000458,-0.17284761369228363,-1.029354453086853
1761391613514856000,1.43485595703125,0.4327686131000519,-0.2935422956943512,-1.1358550786972046
1761391613524921900,1.444921875,0.43900439143180847,-0.31128907203674316,-1.169604778289795
1761391613534988000,1.454988037109375,0.454045832157135,-0.2573680877685547,-1.14662766456604
1761391613545054000,1.465053955078125,0.4620898962020874,-0.2020486295223236,-1.100690245628357
1761391613555119900,1.475119873046875,0.4660925269126892,-0.2020091414451599,-0.9971116781234741
1761391613565185800,1.485185791015625,0.4751182496547699,-0.09120620787143707,-0.8373838067054749
1761391613575252700,1.495252685546875,0.5150238871574402,0.15139764547348022,-0.6293685436248779
1761391613585319000,1.50531884765625,0.5745518207550049,0.31307253241539,-0.427068829536438
1761391613595384800,1.515384765625,0.6343209743499756,0.3372945487499237,-0.2528875470161438
1761391613605450800,1.52545068359375,0.7058545351028442,0.301228404045105,-0.11352485418319702
1761391613615517000,1.535516845703125,0.7705137133598328,0.23918749392032623,-0.02414405718445778
1761391613625582800,1.545582763671875,0.796036422252655,0.12109839916229248,-0.020766636356711388
1761391613635649800,1.55564990234375,0.8062210083007812,-0.04215854033827782,-0.0655180811882019
1761391613645716000,1.565716064453125,0.8066253066062927,-0.2446485310792923,-0.16280627250671387
1761391613655782000,1.575781982421875,0.7961983680725098,-0.4914138913154602,-0.267522394657135
1761391613665847800,1.585847900390625,0.7838671207427979,-0.65193110704422,-0.32880812883377075
1761391613675913700,1.595913818359375,0.7710350155830383,-0.7051706314086914,-0.32875409722328186
1761391613685980000,1.60597998046875,0.7540410757064819,-0.7129318714141846,-0.29980233311653137
1761391613696046800,1.616046875,0.7286345362663269,-0.702660858631134,-0.2723618745803833
1761391613706112800,1.62611279296875,0.6905521154403687,-0.7272064089775085,-0.25124382972717285
1761391613716179000,1.636178955078125,0.6516422033309937,-0.6669561862945557,-0.21484443545341492
1761391613726244900,1.646244873046875,0.6188624501228333,-0.563596248626709,-0.1530607044696808
1761391613736311000,1.65631103515625,0.5953989624977112,-0.3862069547176361,-0.062164057046175
1761391613746377000,1.666376953125,0.601015031337738,-0.13668501377105713,0.047791738063097
1761391613756444000,1.67644384765625,0.652168869972229,0.04492439702153206,0.14560937881469727
1761391613766509800,1.686509765625,0.7303121089935303,0.007885684259235859,0.20649324357509613
1761391613776575700,1.69657568359375,0.7815812826156616,-0.18205395340919495,0.22083325684070587
1761391613786642000,1.706641845703125,0.7840005159378052,-0.4072854518890381,0.1981804072856903
1761391613796707800,1.716707763671875,0.744972288608551,-0.5460432767868042,0.1599874198436737
1761391613806774000,1.72677392578125,0.6642279028892517,-0.5777814984321594,0.11658694595098495
1761391613816841000,1.736841064453125,0.54632568359375,-0.48307180404663086,0.0706181675195694
1761391613826907000,1.746906982421875,0.4278847873210907,-0.24304907023906708,0.0403611958026886
1761391613836973000,1.75697314453125,0.3216313421726227,0.06845103949308395,0.05159156024456024
1761391613847039000,1.7670390625,0.25033557415008545,0.3876141309738159,0.09002843499183655
1761391613857105000,1.77710498046875,0.22478558123111725,0.5994396209716797,0.12317512929439545
1761391613867170800,1.7871708984375,0.2527919411659241,0.6208099126815796,0.13757243752479553
1761391613877237800,1.79723779296875,0.3363308012485504,0.4729648530483246,0.12618961930274963
1761391613887304000,1.807303955078125,0.46119922399520874,0.20826289057731628,0.08297610282897949
1761391613897369900,1.817369873046875,0.6193926930427551,-0.05755816027522087,0.024914830923080444
1761391613907435800,1.827435791015625,0.7798539996147156,-0.22033534944057465,-0.052408453077077866
1761391613917502000,1.837501953125,0.9086271524429321,-0.2844562530517578,-0.12904448807239532
1761391613927568000,1.84756787109375,0.9987117648124695,-0.20046228170394897,-0.19643017649650574
1761391613937635000,1.857635009765625,1.0653431415557861,-0.021000120788812637,-0.22372284531593323
1761391613947701000,1.867700927734375,1.129982590675354,0.24667686223983765,-0.17599980533123016
1761391613957766700,1.8777666015625,1.19875967502594,0.5874164700508118,-0.06057896092534065
1761391613967832800,1.887832763671875,1.2601064443588257,0.7679439187049866,0.10008901357650757
1761391613977898800,1.897898681640625,1.3158538341522217,0.742654025554657,0.27675387263298035
1761391613987965000,1.90796484375,1.348764181137085,0.6339645981788635,0.41892141103744507
1761391613998032000,1.918031982421875,1.3252229690551758,0.46570831537246704,0.5144214034080505
1761391614008097800,1.928097900390625,1.2853000164031982,0.2644766867160797,0.5688753128051758
1761391614018164000,1.9381640625,1.2369933128356934,0.09399496018886566,0.5863518714904785
1761391614028230000,1.94822998046875,1.1997601985931396,-0.0036935200914740562,0.5775296092033386
1761391614038296000,1.958296142578125,1.183867335319519,-0.020699284970760345,0.5388706922531128
1761391614048361700,1.96836181640625,1.1870874166488647,0.006675880402326584,0.48479655385017395
1761391614058428700,1.9784287109375,1.191892385482788,0.07233908772468567,0.4155828058719635
1761391614068494800,1.988494873046875,1.1820093393325806,0.15926653146743774,0.320652037858963
1761391614078560800,1.998560791015625,1.1767578125,0.26091268658638,0.22854560613632202
1761391614088627000,2.008626953125,1.180277705192566,0.39340096712112427,0.15539894998073578
1761391614098692900,2.01869287109375,1.192347526550293,0.5850865244865417,0.108662910759449
1761391614108759000,2.028759033203125,1.2211802005767822,0.7505865693092346,0.0663042739033699
1761391614118826000,2.038825927734375,1.264717936515808,0.8451411724090576,0.012942682951688766
1761391614128892000,2.048891845703125,1.3146564960479736,0.8350869417190552,-0.04769536480307579
1761391614138958000,2.0589580078125,1.3569371700286865,0.7151692509651184,-0.10398241132497787
1761391614149023700,2.069023681640625,1.3935282230377197,0.535812258720398,-0.10805225372314453
1761391614159090000,2.07908984375,1.4384889602661133,0.42082449793815613,-0.041206732392311096
1761391614169155800,2.08915576171875,1.4743866920471191,0.4267910420894623,0.0921878069639206
1761391614179222800,2.099222900390625,1.5024365186691284,0.5207840800285339,0.2483772337436676
1761391614189289000,2.1092890625,1.524641752243042,0.622708261013031,0.39214852452278137
1761391614199355000,2.11935498046875,1.5872337818145752,0.6933560371398926,0.49618083238601685
1761391614209420800,2.1294208984375,1.6909804344177246,0.8193573355674744,0.5719634294509888
1761391614219487000,2.139487060546875,1.8142614364624023,0.9743791818618774,0.5841543078422546
1761391614229554000,2.149553955078125,1.920922040939331,1.0356312990188599,0.5068872570991516
1761391614239620000,2.1596201171875,1.9975101947784424,1.0226664543151855,0.3587562143802643
1761391614249685800,2.169685791015625,2.019885540008545,0.9877499938011169,0.20763860642910004
1761391614259751700,2.179751708984375,1.9725631475448608,0.9967716932296753,0.09554323554039001
1761391614269817900,2.18981787109375,1.8577485084533691,0.8394957780838013,0.02697109803557396
1761391614279883800,2.1998837890625,1.7153747081756592,0.7676771283149719,0.01578623428940773
1761391614289950700,2.20995068359375,1.5856863260269165,0.7584114670753479,0.05257008224725723
1761391614300017000,2.220016845703125,1.4881912469863892,0.7196720242500305,0.12251676619052887
1761391614310082800,2.230082763671875,1.4557446241378784,0.6601167917251587,0.21246662735939026
1761391614320149000,2.24014892578125,1.4977004528045654,0.5837516784667969,0.2802482545375824
1761391614330215000,2.25021484375,1.5489848852157593,0.45639026165008545,0.3170890808105469
1761391614340280800,2.26028076171875,1.600853681564331,0.3048779368400574,0.3117641806602478
1761391614350347800,2.27034765625,1.6710619926452637,0.11914373934268951,0.2879328727722168
1761391614360413700,2.28041357421875,1.757659912109375,0.033639464527368546,0.26948443055152893
1761391614370479900,2.29047998046875,1.862042784690857,-0.03744403272867203,0.25791406631469727
1761391614380545800,2.3005458984375,1.9442129135131836,-0.15451031923294067,0.25377941131591797
1761391614390612000,2.310612060546875,1.9864778518676758,-0.17133083939552307,0.24733960628509521
1761391614400678000,2.320677978515625,2.008554458618164,-0.07093026489019394,0.2757206857204437
1761391614410744800,2.330744873046875,2.0298328399658203,0.19613099098205566,0.3594089150428772
1761391614420810800,2.340810791015625,2.0550386905670166,0.6264581084251404,0.48715031147003174
1761391614430876700,2.350876708984375,2.0680649280548096,1.0952144861221313,0.6278368234634399
1761391614440942800,2.36094287109375,2.0654170513153076,1.5147172212600708,0.736262321472168
1761391614451008800,2.3710087890625,2.0531482696533203,1.7882329225540161,0.7715559005737305
1761391614461075000,2.381074951171875,2.04811692237854,1.8377444744110107,0.7242067456245422
1761391614471142000,2.391141845703125,2.076716661453247,1.6537230014801025,0.5950788855552673
1761391614481207800,2.401207763671875,2.1410906314849854,1.2855347394943237,0.4075320363044739
1761391614491274000,2.41127392578125,2.235701084136963,0.8565613031387329,0.18432985246181488
1761391614501339600,2.421339599609375,2.345457077026367,0.4120074510574341,-0.028894072398543358
1761391614511405800,2.43140576171875,2.435922861099243,0.08126204460859299,-0.20061816275119781
1761391614521471700,2.4414716796875,2.462916612625122,-0.10421988368034363,-0.3122704327106476
1761391614531538700,2.45153857421875,2.439117193222046,-0.18125155568122864,-0.3753330111503601
1761391614541604900,2.46160498046875,2.365558385848999,-0.0952652096748352,-0.3990197777748108
1761391614551670800,2.4716708984375,2.2613658905029297,0.13582873344421387,-0.3832900822162628
1761391614561736700,2.48173681640625,2.135925769805908,0.456396222114563,-0.34653663635253906
1761391614571803000,2.491802978515625,2.00997257232666,0.7615625262260437,-0.29404574632644653
1761391614581868800,2.501868896484375,1.910841703414917,1.005535364151001,-0.24501466751098633
1761391614591936000,2.51193603515625,1.8590583801269531,1.1812424659729004,-0.20541027188301086
1761391614602002000,2.522001953125,1.85359787940979,1.2667917013168335,-0.18332619965076447
1761391614612067600,2.532067626953125,1.8832119703292847,1.262731671333313,-0.185735821723938
1761391614622133800,2.5421337890625,1.936297059059143,1.161475658416748,-0.20341096818447113
1761391614632199700,2.55219970703125,1.996302843093872,1.0304425954818726,-0.2019699215888977
1761391614642265900,2.562265869140625,2.0543315410614014,0.9264872670173645,-0.1832577884197235
1761391614652332800,2.572332763671875,2.0967493057250977,0.8335059285163879,-0.15584561228752136
1761391614662398700,2.582398681640625,2.1144418716430664,0.8069488406181335,-0.1233944371342659
1761391614672465000,2.59246484375,2.117274761199951,0.8341272473335266,-0.10378798097372055
1761391614682530800,2.60253076171875,2.1090087890625,0.8505513668060303,-0.10399392992258072
1761391614692596700,2.6125966796875,2.0980448722839355,0.8445435762405396,-0.13973940908908844
1761391614702662700,2.62266259765625,2.0885183811187744,0.8353930711746216,-0.1876700073480606
1761391614712729600,2.6327294921875,2.0777957439422607,0.7795902490615845,-0.24325791001319885
1761391614722795800,2.642795654296875,2.0683977603912354,0.7548590302467346,-0.275688499212265
1761391614732861700,2.65286181640625,2.036799669265747,0.7668421864509583,-0.2810036242008209
1761391614742928000,2.662927978515625,1.9692729711532593,0.734889030456543,-0.2738722562789917
1761391614752993800,2.672993896484375,1.886291265487671,0.6835728883743286,-0.23878590762615204
1761391614763060000,2.68306005859375,1.7971059083938599,0.6950995326042175,-0.17606547474861145
1761391614773127000,2.693126953125,1.7286075353622437,0.727128267288208,-0.1060326099395752
1761391614783192800,2.70319287109375,1.677733302116394,0.8119991421699524,-0.015789028257131577
1761391614793259000,2.713259033203125,1.6333922147750854,0.9038832783699036,0.07420584559440613
1761391614803324700,2.72332470703125,1.5858492851257324,0.9382428526878357,0.14610496163368225
1761391614813390800,2.733390869140625,1.531326174736023,0.92088383436203,0.18934564292430878
1761391614823456800,2.743456787109375,1.4752082824707031,0.8521842956542969,0.20909281075000763
1761391614833523700,2.753523681640625,1.420509696006775,0.7654531598091125,0.2290811538696289
1761391614843590000,2.76358984375,1.3600281476974487,0.7521665096282959,0.2625587582588196
1761391614853655800,2.77365576171875,1.2714977264404297,0.7639052271842957,0.32994842529296875
1761391614863721700,2.7837216796875,1.1714293956756592,0.7894273400306702,0.4099753499031067
1761391614873788000,2.793787841796875,1.07962965965271,0.8079480528831482,0.49928018450737
1761391614883853600,2.803853515625,1.0237740278244019,0.8878227472305298,0.5925325751304626
1761391614893921000,2.813921142578125,1.022114872932434,1.0380399227142334,0.6791478991508484
1761391614903986700,2.823986572265625,1.066686749458313,1.1019415855407715,0.7463790774345398
1761391614914052600,2.834052490234375,1.0938315391540527,1.0409823656082153,0.7698093056678772
1761391614924118800,2.844118896484375,1.1123225688934326,0.7985157370567322,0.690123975276947
1761391614934184700,2.854184814453125,1.1017805337905884,0.45317134261131287,0.5347266793251038
1761391614944251000,2.8642509765625,1.0287941694259644,0.277252733707428,0.34058207273483276
1761391614954317800,2.87431787109375,0.924831211566925,0.049808382987976074,0.15035675466060638
1761391614964383700,2.8843837890625,0.813404381275177,-0.10228279232978821,0.008435500785708427
1761391614974450000,2.894449951171875,0.7096812129020691,-0.13430596888065338,-0.052894167602062225
1761391614984515800,2.904515869140625,0.6269214153289795,-0.04758428782224655,-0.04685836657881737
1761391614994581800,2.914581787109375,0.5543124675750732,0.18286995589733124,-0.010159742087125778
1761391615004647700,2.924647705078125,0.5329504609107971,0.379947304725647,-0.036427728831768036
1761391615014714600,2.934714599609375,0.5368197560310364,0.6569701433181763,-0.0942864939570427
1761391615024780800,2.94478076171875,0.5325508117675781,0.9468511939048767,-0.13729044795036316
1761391615034846700,2.9548466796875,0.43413710594177246,1.170698642730713,-0.15414665639400482
1761391615044913000,2.964912841796875,0.3260587751865387,1.2886120080947876,-0.11211468279361725
1761391615054978800,2.974978759765625,0.30053213238716125,1.1897763013839722,-0.03527716174721718
1761391615065045800,2.985045654296875,0.3037007749080658,0.8953555226325989,0.03965441882610321
1761391615075112000,2.99511181640625,0.27282407879829407,0.4820537567138672,0.07122193276882172
1761391615085177900,3.005177734375,0.2305046021938324,-0.006967051886022091,0.04259870573878288
1761391615095243800,3.015243896484375,0.20426873862743378,-0.4265848398208618,0.004483278375118971
1761391615105309700,3.025309814453125,0.23491762578487396,-0.7023736238479614,-0.02289767749607563
1761391615115375900,3.0353759765625,0.29825106263160706,-0.8352823853492737,-0.022736821323633194
1761391615125442800,3.04544287109375,0.3765573799610138,-0.9260988235473633,-0.04751500114798546
1761391615135508700,3.0555087890625,0.4988614618778229,-1.0439472198486328,-0.16006417572498322
1761391615145575000,3.065574951171875,0.6863270998001099,-1.0734219551086426,-0.35198521614074707
1761391615155640800,3.075640869140625,0.9259540438652039,-0.9373298287391663,-0.5724275708198547
1761391615165706800,3.085706787109375,1.1813008785247803,-0.6041947603225708,-0.7287766933441162
1761391615175773000,3.09577294921875,1.4227532148361206,-0.14299410581588745,-0.7742466926574707
1761391615185839900,3.10583984375,1.5950745344161987,0.24996459484100342,-0.6982789635658264
1761391615195905800,3.11590576171875,1.6041830778121948,0.6012219786643982,-0.6335500478744507
1761391615205971700,3.1259716796875,1.5014127492904663,0.859974205493927,-0.6460023522377014
1761391615216037600,3.13603759765625,1.3548011779785156,0.9700714349746704,-0.7722223401069641
1761391615226103800,3.146103759765625,1.3052841424942017,0.7652243375778198,-1.0014833211898804
1761391615236169700,3.156169677734375,1.3335410356521606,0.5487908720970154,-1.2600727081298828
1761391615246237000,3.16623681640625,1.3559343814849854,0.44327741861343384,-1.4421504735946655
1761391615256302800,3.176302734375,1.398707389831543,0.42546406388282776,-1.5084048509597778
1761391615266368800,3.18636865234375,1.484619379043579,0.3697122037410736,-1.5422825813293457
1761391615276435000,3.19643505859375,1.6119714975357056,0.21941566467285156,-1.597166895866394
1761391615286500600,3.20650048828125,1.7221654653549194,0.14739567041397095,-1.6250300407409668
1761391615296566800,3.21656689453125,1.6650880575180054,0.31460997462272644,-1.6557581424713135
1761391615306633700,3.2266337890625,1.520707607269287,0.41350656747817993,-1.4796409606933594
1761391615316699600,3.23669970703125,1.4004613161087036,0.3615182042121887,-1.3225200176239014
1761391615326765800,3.246765869140625,1.3231865167617798,0.3053357005119324,-1.1884421110153198
1761391615336831700,3.256831787109375,1.2703922986984253,0.31626051664352417,-1.078603744506836
1761391615346898000,3.26689794921875,1.2724000215530396,0.2407870590686798,-0.98979651927948
1761391615356963800,3.2769638671875,1.2823693752288818,0.12312141060829163,-0.8355838060379028
1761391615367030800,3.28703076171875,1.300135850906372,0.1634041965007782,-0.5823272466659546
1761391615377097000,3.297096923828125,1.362032413482666,0.2624572813510895,-0.24720676243305206
1761391615387162600,3.30716259765625,1.4741084575653076,0.3243085443973541,0.11375731229782104
1761391615397228800,3.317228759765625,1.5517760515213013,0.33727094531059265,0.3796800673007965
1761391615407294700,3.327294677734375,1.5867605209350586,0.23722195625305176,0.46663329005241394
1761391615417361000,3.33736083984375,1.5997825860977173,0.09486774355173111,0.41159000992774963
1761391615427428000,3.347427978515625,1.5886170864105225,0.00005391240119934082,0.29195597767829895
1761391615437494000,3.357493896484375,1.5505259037017822,-0.05381118133664131,0.14134304225444794
1761391615447560200,3.367560302734375,1.5096971988677979,-0.1221398413181305,-0.006611543707549572
1761391615457626000,3.377626220703125,1.4494216442108154,-0.2103637158870697,-0.1342022567987442
1761391615467692000,3.387692138671875,1.3912131786346436,-0.23862989246845245,-0.18799613416194916
1761391615477758200,3.39775830078125,1.342610239982605,-0.1888388991355896,-0.1555122286081314
1761391615487825200,3.4078251953125,1.2998393774032593,-0.11906246095895767,-0.017665328457951546
1761391615497891000,3.41789111328125,1.221266508102417,0.010418029502034187,0.20686843991279602
1761391615507957200,3.427957275390625,1.13642418384552,0.21689486503601074,0.4808126389980316
1761391615518023000,3.43802294921875,1.0931637287139893,0.4609091281890869,0.7541946768760681
1761391615528089000,3.448089111328125,1.0774568319320679,0.6344996690750122,0.9299523830413818
1761391615538155000,3.458155029296875,1.0905747413635254,0.6803406476974487,0.8991159200668335
1761391615548222000,3.468221923828125,1.1243901252746582,0.6483953595161438,0.6856350898742676
1761391615558288100,3.4782880859375,1.150195598602295,0.6145484447479248,0.3766130805015564
1761391615568354000,3.48835400390625,1.1477339267730713,0.5973103642463684,0.08373699337244034
1761391615578420200,3.498420166015625,1.1542243957519531,0.5055854916572571,-0.11179974675178528
1761391615588486100,3.508486083984375,1.152599811553955,0.39770978689193726,-0.11093577742576599
1761391615598552300,3.51855224609375,1.1100400686264038,0.40292423963546753,0.07301913946866989
1761391615608619300,3.528619384765625,1.0190796852111816,0.6044676303863525,0.3741409480571747
1761391615618685000,3.538684814453125,0.8902551531791687,0.9020633697509766,0.7111599445343018
1761391615628751000,3.548751220703125,0.7462260127067566,1.1413482427597046,0.9983294606208801
1761391615638817000,3.558817138671875,0.6229144334793091,1.2061691284179688,1.1631172895431519
1761391615648883200,3.56888330078125,0.5671525001525879,1.1631511449813843,1.2354432344436646
1761391615658950100,3.5789501953125,0.5871073007583618,1.0791000127792358,1.2370929718017578
1761391615669016000,3.58901611328125,0.6238200664520264,0.8908173441886902,1.1545867919921875
1761391615679082200,3.599082275390625,0.6558192372322083,0.6219260096549988,0.9799550771713257
1761391615689148200,3.609148193359375,0.723457932472229,0.4179493486881256,0.7750599384307861
1761391615699214300,3.61921435546875,0.8058798313140869,0.29776594042778015,0.5849875211715698
1761391615709280000,3.629280029296875,0.8835363388061523,0.14624440670013428,0.3986338973045349
1761391615719347200,3.63934716796875,0.9597684741020203,-0.0279228612780571,0.2499362975358963
1761391615729413000,3.6494130859375,0.9590564966201782,-0.20793721079826355,0.11464796960353851
1761391615739479000,3.65947900390625,0.8952460885047913,-0.38470906019210815,0.007289555389434099
1761391615749545200,3.669545166015625,0.8228474259376526,-0.46279338002204895,-0.05315568298101425
1761391615759611100,3.679611083984375,0.7732172608375549,-0.4142029583454132,-0.06734553724527359
1761391615769677000,3.689677001953125,0.7380856871604919,-0.30549633502960205,-0.06277699768543243
1761391615779744300,3.699744140625,0.7241461277008057,-0.17970776557922363,-0.0595010444521904
1761391615789810200,3.70981005859375,0.7163665890693665,0.007160576060414314,-0.0585380382835865
1761391615799876000,3.7198759765625,0.7244915962219238,0.22048190236091614,-0.08112723380327225
1761391615809942000,3.72994189453125,0.7361579537391663,0.4430573582649231,-0.11920404434204102
1761391615820008000,3.740008056640625,0.7520503401756287,0.6156454086303711,-0.15292419493198395
1761391615830074000,3.75007421875,0.7842634916305542,0.6805102229118347,-0.1780327707529068
1761391615840141000,3.76014111328125,0.8312224745750427,0.6534863114356995,-0.1960432082414627
1761391615850207000,3.77020703125,0.8678279519081116,0.5939885973930359,-0.2073511928319931
1761391615860273200,3.780273193359375,0.8750174641609192,0.5228393077850342,-0.21535958349704742
1761391615870339000,3.790339111328125,0.8637444972991943,0.4369361996650696,-0.23435404896736145
1761391615880405200,3.8004052734375,0.8204817175865173,0.37282246351242065,-0.26343417167663574
1761391615890471200,3.81047119140625,0.7473121881484985,0.3378237783908844,-0.29915890097618103
1761391615900538000,3.8205380859375,0.666056215763092,0.33084550499916077,-0.329902708530426
1761391615910604300,3.830604248046875,0.597985029220581,0.3299138844013214,-0.37414032220840454
1761391615920670000,3.840669921875,0.534103274345398,0.3386232256889343,-0.42474624514579773
1761391615930736000,3.850736083984375,0.47188806533813477,0.3455066978931427,-0.4639498293399811
1761391615940802000,3.860802001953125,0.39770224690437317,0.328970342874527,-0.49293938279151917
1761391615950868200,3.8708681640625,0.30932530760765076,0.3027123808860779,-0.5268628597259521
1761391615960935200,3.88093505859375,0.23716403543949127,0.2783346176147461,-0.5877406001091003
1761391615971001000,3.8910009765625,0.17701579630374908,0.2375744879245758,-0.6897565722465515
1761391615981067300,3.9010673828125,0.1361549198627472,0.19650642573833466,-0.7997070550918579
1761391615991133200,3.91113330078125,0.10247499495744705,0.17311856150627136,-0.8738325834274292
1761391616001199000,3.92119921875,0.059202890843153,0.1181623637676239,-0.8915934562683105
1761391616011265000,3.93126513671875,0.03549232333898544,0.029038146138191223,-0.8356446623802185
1761391616021332000,3.94133203125,0.04120746999979019,-0.10965342819690704,-0.7092049717903137
1761391616031398100,3.951398193359375,0.06454852223396301,-0.27248260378837585,-0.523857831954956
1761391616041464000,3.961464111328125,0.09027545899152756,-0.41578036546707153,-0.3337579369544983
1761391616051530200,3.9715302734375,0.10098670423030853,-0.5353317856788635,-0.16929888725280762
1761391616061596200,3.98159619140625,0.07657457143068314,-0.6418052315711975,-0.050847336649894714
1761391616071662000,3.991662109375,0.025263307616114616,-0.7414631247520447,-0.00556687917560339
1761391616081729300,4.001729248046875,-0.023301564157009125,-0.833643913269043,-0.027153130620718002
1761391616091795200,4.011795166015625,-0.06310436874628067,-0.9064459204673767,-0.09642994403839111
1761391616101861000,4.021861083984375,-0.09717845171689987,-0.9664581418037415,-0.18175655603408813
1761391616111927000,4.031927001953125,-0.1361653357744217,-0.9857361316680908,-0.24121512472629547
1761391616121993000,4.041992919921875,-0.19038596749305725,-0.9664074182510376,-0.2900678813457489
1761391616132059100,4.05205908203125,-0.22814814746379852,-0.9220566749572754,-0.31280896067619324
1761391616142126000,4.0621259765625,-0.2309495210647583,-0.9071200489997864,-0.2935532331466675
1761391616152192000,4.07219189453125,-0.23350562155246735,-0.8724262714385986,-0.2401808202266693
1761391616162258200,4.082258056640625,-0.24382835626602173,-0.8931469917297363,-0.1605353206396103
1761391616172324000,4.092323974609375,-0.2577112913131714,-1.0101016759872437,-0.04188324883580208
1761391616182390300,4.102390380859375,-0.3436141908168793,-1.1217269897460938,0.08177638053894043
1761391616192456000,4.1124560546875,-0.53355473279953,-1.245102047920227,0.16850392520427704
1761391616202523100,4.122523193359375,-0.7613937258720398,-1.3392972946166992,0.2310384064912796
1761391616212589000,4.132589111328125,-0.9568951725959778,-1.341804027557373,0.25812938809394836
1761391616222655000,4.142655029296875,-1.0990650653839111,-1.1778744459152222,0.2525220811367035
1761391616232721200,4.15272119140625,-1.1809147596359253,-0.8789122104644775,0.1918870061635971
1761391616242787000,4.162787109375,-1.1791813373565674,-0.5638224482536316,0.11712861061096191
1761391616252853200,4.172853271484375,-1.080931544303894,-0.19758930802345276,0.07148125022649765
1761391616262920200,4.182920166015625,-0.9410378336906433,0.2529304325580597,0.06495118141174316
1761391616272986000,4.192986083984375,-0.7956968545913696,0.5808269381523132,0.07397979497909546
1761391616283052300,4.20305224609375,-0.6222826838493347,0.6699666976928711,0.08102439343929291
1761391616293118200,4.2131181640625,-0.44489702582359314,0.5761266946792603,0.10002516210079193
1761391616303184100,4.22318408203125,-0.28130754828453064,0.3741246163845062,0.1294160634279251
1761391616313250000,4.23325,-0.1383175551891327,0.09933681041002274,0.1766364425420761
1761391616323317000,4.24331689453125,-0.0315125435590744,-0.17650143802165985,0.23928171396255493
1761391616333383200,4.253383056640625,-0.0032315971329808235,-0.38148513436317444,0.29517778754234314
1761391616343449000,4.263448974609375,-0.08538158982992172,-0.5361368060112,0.28569135069847107
1761391616353515300,4.273515380859375,-0.22515545785427094,-0.5964528322219849,0.22307997941970825
1761391616363581200,4.283581298828125,-0.34976503252983093,-0.5256547927856445,0.14139710366725922
1761391616373647000,4.293647216796875,-0.4498859941959381,-0.33580127358436584,0.0600055493414402
1761391616383714300,4.30371435546875,-0.49796801805496216,-0.11184513568878174,-0.020777981728315353
1761391616393780200,4.3137802734375,-0.47808152437210083,0.11063334345817566,-0.07570577412843704
1761391616403846100,4.32384619140625,-0.40570321679115295,0.31204503774642944,-0.10209503769874573
1761391616413912000,4.333912109375,-0.3030042350292206,0.4634263515472412,-0.10687623172998428
1761391616423977700,4.343977783203125,-0.1863122433423996,0.5466695427894592,-0.08725699037313461
1761391616434043600,4.354043701171875,-0.057304807007312775,0.5598921775817871,-0.05155381187796593
1761391616444110600,4.364110595703125,0.06182318180799484,0.5193772315979004,-0.009442310780286789
1761391616454176500,4.374176513671875,0.1655496060848236,0.4297259449958801,0.04375811666250229
1761391616464242400,4.384242431640625,0.2522325813770294,0.30462366342544556,0.11977778375148773
1761391616474308600,4.39430859375,0.31594613194465637,0.17115196585655212,0.19487497210502625
1761391616484374500,4.40437451171875,0.35205647349357605,0.016253458335995674,0.2397439032793045
1761391616494440400,4.4144404296875,0.37409573793411255,-0.12098828703165054,0.2577194273471832
1761391616504507600,4.424507568359375,0.3772987127304077,-0.17933520674705505,0.2407204806804657
1761391616514573600,4.434573486328125,0.3525378704071045,-0.19424566626548767,0.1728946566581726
1761391616524639500,4.444639404296875,0.3096977174282074,-0.18138419091701508,0.0687677338719368
1761391616534705700,4.45470556640625,0.2466859519481659,-0.12022282183170319,-0.061309292912483215
1761391616544771300,4.464771240234375,0.17150595784187317,-0.04508759081363678,-0.20570562779903412
1761391616554837500,4.47483740234375,0.09060975909233093,0.021377399563789368,-0.33235540986061096
1761391616564904400,4.484904541015625,0.008907971903681755,0.07218359410762787,-0.4358977973461151
1761391616574970400,4.494970458984375,-0.05938465893268585,0.08339617401361465,-0.4963199496269226
1761391616585036500,4.50503662109375,-0.11487801373004913,0.059273526072502136,-0.47833481431007385
1761391616595102500,4.5151025390625,-0.15400384366512299,0.04639502987265587,-0.38237571716308594
1761391616605168600,4.525168701171875,-0.16681523621082306,0.0031346408650279045,-0.24216614663600922
1761391616615234600,4.535234619140625,-0.1488342136144638,-0.0542733296751976,-0.07432879507541656
1761391616625301500,4.545301513671875,-0.1243823915719986,-0.08836552500724792,0.09253209829330444
1761391616635367700,4.55536767578125,-0.11212871968746185,-0.06927172839641571,0.2317706197500229
1761391616645433300,4.565433349609375,-0.12271852046251297,0.014103585854172707,0.31079432368278503
1761391616655499500,4.57549951171875,-0.14038218557834625,0.11912737786769867,0.31713250279426575
1761391616665565400,4.5855654296875,-0.14727044105529785,0.22318561375141144,0.2700653672218323
1761391616675632400,4.59563232421875,-0.1471341848373413,0.2924485206604004,0.1831025779247284
1761391616685698600,4.605698486328125,-0.13119809329509735,0.31234419345855713,0.10009290277957916
1761391616695764500,4.615764404296875,-0.08408588171005249,0.31746870279312134,0.03916540741920471
1761391616705830700,4.62583056640625,-0.018586503341794014,0.316226601600647,-0.001023558434098959
1761391616715896600,4.635896484375,0.07061702758073807,0.30594831705093384,-0.023843131959438324
1761391616725962800,4.645962646484375,0.18179281055927277,0.31537190079689026,0.0020965891890227795
1761391616736028400,4.6560283203125,0.32515138387680054,0.37291839718818665,0.07372687011957169
1761391616746095600,4.666095703125,0.5111708045005798,0.4447840750217438,0.2019873708486557
1761391616756161500,4.67616162109375,0.7145169973373413,0.5802140831947327,0.3737531900405884
1761391616766227500,4.6862275390625,0.8697472810745239,0.6622775197029114,0.540789008140564
1761391616776293600,4.696293701171875,0.9654500484466553,0.49827030301094055,0.6188337206840515
1761391616786359600,4.706359619140625,1.0042104721069336,0.17559640109539032,0.5775715112686157
1761391616796425500,4.716425537109375,0.9717473387718201,-0.18381376564502716,0.45409882068634033
1761391616806492700,4.72649267578125,0.8441787362098694,-0.42347800731658936,0.2970135807991028
1761391616816558600,4.73655859375,0.6147757768630981,-0.4856506288051605,0.1759696751832962
1761391616826624500,4.74662451171875,0.3179835081100464,-0.4454965591430664,0.13120485842227936
1761391616836690400,4.7566904296875,0.030307041481137276,-0.30449438095092773,0.15249840915203094
1761391616846756400,4.76675634765625,-0.21044884622097015,-0.048508137464523315,0.21061711013317108
1761391616856823600,4.776823486328125,-0.36232882738113403,0.2841162383556366,0.27210357785224915
1761391616866889500,4.786889404296875,-0.4210195541381836,0.6753055453300476,0.33278265595436096
1761391616876955400,4.796955322265625,-0.37356114387512207,1.0966726541519165,0.40525615215301514
1761391616887021600,4.807021484375,-0.23651862144470215,1.431909441947937,0.4498944580554962
1761391616897087500,4.81708740234375,-0.044048912823200226,1.612133502960205,0.4372207522392273
1761391616907153700,4.827153564453125,0.17929202318191528,1.6050047874450684,0.36623284220695496
1761391616917220600,4.837220703125,0.4217112064361572,1.3977508544921875,0.24544139206409454
1761391616927286500,4.84728662109375,0.7052070498466492,1.0867830514907837,0.1345319300889969
1761391616937352700,4.857352783203125,0.9998471736907959,0.7074563503265381,0.058929938822984695
1761391616947418400,4.86741845703125,1.2318809032440186,0.25811851024627686,0.022644368931651115
1761391616957484500,4.877484619140625,1.3405808210372925,-0.1671658456325531,0.03444753214716911
1761391616967550500,4.887550537109375,1.336782693862915,-0.5210980772972107,0.06445230543613434
1761391616977617400,4.897617431640625,1.2627606391906738,-0.8101195693016052,0.07979188859462738
1761391616987683600,4.90768359375,1.1388567686080933,-0.9540847539901733,0.0580756776034832
1761391616997749500,4.91774951171875,0.9817661643028259,-0.9277107119560242,-0.03364713117480278
1761391617007815700,4.927815673828125,0.8239283561706543,-0.8145045042037964,-0.13751015067100525
1761391617017881600,4.937881591796875,0.6895223259925842,-0.6206650733947754,-0.21662099659442902
1761391617027947500,4.947947509765625,0.5822209119796753,-0.32379478216171265,-0.21890972554683685
1761391617038014700,4.9580146484375,0.5133108496665955,0.027672477066516876,-0.152765691280365
1761391617048080400,4.968080322265625,0.5095506906509399,0.347256600856781,-0.061048027127981186
1761391617058146600,4.978146484375,0.570245087146759,0.6275204420089722,0.012681366875767708
1761391617068212500,4.98821240234375,0.6808078289031982,0.8415278196334839,0.056894898414611816
1761391617078278700,4.998278564453125,0.8228851556777954,0.9451516270637512,0.06692027300596237
1761391617088344600,5.008344482421875,0.9485344290733337,0.9575970768928528,0.05886074900627136
1761391617098411500,5.01841162109375,1.0346875190734863,0.898597240447998,0.04249966889619827
1761391617108477700,5.028477783203125,1.0920836925506592,0.7751778364181519,0.02842007391154766
1761391617118543600,5.038543701171875,1.1229270696640015,0.6162703633308411,0.02805698849260807
1761391617128609500,5.048609619140625,1.118607759475708,0.42534008622169495,0.029357144609093666
1761391617138675500,5.058675537109375,1.0650440454483032,0.2542549967765808,0.008120764046907425
1761391617148741400,5.068741455078125,1.0002317428588867,0.11760472506284714,-0.039060864597558975
1761391617158808600,5.07880859375,0.9283681511878967,0.017215251922607422,-0.12365306168794632
1761391617168874500,5.08887451171875,0.8570439219474792,-0.07562573999166489,-0.23189164698123932
1761391617178940400,5.0989404296875,0.7755894064903259,-0.1429220587015152,-0.32051363587379456
1761391617189006600,5.109006591796875,0.6739721894264221,-0.1369517743587494,-0.37500911951065063
1761391617199072500,5.119072509765625,0.5441222190856934,-0.2028566151857376,-0.41297096014022827
1761391617209138700,5.129138671875,0.40815049409866333,-0.24534308910369873,-0.4446207582950592
1761391617219205600,5.13920556640625,0.2874164581298828,-0.24478548765182495,-0.4556499421596527
1761391617229271600,5.149271484375,0.17952142655849457,-0.2371443510055542,-0.4792386293411255
1761391617239337500,5.15933740234375,0.09104308485984802,-0.21533842384815216,-0.5056305527687073
1761391617249403400,5.1694033203125,0.023580951616168022,-0.1425483673810959,-0.5207967162132263
1761391617259469600,5.179469482421875,-0.007020991295576096,-0.10470890253782272,-0.5219994187355042
1761391617269535500,5.189535400390625,-0.007203151471912861,-0.12210945785045624,-0.5346481204032898
1761391617279602400,5.1996025390625,0.03603449836373329,-0.11960282176733017,-0.5155631899833679
1761391617289668600,5.209668701171875,0.12009584158658981,-0.13294099271297455,-0.45882800221443176
1761391617299734500,5.219734619140625,0.22754736244678497,-0.12263011932373047,-0.37403103709220886
1761391617309800700,5.22980078125,0.34028908610343933,-0.0700305625796318,-0.2695094347000122
1761391617319866600,5.23986669921875,0.4215831756591797,-0.029030628502368927,-0.14784808456897736
1761391617329932500,5.2499326171875,0.47003990411758423,-0.03403470665216446,-0.0389932319521904
1761391617339999500,5.25999951171875,0.5090040564537048,-0.07268945872783661,0.05025605857372284
1761391617350065400,5.2700654296875,0.5520077347755432,-0.13907113671302795,0.11588247865438461
1761391617360131600,5.280131591796875,0.6205907464027405,-0.20879030227661133,0.18287982046604156
1761391617370197500,5.290197509765625,0.7135446667671204,-0.2349604070186615,0.24665559828281403
1761391617380263700,5.300263671875,0.8464745879173279,-0.2767937183380127,0.28366661071777344
1761391617390329600,5.31032958984375,0.9334505200386047,-0.4355282187461853,0.23227132856845856
1761391617400396500,5.320396484375,0.9023593068122864,-0.714786171913147,0.05153423547744751
1761391617410462700,5.330462646484375,0.7662864327430725,-1.0068798065185547,-0.18609243631362915
1761391617420529000,5.34052880859375,0.567301332950592,-1.1059001684188843,-0.3586696684360504
1761391617430594800,5.3505947265625,0.32064229249954224,-0.987787127494812,-0.3953413963317871
1761391617440661000,5.360660888671875,0.06021733582019806,-0.7017631530761719,-0.29239535331726074
1761391617450727000,5.370726806640625,-0.17235279083251953,-0.2841278612613678,-0.11679743975400925
1761391617460793900,5.3807939453125,-0.29975831508636475,0.14522410929203033,0.05248464643955231
1761391617470859800,5.39085986328125,-0.31286343932151794,0.5311843156814575,0.162603959441185
1761391617480925700,5.40092578125,-0.2195720374584198,0.8577711582183838,0.1981380730867386
1761391617490991900,5.410991943359375,-0.03922809287905693,1.0525566339492798,0.2081851065158844
1761391617501057800,5.421057861328125,0.20620232820510864,1.0782294273376465,0.20643815398216248
1761391617511124000,5.4311240234375,0.48978397250175476,0.9754977226257324,0.20388737320899963
1761391617521191000,5.44119091796875,0.7960883975028992,0.8036100268363953,0.2306106686592102
1761391617531256800,5.4512568359375,1.126882791519165,0.6089425086975098,0.3175783157348633
1761391617541323000,5.461322998046875,1.458554983139038,0.40221908688545227,0.4349934160709381
1761391617551389000,5.471388916015625,1.7356672286987305,0.22676816582679749,0.5956076383590698
1761391617561454800,5.481454833984375,1.9396634101867676,0.18627940118312836,0.8121392726898193
1761391617571520800,5.491520751953125,2.0841665267944336,0.2250787317752838,1.0217833518981934
1761391617581587700,5.501587646484375,2.187681198120117,0.1741688847541809,1.1324604749679565
1761391617591654000,5.51165380859375,2.2375121116638184,0.06947442889213562,1.0977193117141724
1761391617601719800,5.5217197265625,2.214674234390259,-0.04984930530190468,0.9242092967033386
1761391617611786000,5.531785888671875,2.1226906776428223,-0.1604093760251999,0.6425150632858276
1761391617621852000,5.541851806640625,1.9608123302459717,-0.20037034153938293,0.32477906346321106
1761391617631918000,5.55191796875,1.7478915452957153,-0.20913133025169373,0.015500836074352264
1761391617641985000,5.561985107421875,1.508017897605896,-0.2112075686454773,-0.26802828907966614
1761391617652051000,5.572051025390625,1.2748078107833862,-0.20950448513031006,-0.5134724378585815
1761391617662116900,5.582116943359375,1.0896317958831787,-0.184801384806633,-0.6977347731590271
1761391617672182800,5.592182861328125,0.9611945152282715,-0.08916672319173813,-0.793149471282959
1761391617682248700,5.602248779296875,0.9135997891426086,0.05866994708776474,-0.7933816909790039
1761391617692315000,5.61231494140625,0.9574064016342163,0.2338699996471405,-0.7174736261367798
1761391617702381800,5.6223818359375,1.0955742597579956,0.3777623176574707,-0.5893683433532715
1761391617712448000,5.632447998046875,1.3138434886932373,0.4797469973564148,-0.42258143424987793
1761391617722514000,5.642513916015625,1.5913729667663574,0.5597826242446899,-0.25410690903663635
1761391617732579800,5.652579833984375,1.902448296546936,0.5970178842544556,-0.08052659779787064
1761391617742646000,5.66264599609375,2.2010557651519775,0.5914167165756226,0.06786421686410904
1761391617752711700,5.672711669921875,2.420078754425049,0.513161301612854,0.1728295236825943
1761391617762779000,5.68277880859375,2.569955348968506,0.3969920873641968,0.24951276183128357
1761391617772844800,5.6928447265625,2.6674699783325195,0.272497296333313,0.31500494480133057
1761391617782910700,5.70291064453125,2.6983864307403564,0.21798187494277954,0.3564043939113617
1761391617792977000,5.712976806640625,2.654797077178955,0.22313642501831055,0.36838409304618835
1761391617803042800,5.723042724609375,2.567288875579834,0.24658328294754028,0.35372987389564514
1761391617813109000,5.73310888671875,2.4422502517700195,0.3234724700450897,0.3288639485836029
1761391617823176000,5.743176025390625,2.29606556892395,0.43865638971328735,0.292169451713562
1761391617833241900,5.753241943359375,2.147463321685791,0.5581755638122559,0.24627730250358582
1761391617843308000,5.76330810546875,2.036530017852783,0.6504591107368469,0.16892507672309875
1761391617853373700,5.773373779296875,1.9742850065231323,0.7033912539482117,0.06349264830350876
1761391617863440000,5.78343994140625,1.9489637613296509,0.7417662143707275,-0.06005268916487694
1761391617873505800,5.793505859375,1.9496383666992188,0.7677048444747925,-0.1832292228937149
1761391617883572700,5.80357275390625,1.9659452438354492,0.7802441120147705,-0.28465956449508667
1761391617893639000,5.813638916015625,2.0083377361297607,0.7734951972961426,-0.3610302209854126
1761391617903704800,5.823704833984375,2.0724222660064697,0.741210401058197,-0.3940381407737732
1761391617913771000,5.83377099609375,2.162229061126709,0.688300609588623,-0.35968467593193054
1761391617923837000,5.8438369140625,2.265873908996582,0.6288799047470093,-0.25210055708885193
1761391617933903000,5.853903076171875,2.3787953853607178,0.6070989966392517,-0.10834366828203201
1761391617943970000,5.863969970703125,2.4999561309814453,0.5911324620246887,0.0384075753390789
1761391617954035700,5.87403564453125,2.6346707344055176,0.5966377258300781,0.14935700595378876
1761391617964102000,5.884101806640625,2.776716709136963,0.6290808916091919,0.2017556130886078
1761391617974167800,5.894167724609375,2.9258384704589844,0.6658077239990234,0.1927133947610855
1761391617984234000,5.90423388671875,3.0450279712677,0.668298065662384,0.12844966351985931
1761391617994300000,5.9142998046875,3.11435866355896,0.5950440764427185,0.030788883566856384
1761391618004366800,5.924366943359375,3.122868537902832,0.42612224817276,-0.10760889947414398
1761391618014433000,5.93443310546875,3.077422857284546,0.2644316256046295,-0.23824334144592285
1761391618024499000,5.9444990234375,3.013165235519409,0.16431710124015808,-0.3204350173473358
1761391618034564900,5.95456494140625,2.939335346221924,0.14751096069812775,-0.3069192171096802
1761391618044630800,5.964630859375,2.870932102203369,0.2532021999359131,-0.1920899897813797
1761391618054696700,5.97469677734375,2.8316848278045654,0.46211469173431396,-0.003422602079808712
1761391618064764000,5.984763916015625,2.8480095863342285,0.7595924735069275,0.20931760966777802
1761391618074829800,5.994829833984375,2.9259629249572754,1.079487681388855,0.3770056664943695
1761391618084895700,6.004895751953125,3.0537822246551514,1.2862658500671387,0.4390566051006317
1761391618094962000,6.0149619140625,3.1955761909484863,1.3515143394470215,0.38842910528182983
1761391618105027800,6.02502783203125,3.328948497772217,1.2467665672302246,0.23329287767410278
1761391618115094000,6.035093994140625,3.4553537368774414,0.9374566078186035,0.015872681513428688
1761391618125161000,6.045160888671875,3.5353739261627197,0.5338221192359924,-0.20629917085170746
1761391618135227000,6.055226806640625,3.5336668491363525,0.12759976089000702,-0.35349181294441223
1761391618145292800,6.065292724609375,3.441741466522217,-0.3320310115814209,-0.39897772669792175
1761391618155358700,6.075358642578125,3.260859489440918,-0.7140660285949707,-0.3128125071525574
1761391618165425000,6.0854248046875,3.011300802230835,-0.9143421053886414,-0.11949745565652847
1761391618175490800,6.09549072265625,2.7369651794433594,-0.9232285618782043,0.13790825009346008
1761391618185557800,6.105557861328125,2.4871928691864014,-0.7320570349693298,0.41208577156066895
1761391618195624000,6.1156240234375,2.2485551834106445,-0.33009791374206543,0.6324871182441711
1761391618205689900,6.12568994140625,2.0185749530792236,0.17790883779525757,0.6989036202430725
1761391618215756000,6.135756103515625,1.841208815574646,0.7023864388465881,0.6068525314331055
1761391618225822000,6.145822021484375,1.7244884967803955,1.2007077932357788,0.4099484384059906
1761391618235887900,6.155887939453125,1.6650757789611816,1.555597186088562,0.1257620006799698
1761391618245955000,6.165955078125,1.648651123046875,1.7676726579666138,-0.17183998227119446
1761391618256020700,6.176020751953125,1.6650636196136475,1.8681920766830444,-0.3780362904071808
1761391618266087000,6.1860869140625,1.6847835779190063,1.8132301568984985,-0.4966243803501129
1761391618276152800,6.19615283203125,1.7025809288024902,1.6294790506362915,-0.5485929846763611
1761391618286219000,6.206218994140625,1.7325999736785889,1.346975326538086,-0.5281710028648376
1761391618296285000,6.216284912109375,1.7724294662475586,1.0231106281280518,-0.48299020528793335
1761391618306351900,6.226351806640625,1.8404475450515747,0.6972981691360474,-0.4144185781478882
1761391618316418000,6.23641796875,1.923060417175293,0.4320840835571289,-0.3316376805305481
1761391618326484000,6.24648388671875,2.004318952560425,0.25293540954589844,-0.22487999498844147
1761391618336549600,6.256549560546875,2.0603137016296387,0.15261037647724152,-0.10367713868618011
1761391618346615800,6.26661572265625,2.095252752304077,0.1286517232656479,0.0056123579852283
1761391618356681700,6.276681640625,2.1176013946533203,0.1489681899547577,0.08101070672273636
1761391618366748000,6.286747802734375,2.12988543510437,0.20209714770317078,0.1276072859764099
1761391618376813800,6.296813720703125,2.1284890174865723,0.28021642565727234,0.14897115528583527
1761391618386880000,6.3068798828125,2.1042520999908447,0.36971163749694824,0.15551090240478516
1761391618396947000,6.316947021484375,2.0568783283233643,0.44176292419433594,0.16261063516139984
1761391618407012900,6.327012939453125,1.9898980855941772,0.47988012433052063,0.16142936050891876
1761391618417079000,6.3370791015625,1.9066442251205444,0.484483927488327,0.14989706873893738
1761391618427144700,6.347144775390625,1.799102783203125,0.4603410065174103,0.13951386511325836
1761391618437211000,6.3572109375,1.678808569908142,0.40258529782295227,0.1312151849269867
1761391618447276800,6.36727685546875,1.551017165184021,0.301639586687088,0.1363830268383026
1761391618457343700,6.37734375,1.4258472919464111,0.18927547335624695,0.14612619578838348
1761391618467410000,6.387409912109375,1.289686679840088,0.08339152485132217,0.14682962000370026
1761391618477475600,6.3974755859375,1.139653205871582,-0.020423823967576027,0.12694592773914337
1761391618487541800,6.407541748046875,0.9885748028755188,-0.10922680050134659,0.09904781728982925
1761391618497607700,6.417607666015625,0.8439731597900391,-0.1563756763935089,0.08299854397773743
1761391618507673900,6.427673828125,0.712333083152771,-0.1491231471300125,0.08386863023042679
1761391618517740800,6.43774072265625,0.6135313510894775,-0.11553934961557388,0.11141636967658997
1761391618527806700,6.447806640625,0.5534507632255554,-0.06788307428359985,0.15198194980621338
1761391618537873000,6.457872802734375,0.5105733275413513,-0.023081783205270767,0.19724157452583313
1761391618547938800,6.467938720703125,0.4490396976470947,-0.030057668685913086,0.2094428539276123
1761391618558004700,6.478004638671875,0.3445574939250946,-0.10424001514911652,0.18339048326015472
1761391618568070700,6.488070556640625,0.2265874147415161,-0.17185457050800323,0.16667553782463074
1761391618578137600,6.4981376953125,0.10139007121324539,-0.16933628916740417,0.190623477101326
1761391618588203800,6.508203857421875,-0.014467675238847733,-0.11291386187076569,0.2582578957080841
1761391618598269700,6.518269775390625,-0.09509009122848511,-0.024273741990327835,0.35853442549705505
1761391618608335600,6.528335693359375,-0.14065442979335785,0.1273525357246399,0.47167378664016724
1761391618618401800,6.53840185546875,-0.16613902151584625,0.27392998337745667,0.5190687775611877
1761391618628467700,6.5484677734375,-0.15843963623046875,0.38166987895965576,0.481397807598114
1761391618638535000,6.558534912109375,-0.12024938315153122,0.42854151129722595,0.38018277287483215
1761391618648600800,6.568600830078125,-0.06476614624261856,0.3988216817378998,0.23789645731449127
1761391618658666800,6.578666748046875,-0.01644548587501049,0.2723958492279053,0.10425557941198349
1761391618668732700,6.588732666015625,0.01962456852197647,0.08993043005466461,0.0022021192125976086
1761391618678798600,6.598798583984375,0.04644499719142914,-0.1008664146065712,-0.03846674785017967
1761391618688864800,6.60886474609375,0.07629861682653427,-0.23869450390338898,-0.02358054369688034
1761391618698931700,6.618931640625,0.10976895689964294,-0.29745128750801086,0.04759349673986435
1761391618708997600,6.62899755859375,0.15285657346248627,-0.2403414100408554,0.14719578623771667
1761391618719063800,6.639063720703125,0.19426685571670532,-0.11042387783527374,0.2370191514492035
1761391618729129700,6.649129638671875,0.23613594472408295,0.05431738495826721,0.2847820222377777
1761391618739196000,6.65919580078125,0.28115907311439514,0.2018602341413498,0.27011704444885254
1761391618749261800,6.66926171875,0.3324566185474396,0.29390949010849,0.21004553139209747
1761391618759328800,6.679328857421875,0.3830353617668152,0.32007479667663574,0.1236448585987091
1761391618769394700,6.689394775390625,0.4301455616950989,0.29494503140449524,0.029469966888427734
1761391618779460600,6.699460693359375,0.46784207224845886,0.24156782031059265,-0.05455116555094719
1761391618789526800,6.70952685546875,0.502483606338501,0.1772702932357788,-0.12022094428539276
1761391618799592700,6.7195927734375,0.5193701386451721,0.13318513333797455,-0.17625412344932556
1761391618809659000,6.729658935546875,0.5114362239837646,0.11422710865736008,-0.20830895006656647
1761391618819725800,6.739725830078125,0.44892066717147827,0.12276706844568253,-0.21725638210773468
1761391618829791700,6.749791748046875,0.36710047721862793,0.16215874254703522,-0.21999619901180267
1761391618839858000,6.75985791015625,0.2898443043231964,0.22763149440288544,-0.2440677136182785
1761391618849923800,6.769923828125,0.25550377368927,0.3030848503112793,-0.28684350848197937
1761391618859989800,6.77998974609375,0.2703724503517151,0.38784128427505493,-0.3409149944782257
1761391618870055700,6.7900556640625,0.32577675580978394,0.47456300258636475,-0.38214758038520813
1761391618880122600,6.80012255859375,0.42365404963493347,0.5448108315467834,-0.41522273421287537
1761391618890188800,6.810188720703125,0.5298787355422974,0.5915945172309875,-0.4319151043891907
1761391618900254700,6.820254638671875,0.6239098906517029,0.6083647012710571,-0.4324919581413269
1761391618910320600,6.830320556640625,0.6932961344718933,0.5845710039138794,-0.4086977541446686
1761391618920386800,6.84038671875,0.7577044367790222,0.5225284099578857,-0.3685873746871948
1761391618930452700,6.85045263671875,0.8239732384681702,0.41566407680511475,-0.2988305985927582
1761391618940520000,6.86052001953125,0.8934021592140198,0.31826189160346985,-0.2021871656179428
1761391618950585900,6.8705859375,0.9597327709197998,0.21591106057167053,-0.11113391071557999
1761391618960651500,6.880651611328125,1.0008440017700195,0.12262613326311111,-0.060457684099674225
1761391618970717700,6.8907177734375,1.0300127267837524,0.04736939072608948,-0.06351137906312943
1761391618980783600,6.90078369140625,1.0434728860855103,-0.0014684563502669334,-0.0933651477098465
1761391618990849800,6.910849853515625,1.0471707582473755,-0.04871851205825806,-0.14638055860996246
1761391619000916700,6.920916748046875,1.0500730276107788,-0.09647378325462341,-0.19030539691448212
1761391619010982700,6.930982666015625,1.0519227981567383,-0.15157967805862427,-0.2054414451122284
1761391619021048800,6.941048828125,1.0470774173736572,-0.22986195981502533,-0.17745241522789001
1761391619031114800,6.95111474609375,1.024817943572998,-0.29592159390449524,-0.10920397192239761
1761391619041181000,6.961180908203125,1.0068402290344238,-0.3207300007343292,-0.012147730216383934
1761391619051246600,6.97124658203125,0.9839828610420227,-0.3060297667980194,0.08202046155929565
1761391619061313800,6.981313720703125,0.9623510837554932,-0.24733342230319977,0.1709737777709961
1761391619071379700,6.991379638671875,0.9484958648681641,-0.13681527972221375,0.23606547713279724
1761391619081445600,7.001445556640625,0.9191089868545532,-0.03111680969595909,0.2589382827281952
1761391619091511800,7.01151171875,0.8723157644271851,0.047193337231874466,0.2629060447216034
1761391619101577700,7.02157763671875,0.806648313999176,0.10048345476388931,0.25093141198158264
1761391619111644000,7.031643798828125,0.7376490831375122,0.12535256147384644,0.24220788478851318
1761391619121710800,7.0417109375,0.6520769000053406,0.1198965311050415,0.22964335978031158
1761391619131776800,7.05177685546875,0.5627524256706238,0.08178551495075226,0.2224353551864624
1761391619141843000,7.061843017578125,0.48298221826553345,0.02167530357837677,0.20193833112716675
1761391619151908600,7.07190869140625,0.41422584652900696,-0.029646404087543488,0.17989620566368103
1761391619161974800,7.081974853515625,0.36759626865386963,-0.06613197922706604,0.16270655393600464
1761391619172040700,7.092040771484375,0.3286062777042389,-0.06073705479502678,0.1716325283050537
1761391619182107600,7.102107666015625,0.29595592617988586,-0.0104437917470932,0.21694594621658325
1761391619192173800,7.112173828125,0.26160603761672974,0.0945744663476944,0.28815460205078125
1761391619202239700,7.12223974609375,0.25249403715133667,0.2469288408756256,0.3737267553806305
1761391619212305700,7.1323056640625,0.2841739058494568,0.4082808792591095,0.46220552921295166
1761391619222371800,7.142371826171875,0.35921511054039,0.5424866080284119,0.5443912148475647
1761391619232437800,7.152437744140625,0.42463356256484985,0.5783741474151611,0.5928500890731812
1761391619242505000,7.1625048828125,0.4489908218383789,0.46116331219673157,0.5787640810012817
1761391619252571000,7.17257080078125,0.43603894114494324,0.2315789759159088,0.4952090084552765
1761391619262636500,7.182636474609375,0.38560107350349426,-0.07453992962837219,0.3443092405796051
1761391619272702700,7.19270263671875,0.2798471450805664,-0.37265896797180176,0.15554192662239075
1761391619282768600,7.2027685546875,0.12669113278388977,-0.6149137020111084,-0.0377737395465374
1761391619292834800,7.212834716796875,-0.05951400846242905,-0.7316019535064697,-0.194871723651886
1761391619302901800,7.22290185546875,-0.2647473216056824,-0.6740757822990417,-0.25288257002830505
1761391619312967700,7.2329677734375,-0.4408864974975586,-0.43147146701812744,-0.20669636130332947
1761391619323033900,7.243033935546875,-0.5481458902359009,-0.03529351204633713,-0.0894690677523613
1761391619333099800,7.253099853515625,-0.5715317130088806,0.42745620012283325,0.04976577311754227
1761391619343165700,7.263165771484375,-0.5370672345161438,0.8393981456756592,0.14621560275554657
1761391619353231600,7.273231689453125,-0.4740762710571289,1.1101347208023071,0.17087790369987488
1761391619363298600,7.283298583984375,-0.3795343041419983,1.2386218309402466,0.12904763221740723
1761391619373364700,7.29336474609375,-0.2464115023612976,1.250771164894104,0.06175265833735466
1761391619383430700,7.3034306640625,-0.08696086704730988,1.1460015773773193,-0.02435719221830368
1761391619393496800,7.313496826171875,0.06206689029932022,0.9254700541496277,-0.09340404719114304
1761391619403562800,7.323562744140625,0.21591876447200775,0.6417957544326782,-0.12739956378936768
1761391619413629000,7.33362890625,0.3772885203361511,0.35322076082229614,-0.0974481925368309
1761391619423695400,7.3436953125,0.45699745416641235,0.15319475531578064,-0.04092206805944443
1761391619433761300,7.35376123046875,0.47950634360313416,0.03483271971344948,0.009814813733100891
1761391619443827500,7.363827392578125,0.4735262095928192,-0.07426047325134277,0.04225078225135803
1761391619453893400,7.373893310546875,0.47032859921455383,-0.1597151756286621,0.05303773283958435
1761391619463959600,7.38395947265625,0.46249890327453613,-0.24912308156490326,0.021886469796299934
1761391619474025500,7.394025390625,0.43400293588638306,-0.3949810564517975,-0.06387966126203537
1761391619484092400,7.404092529296875,0.4006849229335785,-0.6280766129493713,-0.20311984419822693
1761391619494158600,7.41415869140625,0.3800000548362732,-0.9223595261573792,-0.39013245701789856
1761391619504224300,7.424224365234375,0.3710518479347229,-1.2282383441925049,-0.5700929164886475
1761391619514290400,7.43429052734375,0.3552435636520386,-1.4537789821624756,-0.693467378616333
1761391619524356400,7.4443564453125,0.32295140624046326,-1.5562688112258911,-0.7386100888252258
1761391619534422300,7.45442236328125,0.255989670753479,-1.5690056085586548,-0.7284621596336365
1761391619544489500,7.464489501953125,0.17540322244167328,-1.4672797918319702,-0.6670758128166199
1761391619554555400,7.474555419921875,0.11266102641820908,-1.2608834505081177,-0.5615800619125366
1761391619564621600,7.48462158203125,0.036592092365026474,-0.9447699785232544,-0.41682106256484985
1761391619574687500,7.4946875,0.011578692123293877,-0.5658130049705505,-0.2760227620601654
1761391619584753400,7.50475341796875,0.044422127306461334,-0.2230333387851715,-0.1569954752922058
1761391619594819300,7.5148193359375,0.11827456206083298,0.04233104735612869,-0.08937633782625198
1761391619604886500,7.524886474609375,0.2268899828195572,0.23166793584823608,-0.0813375860452652
1761391619614952400,7.534952392578125,0.34953078627586365,0.3503076136112213,-0.10898756980895996
1761391619625018400,7.545018310546875,0.45343321561813354,0.4120332896709442,-0.15218724310398102
1761391619635084300,7.555084228515625,0.5183034539222717,0.4249284863471985,-0.18420901894569397
1761391619645150500,7.565150390625,0.5491852164268494,0.4179334342479706,-0.21523244678974152
1761391619655216400,7.57521630859375,0.5530070662498474,0.3901904225349426,-0.25242576003074646
1761391619665283300,7.585283447265625,0.5376392602920532,0.30550137162208557,-0.31991374492645264
1761391619675349500,7.595349609375,0.5049424767494202,0.1714283674955368,-0.4053795337677002
1761391619685415400,7.60541552734375,0.45217832922935486,-0.015491721220314503,-0.49317222833633423
1761391619695481300,7.6154814453125,0.3763344883918762,-0.21843990683555603,-0.537151038646698
1761391619705547300,7.62554736328125,0.2889966666698456,-0.33988696336746216,-0.4939518868923187
1761391619715614200,7.6356142578125,0.19092382490634918,-0.3636172115802765,-0.3712676167488098
1761391619725680400,7.645680419921875,0.0917423740029335,-0.34992721676826477,-0.2108803689479828
1761391619735746300,7.655746337890625,0.01015203632414341,-0.32992222905158997,-0.0523793064057827
1761391619745812500,7.6658125,-0.06432885676622391,-0.3373633623123169,0.07207740098237991
1761391619755878400,7.67587841796875,-0.123337522149086,-0.3841893672943115,0.12803995609283447
1761391619765944600,7.685944580078125,-0.1618708074092865,-0.4609142541885376,0.12778562307357788
1761391619776010500,7.696010498046875,-0.18322144448757172,-0.5310183763504028,0.09692320227622986
1761391619786077400,7.706077392578125,-0.18465742468833923,-0.578080415725708,0.05866263061761856
1761391619796143600,7.7161435546875,-0.18413449823856354,-0.6082879900932312,0.045846957713365555
1761391619806209300,7.726209228515625,-0.18769140541553497,-0.5828853845596313,0.05971217527985573
1761391619816275500,7.736275390625,-0.19704388082027435,-0.5205804109573364,0.10128907114267349
1761391619826341400,7.74634130859375,-0.1925271600484848,-0.38985705375671387,0.16043362021446228
1761391619836407300,7.7564072265625,-0.13365209102630615,-0.24603720009326935,0.23054972290992737
1761391619846474500,7.766474609375,-0.06149399280548096,-0.19840843975543976,0.29628026485443115
1761391619856540400,7.77654052734375,-0.040258023887872696,-0.2467244565486908,0.3399285674095154
1761391619866606600,7.786606689453125,-0.07118983566761017,-0.4098854064941406,0.3408931493759155
1761391619876672500,7.796672607421875,-0.15336665511131287,-0.6497649550437927,0.2657269537448883
1761391619886738200,7.80673828125,-0.27324244379997253,-0.831078290939331,0.12805911898612976
1761391619896804400,7.816804443359375,-0.4046594798564911,-0.8720207810401917,-0.05384712666273117
1761391619906871300,7.826871337890625,-0.5522865056991577,-0.7232536673545837,-0.23091217875480652
1761391619916937500,7.8369375,-0.6851531267166138,-0.4526219367980957,-0.3592342138290405
1761391619927003400,7.84700341796875,-0.7679010033607483,-0.12477695196866989,-0.42012232542037964
1761391619937069300,7.8570693359375,-0.8005773425102234,0.1838187724351883,-0.42723312973976135
1761391619947135500,7.867135498046875,-0.7992500066757202,0.4003516137599945,-0.39392736554145813
1761391619957201400,7.877201416015625,-0.7736862897872925,0.4713359475135803,-0.3794321119785309
1761391619967268400,7.887268310546875,-0.7338802814483643,0.4642189145088196,-0.3890804946422577
1761391619977334500,7.89733447265625,-0.677463173866272,0.3912193477153778,-0.4341052174568176
1761391619987400400,7.907400390625,-0.5980972051620483,0.27664056420326233,-0.4564715325832367
1761391619997466400,7.91746630859375,-0.5073679089546204,0.1910495012998581,-0.3973981440067291
1761391620007532300,7.9275322265625,-0.39479929208755493,0.12279562652111053,-0.2432226985692978
1761391620017598500,7.937598388671875,-0.24992769956588745,0.08590196073055267,0.002921902108937502
1761391620027665400,7.94766552734375,-0.08985494077205658,0.11133754253387451,0.3034394085407257
1761391620037731300,7.9577314453125,0.050341155380010605,0.1832326054573059,0.6122232675552368
1761391620047797500,7.967797607421875,0.13632531464099884,0.2398814857006073,0.8784863948822021
1761391620057863400,7.977863525390625,0.17527471482753754,0.2166764736175537,1.0348060131072998
1761391620067929600,7.9879296875,0.15427009761333466,0.07275979220867157,1.0435864925384521
1761391620077995300,7.997995361328125,0.06424100697040558,-0.18537470698356628,0.8773021697998047
1761391620088062500,8.0080625,-0.10924077033996582,-0.5064054727554321,0.593589186668396
1761391620098128400,8.01812841796875,-0.3368586003780365,-0.7968339323997498,0.2790009081363678
1761391620108194300,8.0281943359375,-0.5929665565490723,-0.994064450263977,-0.022095566615462303
1761391620118260500,8.038260498046874,-0.8498879671096802,-1.0099514722824097,-0.2708708345890045
1761391620128326400,8.048326416015625,-1.0452755689620972,-0.8357759714126587,-0.4361008107662201
1761391620138392600,8.058392578125,-1.1367626190185547,-0.5104851722717285,-0.517517626285553
1761391620148459500,8.06845947265625,-1.1224702596664429,-0.1244831457734108,-0.5164294838905334
1761391620158525400,8.078525390625,-1.0373090505599976,0.1736098676919937,-0.5061336159706116
1761391620168591600,8.088591552734375,-0.8805329203605652,0.39741766452789307,-0.5078926086425781
1761391620178657500,8.098657470703126,-0.659995973110199,0.5429069995880127,-0.5365489721298218
1761391620188723200,8.10872314453125,-0.43436309695243835,0.5784223675727844,-0.5869067311286926
1761391620198789400,8.118789306640625,-0.245454341173172,0.5153612494468689,-0.6331102848052979
1761391620208856300,8.128856201171875,-0.13057808578014374,0.39247873425483704,-0.6478466391563416
1761391620218922500,8.138922607421875,-0.08018495887517929,0.28129735589027405,-0.6402390599250793
1761391620228988400,8.148988525390624,-0.08031491935253143,0.18492397665977478,-0.6195841431617737
1761391620239054300,8.159054443359375,-0.10064399242401123,0.10475598275661469,-0.5831145644187927
1761391620249120500,8.16912060546875,-0.10674715787172318,0.10386276245117188,-0.5137833952903748
1761391620259186400,8.1791865234375,-0.08597087860107422,0.17245478928089142,-0.4067157506942749
1761391620269253400,8.18925341796875,-0.037439294159412384,0.2625359296798706,-0.2737686336040497
1761391620279319600,8.199319580078125,0.004566661547869444,0.2971620559692383,-0.12871204316616058
1761391620289385200,8.20938525390625,0.030648063868284225,0.28590884804725647,0.005661472212523222
1761391620299451400,8.219451416015625,0.04718652367591858,0.23495720326900482,0.10985706001520157
1761391620309517300,8.229517333984376,0.05303961783647537,0.14081445336341858,0.17298969626426697
1761391620319583500,8.23958349609375,0.049565792083740234,0.052049972116947174,0.18733881413936615
1761391620329650400,8.249650390625,0.022924859076738358,-0.02633591741323471,0.14894481003284454
1761391620339716400,8.25971630859375,-0.022234400734305382,-0.05798552930355072,0.05333913490176201
1761391620349782500,8.269782470703126,-0.06361859291791916,-0.05406269058585167,-0.09551186114549637
1761391620359848400,8.279848388671875,-0.07013722509145737,0.02340581640601158,-0.254439115524292
1761391620369914600,8.28991455078125,-0.057686686515808105,0.16051866114139557,-0.37861964106559753
1761391620379980300,8.299980224609374,-0.02747080847620964,0.29204535484313965,-0.43732577562332153
1761391620390047200,8.310047119140625,0.021432818844914436,0.4034283459186554,-0.43941208720207214
1761391620400113400,8.320113525390624,0.07989095151424408,0.5054100155830383,-0.3864186406135559
1761391620410179300,8.330179443359375,0.13491451740264893,0.5510741472244263,-0.2815313935279846
1761391620420245500,8.34024560546875,0.17001156508922577,0.5498316287994385,-0.1504608541727066
1761391620430311400,8.3503115234375,0.18490129709243774,0.5008537173271179,-0.023249110206961632
1761391620440377600,8.360377685546876,0.1582949161529541,0.41192927956581116,0.06719252467155457
1761391620450444500,8.370444580078125,0.0978400930762291,0.30789661407470703,0.11207664012908936
1761391620460510500,8.380510498046876,0.03709800913929939,0.23466399312019348,0.11646024137735367
1761391620470576600,8.39057666015625,-0.005276611540466547,0.24776726961135864,0.0741703063249588
1761391620480642600,8.400642578125,-0.05585944652557373,0.43436431884765625,0.007961241528391838
1761391620490708500,8.41070849609375,-0.11869726330041885,0.8118777871131897,0.07464119791984558
1761391620500774700,8.420774658203126,-0.24928657710552216,1.120995283126831,0.5122544765472412
1761391620510841600,8.430841552734375,-0.36768966913223267,0.982188880443573,0.8087873458862305
1761391620520907500,8.440907470703126,-0.26876720786094666,0.6442160606384277,0.9372369647026062
1761391620530973400,8.450973388671875,-0.01408563181757927,0.2261975109577179,0.9869070649147034
1761391620541039400,8.461039306640625,0.18972113728523254,-0.16605405509471893,0.9602857232093811
1761391620551105500,8.47110546875,0.2764432430267334,-0.4185326397418976,0.767221212387085
1761391620561171500,8.48117138671875,0.3016579747200012,-0.48235031962394714,0.4011179506778717
1761391620571238400,8.49123828125,0.25712618231773376,-0.4146226644515991,-0.03303831070661545
1761391620581304600,8.5013046875,0.09902003407478333,-0.24713045358657837,-0.4203905761241913
1761391620591370500,8.51137060546875,-0.09764402359724045,0.08625923097133636,-0.6609610915184021
1761391620601436700,8.521436767578125,-0.2951127290725708,0.4836573600769043,-0.7768394947052002
