time,seconds_elapsed,z,y,x
1761340644820423700,0.083423583984375,-0.4946159933120012,-0.3951562327809632,-0.4017460229674354
1761340644830490600,0.09349072265625,-0.3226215963155031,-0.4077595476359129,-0.21517352217799052
1761340644840558800,0.103558837890625,-0.17916472701728342,-0.3696672059331089,-0.19135027311788871
1761340644850625800,0.113625732421875,-0.021305238357186316,-0.38354276921357955,-0.16165557474112138
1761340644860692700,0.123692626953125,0.07965221338570118,-0.5036646844252943,-0.14950502688866107
1761340644870759700,0.133759765625,0.2064104613393545,-0.5827882708270102,-0.16627653080634772
1761340644880827600,0.14382763671875,0.3917243586361408,-0.5065094428645447,-0.10635236958898603
1761340644890894600,0.15389453125,0.6141717625409364,-0.4462736584147438,0.014028196558915077
1761340644900961500,0.16396142578125,0.7523439694344997,-0.5198334001442417,0.10054651458812877
1761340644911028700,0.17402880859375,0.8531570442706345,-0.5341291615981608,0.04565565309654921
1761340644921096400,0.184096435546875,0.9969920992314815,-0.4877289372120052,-0.07531022039232775
1761340644931163600,0.19416357421875,1.1792495315670966,-0.3695334965508431,-0.06405590899353847
1761340644941230800,0.20423095703125,1.2252186710596085,-0.3558118451904505,-0.0506964968079701
1761340644951297800,0.2142978515625,1.1003805775135755,-0.2557347747449763,-0.10631258556786924
1761340644961365800,0.22436572265625,0.8032605022013187,-0.1949812317650765,-0.24343667164798824
1761340644971432700,0.2344326171875,0.4927069448202848,-0.12496372921969741,-0.37789742027036843
1761340644981499600,0.244499755859375,0.35189737516045566,-0.028273661730857564,-0.44334363284483547
1761340644991566600,0.254566650390625,0.6780319480329752,-0.08694989611320197,-0.5398224048037081
1761340645001633500,0.264633544921875,1.0464163476139305,-0.058468665179423986,-0.8552784203387797
1761340645011701500,0.274701416015625,1.1982698738574982,0.41498686854094263,-1.4165207028552889
1761340645021768400,0.2847685546875,1.297904552564025,0.6606102731108665,-1.8205954244986176
1761340645031835600,0.294835693359375,1.5225702170401811,0.2354055235467851,-1.9742882949985563
1761340645041902800,0.30490283203125,2.152285585671663,-0.40607572273481635,-2.1146642955467105
1761340645051970800,0.314970703125,2.9782921726882456,-0.5620530143775045,-2.1741496269553897
1761340645062037800,0.325037841796875,5.696814634293317,1.1191684992875903,-1.6413535405918955
1761340645072104700,0.335104736328125,5.55137740483284,0.3991191450625658,-1.1218972666643559
1761340645082171600,0.345171630859375,5.7566322663962834,-0.3379514865901321,-1.0772985387422145
1761340645092239600,0.355239501953125,6.006994097664952,-0.20814152291566132,-0.04014131012186408
1761340645102306600,0.365306640625,5.878452473425865,-0.3832725374374538,0.7398642809592187
1761340645112373500,0.37537353515625,5.464065032082796,-0.49553530011400576,1.3887329706110059
1761340645122440700,0.385440673828125,5.054266672095656,-0.35334406683742997,2.179651000850648
1761340645132507600,0.395507568359375,4.840729135355353,-0.5890794068604708,2.965456071990728
1761340645142575600,0.40557568359375,4.566282079622149,-0.7479108092926442,3.3845784329012036
1761340645152642800,0.415642822265625,4.3750779552429915,0.8900653638206422,2.0361698738940057
1761340645162709800,0.425709716796875,4.22002417165339,2.2936688635662197,0.6406061804801225
1761340645172776700,0.435776611328125,2.6370383566170927,2.6688971376925705,0.35101014399714764
1761340645182844700,0.4458447265625,-0.9743792854070663,2.725130481567979,1.1578216166783124
1761340645192911600,0.45591162109375,-4.154226880618929,3.0210344590887424,1.2067649496760218
1761340645202978600,0.465978515625,-7.576826416617632,3.4135771483704445,1.514917510329932
1761340645213045500,0.47604541015625,-10.333555567020177,3.692111473417282,1.3337483116224407
1761340645223113700,0.48611376953125,-12.93980189501047,3.409596554301679,1.149650439051911
1761340645233180700,0.4961806640625,-15.509519112026691,2.8577047223240135,1.0143476501148194
1761340645243247900,0.506247802734375,-17.93416033411026,2.2520497359767555,0.17518369455710053
1761340645253314800,0.516314697265625,-19.54565678883791,1.3029717728257177,-1.5430429500959812
1761340645263381800,0.5263818359375,-19.25702923206091,-0.05198284682407975,-3.9719869839400053
1761340645273449700,0.53644970703125,-17.399390609586238,-1.1323895807147026,-5.637841051799058
1761340645283516700,0.5465166015625,-14.990524464261531,-2.4552085020437837,-6.3984460691004985
1761340645293583600,0.55658349609375,-11.822754844856261,-3.60596989801228,-6.61735828461647
1761340645303650600,0.566650634765625,-8.414905134221911,-4.559245020592212,-5.970844341397285
1761340645313718500,0.576718505859375,-4.777271685445308,-5.3725926170438525,-4.898241413125396
1761340645323785700,0.58678564453125,-1.5735387722551821,-5.154227514016628,-3.727847095926106
1761340645333852700,0.596852783203125,0.4684785124927759,-4.57101787597239,-2.904476410371065
1761340645343919900,0.606919921875,2.1393431019902227,-3.8787788311496376,-3.066756053560972
1761340645353987600,0.616987548828125,3.03725523378849,-2.1023722385980186,-4.029183619889617
1761340645364054800,0.6270546875,2.746881125605106,0.5221348454870284,-4.542266997784376
1761340645374121700,0.637121826171875,1.9755442864090202,0.4971392281793058,-3.835243348544836
1761340645384188700,0.647188720703125,1.8433125754803419,0.6998989849913865,-2.9569693986743686
1761340645394255600,0.657255615234375,2.3135464072078467,3.165663002514839,-0.71978989957124
1761340645404323600,0.667323486328125,2.389785012757778,2.9229025861606,0.9501102288082242
1761340645414390500,0.677390625,3.0637603788763283,-0.06528420867947861,1.9345733935952185
1761340645424457500,0.68745751953125,3.836733879363537,-4.211436668311059,4.380923758661747
1761340645434524700,0.697524658203125,2.798381595739722,-5.933686869391798,4.451822464488447
1761340645444592600,0.707592529296875,0.5063602071195841,-4.617073524704575,-0.670934098726511
1761340645454659600,0.71765966796875,0.309568637996912,-2.149723333968222,-4.959235103270411
1761340645464726800,0.727726806640625,1.3852590108901262,0.4807697657238692,-3.2383763565480708
1761340645474793700,0.737793701171875,2.8094641307681796,0.4754117823546752,-0.17436755586862562
1761340645484861700,0.74786181640625,5.72077535559535,0.09572369754156097,0.3073910016968846
1761340645494928600,0.7579287109375,7.31287503593564,0.5387090002017095,4.299882429005206
1761340645504995600,0.76799560546875,8.945598403087258,1.1270208202231675,7.233858197844028
1761340645515062500,0.7780625,10.058194319051504,1.5155080235689877,8.450898238623141
1761340645525129500,0.78812939453125,10.500478652101755,1.9916462570346891,9.06150500215888
1761340645535197700,0.79819775390625,10.590450599449872,2.2066491901524365,8.849683037164807
1761340645545264600,0.8082646484375,10.475399155902862,2.2340078833296895,7.952696788039803
1761340645555331600,0.81833154296875,10.198670126712322,2.271391711436957,6.739401194486022
1761340645565398800,0.828398681640625,9.598854806303978,2.234607018266618,5.702746362429857
1761340645575466500,0.838466552734375,8.495701256945729,2.130405177775025,5.101636910557747
1761340645585533400,0.848533447265625,6.2239715457260605,2.032512520430237,5.177383348676562
1761340645595600400,0.858600341796875,4.774571194314956,1.742406269402802,5.096256971085071
1761340645605667300,0.868667236328125,4.667240115886926,1.6630859183199702,4.314800304412842
1761340645615734300,0.878734375,4.622996485012769,1.6935450617305934,3.5809155362546443
1761340645625802200,0.88880224609375,4.68638788394928,1.1388402181588113,2.8578800788909193
1761340645635869200,0.898869140625,5.060639714258909,0.5354220509529114,2.1961374407492578
1761340645645936000,0.90893603515625,5.784298856478929,0.3620098595803603,1.8181468623027204
1761340645656003300,0.91900341796875,6.561018557757139,0.32263920503742993,1.7372814737349747
1761340645666071300,0.9290712890625,7.220905777290463,0.49648891104441134,1.8848881561890243
1761340645676138500,0.939138427734375,7.650541641169786,0.9395932917732744,2.112127324414998
1761340645686205400,0.949205322265625,8.018642547634244,1.1317453645270317,2.2315729112677274
1761340645696272400,0.9592724609375,8.286348312413692,0.8894858103670179,2.052929431645572
1761340645706340400,0.96934033203125,8.284446862706542,0.6064942136503756,1.6238307433828711
1761340645716407300,0.9794072265625,7.402846983283758,0.695857454515621,0.9224866010844707
1761340645726474200,0.98947412109375,5.2886751474291085,0.9983831151984631,0.1198829553566873
1761340645736541200,0.999541259765625,2.468399115267396,1.3512972661860287,-0.4919258774451911
1761340645746608400,1.0096083984375,-0.3155401136219501,1.4903611612223089,-0.4974962249234318
1761340645756676000,1.019676025390625,-2.5927923876553773,1.1421152943067252,0.3560397356621921
1761340645766743300,1.029743408203125,-5.303422050184011,-0.07039188881572335,1.2110299867093561
1761340645776810500,1.039810546875,-9.956623119324446,-1.5769209620393811,1.1363508855611084
1761340645786877400,1.04987744140625,-16.173573388111592,-2.181230817387998,-1.1329777558661998
1761340645796945400,1.0599453125,-22.501097662770746,-2.33292228493765,-4.806824235405028
1761340645807012400,1.070012451171875,-27.00655731716156,-2.177211937135458,-8.325594865652919
1761340645817079300,1.080079345703125,-29.03739678981304,-1.280993311382085,-10.560105730068683
1761340645827146200,1.090146240234375,-31.083723754453658,-1.6925538587361573,-11.178220092755556
1761340645837213200,1.100213134765625,-32.199578379952904,-1.836627252497524,-11.943268060940504
1761340645847281200,1.11028125,-30.525533406853675,-1.9945394942581653,-13.06856271495819
1761340645857348000,1.12034814453125,-24.47493689882755,-2.9007597279354926,-12.772415868592262
1761340645867415300,1.130415283203125,-16.058602608585357,-4.628839365822077,-10.931218677830696
1761340645877482200,1.140482177734375,-8.433177873015403,-5.760004957699775,-8.530973061335086
1761340645887550500,1.150550537109375,-2.6505589324474332,-5.239895626690983,-5.957745790371298
1761340645897617400,1.160617431640625,1.2707488346129656,-3.8915880438402293,-3.763412622565031
1761340645907684400,1.170684326171875,3.2022610870718955,-2.914851673913002,-0.7456520705804228
1761340645917751300,1.180751220703125,0.748665573182702,-5.021999894741177,5.529260265570879
1761340645927819300,1.1908193359375,-4.689655361312628,-8.375860241034626,4.924043378379941
1761340645937886200,1.20088623046875,-5.682992445167899,-3.449398987857997,-6.464474830803275
1761340645947953200,1.210953125,-2.6193922252893445,3.674031919108331,-11.16842233684063
1761340645958020000,1.22102001953125,0.10275485655367374,5.8640048458784815,-7.005263961747288
1761340645968087300,1.23108740234375,2.389052606830001,4.420491214418411,-0.19957403944805263
1761340645978155300,1.2411552734375,4.803984920325875,3.560828441515565,5.227585595694184
1761340645988222500,1.251222412109375,7.178899111688136,3.9581168640196323,7.3052902798950665
1761340645998289400,1.261289306640625,8.991655220863223,5.03506980419457,7.055181546604633
1761340646008356400,1.2713564453125,10.553040029466151,5.876183943971991,6.5249021192371846
1761340646018424300,1.28142431640625,11.890319730085134,5.746854384225607,6.764794578939676
1761340646028491300,1.2914912109375,13.312864807796478,5.152403221198916,6.784591166299581
1761340646038558200,1.30155810546875,14.620035785877704,4.645679149203002,6.240615806534886
1761340646048625200,1.311625244140625,15.369109939861296,3.85715795097202,5.60639435865581
1761340646058692000,1.321692138671875,15.331328782999515,3.0153032219603655,4.865658409428597
1761340646068760300,1.33176025390625,14.697653278565406,2.0949683920823037,4.208772417537868
1761340646078827300,1.3418271484375,13.703957882791757,1.185053322475031,3.3539681905820964
1761340646088894500,1.35189453125,12.199252408266068,0.7376161367062479,2.6161060432255265
1761340646098961400,1.36196142578125,10.175358224707841,0.30627034537019204,2.1731984637103974
1761340646109029400,1.372029296875,9.022914282479881,-0.19457365561118348,1.192578822609037
1761340646119096300,1.382096435546875,8.05449361321628,-0.06268049245448783,0.882358588835597
1761340646129163300,1.392163330078125,7.980401956567167,-0.10473311609039082,1.1243791466079651
1761340646139230200,1.402230224609375,8.325807047098875,-0.41958289109431207,1.696438445084542
1761340646149297200,1.412297119140625,8.879206653290986,-0.7859069240793586,2.18333933397457
1761340646159365000,1.422365234375,9.254374429401755,-1.0958204299911856,2.665397605139017
1761340646169432300,1.432432373046875,9.316846375405788,-1.437246095497906,2.654586580528319
1761340646179499300,1.442499267578125,9.248848359456657,-1.61446114975214,1.9784864773407578
1761340646189566500,1.45256640625,8.950010374310612,-1.5694246149346232,1.6793620764687656
1761340646199634400,1.462634521484375,8.439829147598147,-1.500287365822494,1.8629231387488543
1761340646209701400,1.472701416015625,7.647664039906859,-1.4409968263335524,2.0146284886933863
1761340646219768300,1.482768310546875,7.168064998462796,-0.8367640548091382,2.2227798023506997
1761340646229835300,1.492835205078125,6.8239628072232,-0.48844811833202834,2.1890746627561746
1761340646239902200,1.502902099609375,6.086258773037791,-0.5753570248477161,1.8665804922126232
1761340646249970200,1.51297021484375,4.996130124947428,-0.509565652097389,1.6646309558048844
1761340646260037000,1.523037109375,3.3599814595222472,-0.7350643333315849,0.8423669163174927
1761340646270104300,1.533104248046875,1.2314251244843006,-0.6061757953509688,-0.05318856935203075
1761340646280171500,1.543171630859375,-0.6722030957490205,0.6475164713252335,-0.10346505064964294
1761340646290239200,1.5532392578125,-2.0195769048810006,2.1384721643745896,0.7619137618124484
1761340646300306400,1.563306396484375,-3.2450439977437258,2.546177351474762,1.9510104413941503
1761340646310373400,1.573373291015625,-4.447357009512186,1.2186951145097613,2.158151262834668
1761340646320440300,1.5834404296875,-5.7074003257155415,-0.4767904868293553,0.7424136731810868
1761340646330507300,1.59350732421875,-8.004164524948596,-1.987761524555832,-1.7185583608254789
1761340646340575200,1.6035751953125,-12.611776393824815,-3.3906095297589895,-3.7719174160599707
1761340646350642200,1.61364208984375,-19.506035557067392,-3.2460195647776127,-4.156600624012947
1761340646360709000,1.623709228515625,-27.04182269181013,-0.9445653810974209,-4.6342079071179025
1761340646370776000,1.633776123046875,-32.91629807829857,2.543538235142827,-5.949283666974305
1761340646380844300,1.64384423828125,-36.20863632665873,3.9149204041108487,-7.053762327456474
1761340646390911200,1.6539111328125,-34.99901036152839,2.596985747691989,-7.9748788092315195
1761340646400978400,1.663978515625,-27.31828517901897,0.09021171092074363,-8.300886540853977
1761340646411045400,1.67404541015625,-18.1326709821105,-3.502913428163528,-9.994730439400673
1761340646421112300,1.6841123046875,-11.214939757865666,-6.752565796485543,-13.329568105316161
1761340646431180300,1.69418017578125,-6.58600862210691,-7.481959682965278,-14.738036726880072
1761340646441247200,1.704247314453125,-4.490591171082854,-5.902991871398687,-12.928888871330022
1761340646451314200,1.714314208984375,-4.109499850142002,-3.2786820634514093,-9.993028311657906
1761340646461381000,1.724381103515625,-3.532539920142293,-0.5794008568784221,-7.556927537927031
1761340646471449300,1.734449462890625,-2.3176906674057243,1.4959347235709428,-5.923132157629728
1761340646481516300,1.744516357421875,-1.8051573246091603,3.508476907509565,-3.836626911857724
1761340646491583200,1.754583251953125,-1.5766437525331973,5.289168483904004,-2.0235098604157566
1761340646501650400,1.764650390625,-0.4788578676879406,6.264864697128534,-0.10223024815768003
1761340646511717400,1.77471728515625,2.0280723460257053,6.475377917611598,2.2084844427555796
1761340646521785300,1.784785400390625,5.005848385885358,6.544384233820438,4.0653038578018545
1761340646531852300,1.794852294921875,7.3301844826549285,6.202054897472262,5.614308200520277
1761340646541919200,1.804919189453125,8.816326711007951,5.198734179741144,6.636822863543033
1761340646551986200,1.814986083984375,9.734241766393184,4.401019621229172,6.198389945223927
1761340646562053000,1.82505322265625,10.420699597465992,4.381128925845027,4.688112808045744
1761340646572121300,1.835121337890625,10.815184068465232,4.574313410386443,3.4423674817860124
1761340646582189300,1.845189208984375,10.834691902011633,4.44858099834919,2.8146882951572536
1761340646592256300,1.85525634765625,10.64012210059166,4.004206122760475,2.6118098073363303
1761340646602323200,1.8653232421875,10.627365494871139,3.542676406492293,2.4851544352352617
1761340646612391200,1.87539111328125,11.087655440211295,3.111631844858825,2.421645401268452
1761340646622458000,1.8854580078125,11.827973456287383,2.3130282285526396,2.3260721267819404
1761340646632525300,1.895525390625,12.437117746055126,1.474941912163794,2.2062579988777635
1761340646642592300,1.90559228515625,12.578406039142608,0.6976116047065705,2.0280723460257053
1761340646652659200,1.9156591796875,12.127696407574415,-0.0529423121065367,1.7927054009236394
1761340646662727400,1.9257275390625,10.989759714126587,-0.7554709423486143,1.3143350244916974
1761340646672794400,1.93579443359375,9.527471239569783,-1.0337203860394657,0.6006856735020876
1761340646682861300,1.945861328125,8.017730108964443,-1.1197539710253477,-0.10233049366176128
1761340646692928300,1.95592822265625,6.523647150740027,-1.415524677555263,-0.4199881839595735
1761340646702996200,1.965996337890625,5.467156568357348,-1.811383359517157,-0.22195216773375867
1761340646713063200,1.976063232421875,4.99922283026576,-2.090767433261126,0.08819880019575357
1761340646723130000,1.986130126953125,4.893591541492938,-2.2938185011699797,0.01968538207039237
1761340646733197300,1.996197265625,4.841062897354364,-2.609531341010332,0.08519669577032327
1761340646743264300,2.00626416015625,5.026286193758249,-2.6814070751756427,0.6069007486246526
1761340646753332500,2.01633251953125,5.455032415321469,-2.5907167504251003,1.0256588062673806
1761340646763399400,2.0263994140625,6.046078153818845,-2.4235987272933124,1.1589055394574999
1761340646773466400,2.03646630859375,6.638574091124534,-2.242287928158045,1.1780652902185915
1761340646783533300,2.046533203125,7.250088032633066,-2.134853681616485,1.0979780464164912
1761340646793600300,2.056600341796875,7.716832268679141,-1.921174398317933,1.1127991834513842
1761340646803668200,2.066668212890625,7.9144141113966695,-1.7004465116821228,1.1586242382980882
1761340646813735200,2.076735107421875,7.830894701188802,-1.8125507958613336,1.063751951687783
1761340646823802000,2.086802001953125,7.276092242461442,-2.08037288049683,0.7674952152065933
1761340646833869300,2.096869384765625,6.200709328082204,-1.990875857184082,0.32654359206482764
1761340646843937300,2.106937255859375,4.7633629870802165,-0.8855184411060064,0.36938597783893345
1761340646854004500,2.11700439453125,2.8434581703066826,0.7261296239867806,1.3969057556726037
1761340646864071400,2.127071533203125,0.3893020999252796,0.980998338220641,2.932988219106197
1761340646874138400,2.137138427734375,-2.089233209431171,-0.2550757993795909,4.123151358875632
1761340646884205300,2.147205322265625,-4.239937663391232,-1.650039535872638,3.6930110526055095
1761340646894273300,2.157273193359375,-7.836559302821755,-3.088803926979005,1.0966015704315155
1761340646904340200,2.16734033203125,-13.320759360438585,-3.8594200506851073,-1.1614311124123633
1761340646914407200,2.1774072265625,-19.52011785843372,-4.0029882714033125,-2.555662388178706
1761340646924474000,2.18747412109375,-26.391282561814783,-2.6228356437414884,-3.191196087700128
1761340646934542000,2.1975419921875,-34.269639271402355,-0.12710815736986697,-4.065024456338584
1761340646944609300,2.207609375,-42.377813621401785,3.802103295487165,-6.336157078447938
1761340646954676500,2.217676513671875,-47.0624993776083,7.735471502697467,-7.515913390493393
1761340646964743400,2.227743408203125,-45.50944809758663,7.918467186179757,-6.6406579116612665
1761340646974810400,2.237810302734375,-37.82580965797901,5.262660416206717,-5.8147372493624685
1761340646984878300,2.24787841796875,-27.8021991610527,0.6726977473981678,-6.9173337493598455
1761340646994945300,2.2579453125,-18.57406450380087,-7.463671746602654,-12.912136473971605
1761340647005012200,2.26801220703125,-11.044797126215697,-9.884412454116344,-18.40841100026369
1761340647015079200,2.2780791015625,-4.508386940014362,-5.978412730824947,-16.351637460410593
1761340647025146400,2.288146484375,0.9432686923503876,-0.5405442162722349,-7.950213739052415
1761340647035214000,2.298214111328125,4.602884255832433,1.8034294779032467,0.42462183510959145
1761340647045281300,2.30828125,6.835553876295686,2.0461901865184307,5.027523042076826
1761340647055348500,2.318348388671875,7.755655043548345,3.5982004330545663,5.945151097214222
1761340647065415400,2.32841552734375,7.379902161026001,5.433053223225474,4.036784158021211
1761340647075483400,2.3384833984375,6.764471338334679,6.182119193902611,2.7388255371823904
1761340647085550300,2.34855029296875,6.9817141593337055,5.931847379004955,3.0020260994970798
1761340647095617300,2.3586171875,8.596028594091534,6.085170977801084,3.722471540367603
1761340647105684200,2.368684326171875,10.798541561222075,6.569209462997317,4.5393905655652285
1761340647115751200,2.378751220703125,12.739265294140576,6.635223611652851,5.213299296188354
1761340647125819100,2.388819091796875,14.13549519637823,6.262974353337287,5.6019005543679
1761340647135886000,2.398885986328125,15.267906988924741,5.87924508510828,5.302663340771198
1761340647145953300,2.408953369140625,16.11670876059532,5.328372367045283,4.909544312906265
1761340647156020500,2.4190205078125,16.24242772862911,4.235062166309357,4.231203737315536
1761340647166087400,2.42908740234375,15.71569868721962,3.1969179724782704,3.195352330596745
1761340647176155400,2.4391552734375,14.763915849024057,2.257596556448936,1.7936916354820132
1761340647186222300,2.449222412109375,13.898941525709628,1.421704827494919,0.37619777674563226
1761340647196289300,2.459289306640625,13.232016078102587,0.5811889458715915,-1.2411451389878987
1761340647206356200,2.469356201171875,12.506422168427704,0.1003283600591123,-2.719617271104455
1761340647216424200,2.479424072265625,11.82479131911993,-0.08247311602532863,-3.2004321180790662
1761340647226491100,2.4894912109375,11.122519832843542,-0.462839483692497,-3.1941184048876163
1761340647236558000,2.49955810546875,10.502932474994658,-0.6145419840928167,-2.802117859658599
1761340647246625300,2.509625244140625,9.999204369944334,-0.43922209593541917,-2.2412818198554216
1761340647256692500,2.5196923828125,9.431807218059896,-0.1167073940604925,-1.8062329910166561
1761340647266760400,2.529760498046875,8.847260778453945,0.3110639911212027,-1.5833077404670417
1761340647276827400,2.539827392578125,8.465640465202927,0.7642158282097429,-1.1269310230478644
1761340647286894300,2.549894287109375,8.277302836170792,0.9151889183569699,-0.44286929333135483
1761340647296961300,2.559961181640625,8.252578144758939,0.986238869222626,0.23776083623496813
1761340647307028200,2.5700283203125,8.39539905424118,1.0577160325244068,0.9700845108225941
1761340647317096200,2.58009619140625,8.657138019570707,0.8868746780205518,1.5166631849534808
1761340647327163100,2.5901630859375,8.853661293146013,0.7470954012565314,1.6247066494345663
1761340647337230000,2.60022998046875,8.98405234464407,0.7667014344803988,1.3837198186241089
1761340647347297300,2.61029736328125,9.194856657028197,0.8096385128006338,1.050841178318858
1761340647357365200,2.620365234375,9.410150682047009,0.604963204690814,0.8581156165260821
1761340647367432400,2.630432373046875,9.45651437381506,0.3113718880265951,0.8592954739604145
1761340647377499400,2.64049951171875,9.021826487243175,0.12147329328805208,0.9437667050004005
1761340647387566300,2.65056640625,7.7018755225658415,0.12545268178042024,0.9810605167366564
1761340647397633300,2.66063330078125,5.713309257498383,0.4370160372585058,0.6610057021692395
1761340647407701200,2.670701171875,3.598831132173538,0.6168344058789312,0.08216646122895181
1761340647417768200,2.680768310546875,1.1710533656299114,0.2225814055480063,-0.7744375816904008
1761340647427835100,2.690835205078125,-1.6383815390437841,-0.7576658951096237,-1.643608187650889
1761340647437902300,2.70090234375,-4.461441064444184,-2.2399835967384276,-1.808258651625365
1761340647447969300,2.71096923828125,-7.5186869468599555,-2.8771140639320016,-0.8941717031609266
1761340647458037500,2.72103759765625,-12.248506560778617,-2.848493826386332,1.5982910823263228
1761340647468104400,2.7311044921875,-20.750531760048865,-1.4635755917578934,4.74465127234757
1761340647478171400,2.74117138671875,-33.74632383782863,2.744275619281828,5.833735379821062
1761340647488238300,2.75123828125,-48.47427405498028,8.880885400158167,4.266597414518892
1761340647498306300,2.761306396484375,-58.91683243303299,13.859544750344753,2.0995088119909164
1761340647508373200,2.771373291015625,-59.76043312892914,13.955332690495252,1.1732176309917122
1761340647518440200,2.781440185546875,-50.086146941804884,10.169574965131282,-0.2910467832805589
1761340647528507100,2.791507080078125,-36.0089005207777,5.6814732727766035,-2.447068304077536
1761340647538574300,2.80157421875,-24.368474419927594,1.685631658257544,-4.071062859719992
1761340647548642300,2.811642333984375,-15.930650766932963,-1.6587252388924358,-5.229444959825277
1761340647558709500,2.82170947265625,-10.428455033898352,-3.8653140771597623,-5.984792787250876
1761340647568776400,2.8317763671875,-7.078896184191107,-4.647023841810226,-6.225882347783446
1761340647578843000,2.8418427734375,-4.585107191601395,-4.780872632546723,-6.6883145658493035
1761340647588909800,2.851909912109375,-2.2776678690969945,-4.401178903444111,-7.108554824873805
1761340647598977800,2.861977783203125,0.045591538351774215,-3.0391119675710794,-6.222361772441864
1761340647609045000,2.872044921875,2.2681635431706906,-1.6458252791784702,-4.2775463862955565
1761340647619112000,2.88211181640625,4.561894073796272,0.23308172024171797,-1.9448697466820477
1761340647629179000,2.892178955078125,7.153238600730895,2.206690252815187,0.17196750898957253
1761340647639246000,2.90224609375,9.7757276229918,3.5662399451702833,1.8606690762117504
1761340647649314000,2.91231396484375,11.818310140407085,4.591195571604371,3.1738404637515543
1761340647659381000,2.922381103515625,13.407389011621474,4.978840551972389,3.678155428779125
1761340647669448000,2.932447998046875,14.674136793899535,4.96259493509233,3.3045804748177527
1761340647679515000,2.942514892578125,15.582951427984236,4.991944363695382,2.512364513722062
1761340647689582800,2.952582763671875,16.25599214360118,4.885555534553528,1.3969346895061432
1761340647699649800,2.96264990234375,16.547349417603016,4.4026744026988744,0.33907325716167686
1761340647709716700,2.972716796875,16.667162376463413,3.615133447676897,-0.46761882692351936
1761340647719784000,2.982783935546875,16.854782212615014,2.937457181213796,-1.1835101116210223
1761340647729851000,2.992850830078125,16.864415133357046,2.4264950332567095,-1.8183235340438781
1761340647739918800,3.0029189453125,16.55237864394188,2.012758018646389,-2.427621845329553
1761340647749986000,3.012986083984375,15.664909580224752,1.9540980321459471,-2.7939380603343245
1761340647760053000,3.023052978515625,14.38059457707405,1.8356570922911166,-2.5184680912941695
1761340647770120000,3.033119873046875,12.951871102988719,1.4682162571705877,-2.1419988771960137
1761340647780187000,3.043186767578125,11.502365537637472,1.1998756285537033,-1.9937654411457477
1761340647790254800,3.0532548828125,10.234737465393543,1.1268358921103179,-2.037790460833162
1761340647800321800,3.06332177734375,9.09719883135259,1.0158639729619026,-2.2402137522324916
1761340647810388700,3.073388671875,8.076403247207402,0.9045613605543971,-2.419572832778096
1761340647820456000,3.0834560546875,7.335138305670022,0.8340363103456795,-2.479404493406415
1761340647830523100,3.093523193359375,6.823218710857629,0.6577857902746648,-2.452512979349494
1761340647840590800,3.1035908203125,6.528761132752895,0.2214402909551747,-2.517194418096542
1761340647850658000,3.113657958984375,6.381431221413612,-0.38487924198172985,-2.7390198907107113
1761340647860725000,3.12372509765625,6.382984880596399,-1.144535653321445,-3.1240961896345016
1761340647870792000,3.1337919921875,6.648157327505945,-1.7065183789417147,-3.358411141465604
1761340647880860000,3.14385986328125,7.196639935562014,-2.0197277115285397,-3.2316295126363634
1761340647890926800,3.1539267578125,7.831696080699563,-2.32938373554796,-2.815586413040757
1761340647900993800,3.163993896484375,8.365349368414282,-2.425275574464351,-2.3288152880102393
1761340647911060700,3.174060791015625,8.659044729974866,-2.216067445230484,-1.815445494389534
1761340647921128000,3.1841279296875,8.50571236335039,-2.098109904978424,-1.4270688387461006
1761340647931196000,3.19419580078125,7.888927203440666,-2.1061127403005955,-1.3462268310539423
1761340647941262800,3.204262939453125,7.075071657466888,-1.8359755105905233,-1.3882479635730385
1761340647951330000,3.214330078125,5.674264364311099,-1.3640687772147357,-1.0652858832567929
1761340647961397000,3.22439697265625,3.7973376885205505,-1.4854522002622483,0.15520678219422698
1761340647971464000,3.2344638671875,1.1895534834384918,-2.128726284777373,2.3336748568706214
1761340647981532000,3.244531982421875,-2.6251480123370885,-2.5899501499667763,4.728680380755662
1761340647991598800,3.254598876953125,-8.147033949747682,-2.5570751775860785,6.1869479292333125
1761340648001665800,3.264665771484375,-13.890804981005191,-2.4914514895528552,6.481734008640051
1761340648011732700,3.274732666015625,-18.626399086672066,-3.0935084514081477,6.550938477769494
1761340648021799700,3.284799560546875,-22.074829229497908,-3.081879972934723,6.330561450397968
1761340648031868000,3.294867919921875,-24.43092707670927,-1.4470029348805546,5.689648980447649
1761340648041934800,3.304934814453125,-25.629842262732982,0.8265558914624154,5.124135158091783
1761340648052002000,3.315001953125,-26.351369069099423,1.9617956009112298,5.47414803467989
1761340648062069000,3.325069091796875,-27.579868077003955,3.199543060284853,5.526224258875846
1761340648072137000,3.335136962890625,-29.967894847917556,5.4892064876019955,4.11865083258599
1761340648082204000,3.345203857421875,-31.322652922081947,7.6859297654151915,1.3405349030226468
1761340648092270800,3.355270751953125,-29.471537563896177,7.91848004566133,-1.4959363310061393
1761340648102337800,3.365337890625,-24.45269233379364,5.5213107678711415,-3.5224043105751273
1761340648112404700,3.37540478515625,-18.02823094894886,2.8901351658076044,-4.746443124200403
1761340648122473000,3.385472900390625,-11.68596035605669,1.3707313038438558,-5.722571006840467
1761340648132540000,3.395539794921875,-6.10108750885725,0.6931014338057487,-5.971127249991893
1761340648142606800,3.40560693359375,-1.5716811616897581,0.6246667800050228,-5.240008439415693
1761340648152674000,3.415674072265625,1.8636270492345093,0.7509447701610624,-3.7763521836370226
1761340648162741000,3.425740966796875,4.258327306562662,0.5648477596625685,-2.3165778838582334
1761340648172809000,3.43580908203125,5.933738307318091,0.879612358867377,-1.7070356808140872
1761340648182876000,3.4458759765625,7.1953376207917925,2.1735532684974372,-1.5160953219376503
1761340648192942800,3.45594287109375,7.886747521314025,3.4551094744592903,-0.807175118361786
1761340648203009800,3.466009765625,7.96558958736062,3.797801214379072,0.7133238453622907
1761340648213076700,3.47607666015625,7.736649898827076,3.4554116722762585,2.198897260851413
1761340648223145000,3.48614501953125,7.768592266532778,2.3414956136241556,2.4514916734777388
1761340648233212000,3.4962119140625,7.97482211060822,0.54855527143348,1.3434391000315546
1761340648243279000,3.506279052734375,8.57443752453029,-0.39689102068431675,-0.07779825608208775
1761340648253346000,3.516345947265625,9.691624275416135,-0.39685989489369095,-0.6554842353340238
1761340648263414000,3.5264140625,10.928220080536603,-0.7414698164597153,-0.30941308210901913
1761340648273481000,3.53648095703125,11.880227375137805,-1.2217498259052633,0.5927264215933159
1761340648283548000,3.5465478515625,12.369324897289275,-1.274895725159347,1.4516379012048244
1761340648293614800,3.55661474609375,12.289121479761599,-1.0420075912609696,1.7851036937482654
1761340648303681800,3.566681884765625,11.81335924000144,-1.001308866452053,1.711400598025322
1761340648313750000,3.57675,11.073776552462578,-1.0287727735694496,1.6075081157438456
1761340648323817000,3.58681689453125,10.355814160579442,-1.0481012319609522,1.287933778169751
1761340648333884000,3.5968837890625,9.73669266667664,-1.0594221057899296,0.9173395205195992
1761340648343951000,3.606951171875,9.134367409273981,-1.012910676114261,0.7898781657978892
1761340648354018000,3.61701806640625,8.405821079534292,-0.7710752656504511,1.008301940209791
1761340648364086000,3.6270859375,7.517070743834972,-0.4675239882469177,1.5049275928437709
1761340648374153000,3.637153076171875,6.539181989002228,-0.23516612530034034,1.9159126783974467
1761340648384220000,3.647219970703125,5.665357419756054,-0.08915818327981978,2.024428144304454
1761340648394286800,3.657286865234375,5.061437586638331,-0.052428252504020924,1.799001724588871
1761340648404353800,3.667353759765625,4.854431497493386,-0.10896594962086528,1.3808620911054312
1761340648414421800,3.677421875,5.11826597379744,-0.3973796079188585,1.0073752538189291
1761340648424489000,3.687489013671875,5.746356371575594,-0.8501385001670568,0.7119122980639339
1761340648434556000,3.697555908203125,6.568340278947353,-1.1045827053785324,0.39241307155266403
1761340648444623000,3.707623046875,7.458447289952636,-1.1379952917672693,0.11583265705257653
1761340648454690000,3.71768994140625,8.175599534496664,-1.241786359500885,-0.13794606998749076
1761340648464758000,3.727758056640625,8.656527778717875,-1.340826141054183,-0.474565029332228
1761340648474825000,3.737824951171875,8.980807079112529,-1.3408511293649672,-0.8170173710055649
1761340648484892000,3.747891845703125,9.206801946365832,-1.4723041110061108,-1.2409610145926475
1761340648494958800,3.757958740234375,9.159131263652444,-1.75338987410143,-1.7121804963566363
1761340648505025800,3.76802587890625,9.049832684543729,-2.01346105234921,-2.1999166670270265
1761340648515093800,3.77809375,8.969920943439007,-2.114830153632909,-2.3483948716185985
1761340648525161000,3.788160888671875,8.471721246421337,-2.187377649579942,-1.9671756865143775
1761340648535228000,3.798227783203125,6.83722443985641,-2.285149310893565,-0.9565317862883209
1761340648545295000,3.808295166015625,4.165027091574669,-2.2147538784138856,1.1551472098372877
1761340648555362000,3.818362060546875,-1.0826187108516692,-2.213875342013687,3.898827347443998
1761340648565430000,3.828429931640625,-10.561798505461216,-1.5139879743948579,6.03167085828185
1761340648575497000,3.8384970703125,-21.601979077792166,0.4699140251886099,7.07641021259427
1761340648585563600,3.848563720703125,-30.174037013709544,1.505968041807413,6.574934854906797
1761340648595630600,3.858630615234375,-33.9311403069973,1.5824714357733725,4.874821374571323
1761340648605697500,3.868697509765625,-33.22634953137636,2.856467874005437,3.2012644772499796
1761340648615765800,3.878765869140625,-31.49898680958748,3.4599469776183365,3.612617080941796
1761340648625832700,3.888832763671875,-31.219739660096167,4.53220796058476,4.26731053122431
1761340648635900000,3.89889990234375,-32.53854496186972,6.772783824127912,2.632901695203781
1761340648645966800,3.908966796875,-32.707712611007686,7.879355657497048,-0.9433930493824183
1761340648656034800,3.919034912109375,-28.481203168988227,6.529571280092001,-3.7466210622400045
1761340648666101800,3.929101806640625,-21.10453692114353,3.518570431500673,-5.066430572620034
1761340648676168700,3.939168701171875,-13.50850194618702,0.7930994659319519,-5.4623576436430215
1761340648686235600,3.949235595703125,-7.156902383935451,-1.35015204167366,-5.075673032739759
1761340648696302600,3.959302490234375,-2.446671852105856,-3.1099948913067577,-4.384264301261306
1761340648706370600,3.96937060546875,1.152290212970972,-5.430305385822058,-4.708201948611438
1761340648716437800,3.979437744140625,3.8158138409316535,-6.908034590616822,-6.0861436222255225
1761340648726504700,3.989504638671875,5.2623254851639265,-5.764374843347072,-7.6328329659998415
1761340648736572000,3.999572021484375,5.341341738733649,-1.821230507531762,-7.1390598532527685
1761340648746638800,4.009638916015625,4.392301477244496,1.1351279196374118,-4.280262367255985
1761340648756705800,4.019705810546875,3.2676743472248315,2.5620009435504674,-0.20788721936102955
1761340648766772700,4.029772705078125,3.323493265080452,3.4396424407362938,2.826688821813464
1761340648776839700,4.039839599609375,4.40999320127964,4.234203211392462,3.932689577296376
1761340648786906600,4.04990673828125,5.960390167400241,4.422191880856454,3.9798566944018003
1761340648796974600,4.059974609375,8.282112282279133,4.35700746102333,3.7556753063112494
1761340648807041500,4.07004150390625,10.633587145864963,4.007555140927434,3.2743753061681984
1761340648817108700,4.080108642578125,12.776972801244257,3.427586092239618,2.4736387694865463
1761340648827175700,4.09017578125,14.800365465021132,2.890091618926823,1.5109630736157298
1761340648837242600,4.10024267578125,16.450041720539332,2.5095944644868373,0.5712986163023859
1761340648847310800,4.110310791015625,17.472813573193548,2.158599591124058,-0.0727623808067292
1761340648857377800,4.120377685546875,17.804087847042084,1.8925293185919523,-0.3936868178155273
1761340648867444700,4.13044482421875,17.659799787616727,1.538776232562214,-0.5880016946263611
1761340648877511700,4.14051171875,17.260842555117605,1.36749232192263,-0.6268436125874519
1761340648887578600,4.15057861328125,16.50839921696186,1.3619443324066698,-0.47308103785216804
1761340648897646600,4.160646484375,15.05386442527175,1.172058670214936,-0.216719746972993
1761340648907713500,4.170713623046875,13.010910151934622,0.9952921634458005,0.23374124359637496
1761340648917780700,4.18078076171875,10.68995376073122,1.0529574398204684,0.3638953445333987
1761340648927847700,4.19084765625,8.078370163366198,1.169566853399202,0.3369015391457826
1761340648937914600,4.20091455078125,5.766065865173935,1.0469275120064616,0.6163371969465166
1761340648947982800,4.21098291015625,4.002138376575708,0.5841634316377341,0.7814877193976193
1761340648958049800,4.2210498046875,3.0617262427002188,0.17076536665819583,0.5407982640985399
1761340648968116700,4.23111669921875,2.9502333684176203,-0.23753519251924007,-0.04298164811432361
1761340648978183700,4.24118359375,3.3279046517819166,-0.8889853134989738,-0.7865222064334899
1761340648988250600,4.251250732421875,3.7473271646827455,-1.6202625295072792,-1.4371061025053262
1761340648998318600,4.261318603515625,4.151076892155409,-2.379000145501643,-1.9746808014474808
1761340649008385500,4.271385498046875,4.518146117484569,-3.1118530863940714,-2.4289640537187456
1761340649018452700,4.28145263671875,4.9388054787039755,-3.3570848612979054,-2.747077232699096
1761340649028519700,4.291519775390625,5.351367458185553,-3.115144236893952,-2.747584889960289
1761340649038586600,4.301586669921875,5.73232083196044,-2.9167601378828287,-2.3672747825250027
1761340649048654800,4.31165478515625,5.9883344053804874,-2.7525056874886156,-1.708394109685719
1761340649058721800,4.3217216796875,5.933343170520663,-2.409991496092826,-1.3855606241852043
1761340649068788700,4.331788818359375,5.711607129755616,-1.640083228395134,-1.2366310225643218
1761340649078855700,4.341855712890625,5.515448597839474,-1.0175867051012812,-0.898441562499851
1761340649088922600,4.351922607421875,5.325862430050969,-0.8583158152732998,-0.5478810254337266
1761340649098990600,4.361990478515625,4.6432460768371815,-0.5499569183923304,-0.21436605998631567
1761340649109057800,4.372057861328125,2.9255951862454412,-0.08705398667533881,-0.08612542798779904
1761340649119124700,4.382124755859375,0.05430968233644962,0.5780944869875908,-0.033651728906854986
1761340649129191700,4.392191650390625,-3.696806937757134,0.890674581760168,0.05019508662447333
1761340649139260000,4.402260009765625,-7.450795313894748,0.5815653414359316,0.49134559333920474
1761340649149326800,4.412326904296875,-11.032433319205046,-0.14122438840526155,1.7322103079505264
1761340649159393800,4.422393798828125,-15.353690252411365,-0.9885210618756711,3.5244159426584836
1761340649169461800,4.432461669921875,-21.130817025303838,-0.09344093863293527,4.210938947921991
1761340649179528700,4.44252880859375,-27.232715850543975,2.366200139030814,4.7942947164386505
1761340649189595600,4.452595703125,-33.12168737989664,4.2575694739326835,6.0061903800666325
1761340649199662600,4.46266259765625,-38.02689220229387,6.137940444958209,6.34083325356543
1761340649209729800,4.472729736328125,-41.41196835558414,8.544360366174578,5.3547378114014865
1761340649219797500,4.482797607421875,-41.11151942811012,9.409935577991604,2.2480803939543663
1761340649229864700,4.49286474609375,-35.40374033221006,6.995957788741588,-1.2006260815948246
1761340649239932000,4.502931884765625,-27.0955870152235,2.961830867230892,-3.2155396708399056
1761340649249998800,4.512998779296875,-18.722355369126795,-3.801708743211627,-6.6114645504027605
1761340649260065800,4.523065673828125,-11.126738911843299,-20.235909336018562,-17.00834897251725
1761340649270133800,4.5331337890625,-5.631762024146318,-23.848179795479773,-26.120279509055614
1761340649280200700,4.54320068359375,-0.1951297733902931,-5.9196916617870325,-23.850548278176785
1761340649290267600,4.553267578125,2.396868249017,3.32905499086082,-13.959869749403
1761340649300334600,4.56333447265625,3.447139518493414,6.027492695814371,-1.7936477963402866
1761340649310401800,4.57340185546875,4.646011449897289,5.280210685944557,7.608093077018856
1761340649320469500,4.583469482421875,5.594819656196236,3.530115031082928,13.55978672774434
1761340649330536700,4.59353662109375,6.500048248487711,5.059380654108524,13.950877464652061
1761340649340603600,4.603603759765625,7.465971255716681,6.738458360677957,10.31775477129817
1761340649350670800,4.6136708984375,8.601002290850877,6.856319016426801,6.852682705751061
1761340649360737800,4.62373779296875,9.736738259384035,5.8493514666259285,4.7660921197831625
1761340649370805800,4.6338056640625,10.973833830720185,4.584219302850961,3.3911081269308925
1761340649380872700,4.643872802734375,12.202019534891843,3.968361779180169,2.3667229938611385
1761340649390939600,4.653939697265625,13.515896148091555,3.8583109203994272,1.675137882902473
1761340649401006600,4.664006591796875,14.83807998638749,3.8898242490381,1.2399714190334081
1761340649411073800,4.67407373046875,15.898513753437994,3.8077930315613746,0.8051106601126492
1761340649421141500,4.6841416015625,16.604076097953318,3.468862690001726,0.3972024612536654
1761340649431208700,4.694208740234375,16.913500943565367,2.8802187519490716,0.03220467190369963
1761340649441275600,4.704275634765625,16.681852580595017,2.3625591521799563,-0.26719416199550033
1761340649451342800,4.7143427734375,15.73541110342741,2.0481014269672335,-0.3446320603325963
1761340649461409800,4.724409912109375,14.19413209426403,1.746964078837633,-0.18673793875053524
1761340649471477800,4.734477783203125,12.605059068268536,1.578930986687541,0.05747123337360099
1761340649481544700,4.744544677734375,11.075532456219195,1.5692390292346476,0.2482520908393897
1761340649491611600,4.754611572265625,9.648093176725506,1.6626522030778228,0.410681536029838
1761340649501678600,4.7646787109375,8.327331480187176,1.7590145821154117,0.6999727808799594
1761340649511745800,4.774745849609375,7.076973691695928,1.7442692867957055,1.0137542873315513
1761340649521813500,4.7848134765625,6.0157256856530905,1.5322725497566163,1.1785217287492007
1761340649531880700,4.794880615234375,5.239115874490142,1.193656973234564,1.0071438562158495
1761340649541947600,4.80494775390625,4.841361588039994,0.8327056462638079,0.4686941645374521
1761340649552014600,4.8150146484375,4.976445765790343,0.40701479368321597,-0.22266241662865505
1761340649562081800,4.825081787109375,5.627441238337755,-0.09452705336920916,-0.7691144139062612
1761340649572149800,4.835149658203125,6.550728634411096,-0.6626175943452864,-1.1376966010816394
1761340649582216400,4.845216552734375,7.478111190843582,-1.1147279595568775,-1.352576930733025
1761340649592283400,4.855283447265625,8.241094627714157,-1.406518364278972,-1.5295710357129573
1761340649602350600,4.8653505859375,8.807021122524143,-1.4714834422729908,-1.7824314057990907
1761340649612417500,4.87541748046875,8.97323459803164,-1.392641960748285,-1.9294845460236072
1761340649622485500,4.885485595703125,8.663614522108436,-1.3196739013016223,-1.958687990284711
1761340649632552400,4.895552490234375,8.011010445320606,-1.0672688737675546,-1.9967495715230703
1761340649642619400,4.905619384765625,7.281497900897264,-0.8001565448366105,-1.7072385099098086
1761340649652686300,4.915686279296875,6.349404098033904,-0.9376702878214418,-1.347694419388473
1761340649662753300,4.925753173828125,4.9763434744596475,-1.1644316094025968,-1.1205202061574906
1761340649672821500,4.935821533203125,2.867564437559247,-0.9564984685406088,-1.1962896598257124
1761340649682888400,4.945888427734375,-0.1374333712249994,0.07054225707184524,-1.3162689151637255
1761340649692955400,4.955955322265625,-3.772793029850721,1.3992366828382015,-1.4946122427955268
1761340649703022600,4.966022705078125,-7.620657959559559,2.6144968544632197,-1.575133640231192
1761340649713089500,4.976089599609375,-10.769046586668491,2.7043825848326084,-1.8114736681491135
1761340649723157500,4.986157470703125,-13.208104456639289,0.6393626101598143,-1.0241427756812422
1761340649733224400,4.996224365234375,-16.438333747088908,-1.7057498787872492,1.0041745580814778
1761340649743291400,5.00629150390625,-21.878312970185277,-1.8913775182083248,2.928741959838569
1761340649753358300,5.0163583984375,-28.799468323659895,0.763706782709062,4.0371465615928175
1761340649763425300,5.02642529296875,-36.48666767061948,5.598009976670146,3.6179154796108604
1761340649773493500,5.036493408203125,-43.7377903069973,11.017625041651725,2.263166903927177
1761340649783560400,5.046560546875,-46.37210420708656,12.740917153000831,0.37115064942389725
1761340649793627400,5.05662744140625,-40.99651825344562,9.155319596409797,-1.9119173251509665
1761340649803694600,5.066694580078125,-30.58394818642139,3.8860003068357702,-3.7009994210109114
1761340649813761500,5.076761474609375,-21.27143428726196,-2.2862026193387806,-5.8905912395089866
1761340649823829500,5.08682958984375,-13.767403057742118,-14.464970311850308,-13.78989195292592
1761340649833896400,5.096896484375,-8.472384678766131,-16.17541930823922,-20.89660378028154
1761340649843963400,5.10696337890625,-4.352880151960253,-6.294757146567106,-19.210892919307945
1761340649854030300,5.1170302734375,-1.3642355120837688,0.6975096056368202,-11.3471796521008
1761340649864097300,5.12709716796875,0.250699684920907,2.7795278421878815,-0.9167778680488466
1761340649874165500,5.13716552734375,1.785280657750368,3.3028181413203477,8.327386425244807
1761340649884232400,5.147232421875,3.545775833812356,3.266095261339843,10.362256760847568
1761340649894299400,5.15729931640625,5.609830178323388,4.064241489267349,6.867900733149051
1761340649904366600,5.16736669921875,7.654813911661505,4.54827383698374,4.687369296202063
1761340649914433500,5.17743359375,9.197329769143462,3.8756720973059533,4.255037617367506
1761340649924500500,5.18750048828125,10.513615197050571,3.4391303995609284,3.888714826491475
1761340649934568400,5.197568359375,11.768887645590304,3.4438109585925933,3.419562652520835
1761340649944635400,5.207635498046875,12.830746477007866,3.4518452119663356,3.006843144389987
1761340649954702300,5.217702392578125,13.54626673643589,3.197688664589822,2.6907065261796115
1761340649964769300,5.227769287109375,13.830752371102571,2.68989784014523,2.219676283377409
1761340649974836200,5.237836181640625,13.93426067637205,2.3285393936783074,1.6291382021412253
1761340649984904400,5.247904541015625,14.043891263914107,1.9098875728890299,0.9620048839371651
1761340649994971400,5.257971435546875,14.214213928306101,1.3708227815195917,0.21561237025298177
1761340650005038600,5.26803857421875,14.455041623032093,0.9460571540251373,-0.4115469572201371
1761340650015105500,5.27810546875,14.773414329731464,0.7496474968921393,-0.7060882680855691
1761340650025172500,5.28817236328125,15.027852032136916,0.5405456775769591,-0.7484963540956378
1761340650035240400,5.298240478515625,14.848237807786465,0.2520262573495507,-0.5896807337544858
1761340650045307400,5.308307373046875,14.19250946149826,0.2767897464018315,-0.16391272428445516
1761340650055374300,5.318374267578125,13.302235861754417,0.586803570882976,0.05949841008596122
1761340650065441300,5.328441162109375,12.156217568659782,0.952196898889169,0.14137768840398637
1761340650075508500,5.338508544921875,10.690910038542746,1.2400574898816645,0.6586030249416828
1761340650085576400,5.348576416015625,9.099296095892786,1.3327272980116307,1.4813694609932602
1761340650095643600,5.3586435546875,7.563171985274553,1.3402914496555924,2.1835415785484016
1761340650105710600,5.368710693359375,6.055132982411981,1.2754282246008515,2.530264912071824
1761340650115777500,5.378777587890625,4.642251805102825,1.2694041420057416,2.4712585963517424
1761340650125844500,5.388844482421875,3.5543139450550076,1.3280796183362602,2.089212897295505
1761340650135912400,5.398912353515625,3.2223546115517614,1.3969777979955076,1.8292014864109456
1761340650145979400,5.4089794921875,3.4598569612473247,1.4244514958545564,1.5414089191533624
1761340650156046300,5.41904638671875,3.993434261116385,1.3070590421393513,1.2472443326458333
1761340650166113300,5.42911328125,4.8221278952598565,1.0316832541886716,0.7772658639188855
1761340650176180500,5.439180419921875,5.931977727386355,0.7409119633812457,0.15762209970764815
1761340650186248400,5.44924853515625,7.036830481877923,0.4932876673176884,-0.48281822268627583
1761340650196315600,5.459315673828125,8.009283767658472,0.3208184193510562,-1.01194753017053
1761340650206382600,5.469382568359375,8.702015856695175,0.2060315450243652,-1.4594631880030036
1761340650216449500,5.479449462890625,9.040983607655763,0.06592676263302565,-1.7940500935308634
1761340650226516500,5.4895166015625,8.826320281755924,-0.028190102500095963,-1.8956313762605188
1761340650236583400,5.49958349609375,7.515099151501059,-0.05006148684006184,-1.9390309575259685
1761340650246651400,5.5096513671875,5.420256285494566,0.5225482851261273,-1.811245412351191
1761340650256718300,5.51971826171875,2.92729497590065,1.2524467235945165,-1.5194392255380749
1761340650266785300,5.529785400390625,0.24936580596864222,1.230870413210988,-1.4592909001760184
1761340650276852500,5.5398525390625,-2.228739879798889,0.8655290345877409,-2.1147417446970938
1761340650286919400,5.54991943359375,-4.622442358261346,-0.3078717709511518,-3.138540310050547
1761340650296987600,5.559987548828125,-7.902978525146842,-2.804678065535426,-2.5663269900560377
1761340650307054600,5.5700546875,-14.932652121007441,-4.693531325963139,0.020704432052979244
1761340650317121500,5.58012158203125,-28.49059059053659,-2.1848253347486257,1.1010986626550554
1761340650327188500,5.5901884765625,-45.65851053180695,5.107902985215187,-1.4394510581962763
1761340650337255400,5.60025537109375,-59.536935339188574,12.002857729506491,-5.215196654242277
1761340650347323400,5.610323486328125,-62.43086580562591,12.802329360818861,-6.775116066467762
1761340650357390300,5.620390380859375,-52.754840081357955,7.20994599185884,-5.991583178043365
1761340650367457300,5.630457275390625,-37.81824360663891,2.6028295052841304,-5.608481101801991
1761340650377524500,5.6405244140625,-25.544555842852592,-0.3806074829466641,-5.478534871461987
1761340650387591400,5.65059130859375,-17.351148848986625,-2.741678588525951,-4.755986320832371
1761340650397659600,5.66065966796875,-11.912678861409425,-3.570289220561087,-3.932745399136841
1761340650407726600,5.6707265625,-7.729508210378885,-2.8971920985817907,-3.221730342173576
1761340650417793500,5.68079345703125,-3.8779005870103833,-1.6997363175861537,-2.1207067905813455
1761340650427860500,5.690860595703125,-0.27107085729837416,-0.9520615090064704,-0.8315401826810092
1761340650437927400,5.700927490234375,3.0128771638572216,-0.47171237984746694,0.2681255976267159
1761340650447995400,5.710995361328125,6.152287534740567,0.336887474087812,0.8857344950094819
1761340650458062300,5.721062255859375,9.059908672878146,1.3070670793153345,1.3446892462231217
1761340650468129300,5.73112939453125,11.397325785017014,2.0905814091697335,1.738341065790504
1761340650478196500,5.741196533203125,12.944227894759177,2.8608526649609205,1.8687085902824996
1761340650488263400,5.751263427734375,13.9436434217453,3.507941777719557,1.7963076631993053
1761340650498331600,5.76133154296875,14.53475638025999,3.564981761802733,1.5623102528847752
1761340650508398600,5.771398681640625,14.798251833868026,3.076822981806099,1.050920527165383
1761340650518465500,5.781465576171875,15.010476534444093,2.5895170192465184,0.269324762549717
1761340650528532500,5.791532470703125,15.338986019754408,2.4084525960877534,-0.5071320682749152
1761340650538599400,5.801599365234375,15.651887601566314,2.2074625523619353,-1.0918186470039188
1761340650548666400,5.811666259765625,15.851992825281618,1.8460767794966697,-1.365884594465047
1761340650558734300,5.821734375,15.927707114696501,1.4293053656265138,-1.328624684998393
1761340650568801300,5.83180126953125,15.913133814942835,1.1214615055955945,-1.2128447079811244
1761340650578868500,5.841868408203125,15.596028351700305,1.0344283881783485,-1.1273102316237986
1761340650588936000,5.85193603515625,14.970233371382951,1.0145774402827024,-0.8546713943563401
1761340650599003000,5.8620029296875,14.048729936116933,0.8072437266185879,-0.4941041713323444
1761340650609071000,5.872071044921875,12.866205912923812,0.5167226842451841,-0.3806252743316814
1761340650619138000,5.882137939453125,11.5903021797657,0.40078737053573127,-0.5043211390400305
1761340650629205000,5.892205078125,10.404669669163226,0.4060487251300364,-0.5508364046406
1761340650639272000,5.90227197265625,9.311054348000884,0.40096791473440824,-0.3258019799172878
1761340650649339000,5.9123388671875,8.192190019291639,0.3779075763382017,0.10559106636028737
1761340650659406800,5.92240673828125,6.9581468212634325,0.3372269351752475,0.4135757961666211
1761340650669473800,5.932473876953125,5.72454259917438,0.40731848933752623,0.5647479525499045
1761340650679541000,5.942541015625,4.806973580747843,0.4150344340097159,0.5870746063767001
1761340650689608000,5.95260791015625,4.195590572142601,0.3111006698697805,0.39346031558327377
1761340650699675000,5.9626748046875,3.852456933674216,0.3814411938244477,0.3463683460732922
1761340650709743000,5.9727431640625,3.8082524657666683,0.42884997419863935,0.4724781400555744
1761340650719810000,5.98281005859375,4.010693438953161,0.2640556630403735,0.6554140196420252
1761340650729877000,5.992876953125,4.392502552774548,0.010406352799944578,0.7065791203424334
1761340650739944000,6.00294384765625,4.83314437931478,-0.19500333399903028,0.5308014054149389
1761340650750011000,6.013010986328125,5.079606280535459,0.051201012264005835,0.28123315394306553
1761340650760078000,6.023078125,5.334694555804133,0.4213815380141139,0.031531521882489325
1761340650770145800,6.033145751953125,5.688265417134762,0.5352339810349047,0.08538772483039647
1761340650780213000,6.043212890625,5.716739816468953,0.1974281682594679,0.31849845197089016
1761340650790280000,6.053280029296875,4.917810036948323,-0.049985097135603423,0.5371754704914987
1761340650800347000,6.063346923828125,2.8417630568265912,0.3180592203034088,0.6049124243516475
1761340650810414000,6.0734140625,-0.6568705020606518,1.5884581089675425,0.34083383709341286
1761340650820482000,6.08348193359375,-4.707067683884501,3.4803590665280817,-0.2158143225658685
1761340650830549000,6.093549072265625,-8.070507174906135,4.341380560563504,-0.9184663325924426
1761340650840616000,6.103615966796875,-9.564958381921052,3.023849516509473,-0.7159111584417521
1761340650850683000,6.113682861328125,-9.563410567957161,0.5351611349944025,0.6798747263554483
1761340650860750000,6.12375,-9.47301893389225,-1.4504370009824632,2.0957430297166106
1761340650870817800,6.13381787109375,-9.885354703402518,-1.3178371873937547,3.09982596399188
1761340650880885000,6.143885009765625,-11.707903307795524,1.1197254025179892,4.336367116315663
1761340650890952000,6.153951904296875,-16.561652668243646,5.046965993693471,5.773398107758164
1761340650901019000,6.164018798828125,-24.274777899098396,9.865983647978306,6.173558286306261
1761340650911085800,6.1740859375,-29.439234546184537,11.315714838778971,4.366334969078004
1761340650921154000,6.184154052734375,-27.338533017277715,-3.2862288255691525,-6.162208040252327
1761340650931221000,6.194220947265625,-25.28664841850996,-17.006313667297363,-23.50375611720085
1761340650941288000,6.204287841796875,-29.52041060813665,-10.939375096279383,-30.083019941222666
1761340650951355000,6.21435498046875,-30.78768212202787,-3.22637641441375,-21.766419113886354
1761340650961422000,6.224422119140625,-22.1285584815979,-0.3733879069566726,-7.779203676918149
1761340650971489800,6.23448974609375,-12.049901220232247,2.862092143628001,0.7801528175320476
1761340650981557000,6.244556884765625,-4.495844853827357,3.9223023310557004,4.070126747913658
1761340650991624000,6.2546240234375,1.5607728141844273,2.211190194582939,4.999239196878671
1761340651001691000,6.26469091796875,5.436913405784964,-0.4668882476266473,4.8055479318588965
1761340651011757800,6.2747578125,7.2339277559489,-1.521964798492938,4.241329702271521
1761340651021825000,6.284824951171875,7.716634115758538,-0.8795040031220763,2.581804545173049
1761340651031893000,6.29489306640625,7.528229266709089,0.09821440011244266,0.6494103953130543
1761340651041960000,6.3049599609375,7.0089669079184524,1.0197202099986373,-0.15320172598212956
1761340651052027000,6.31502685546875,6.5573617888152596,1.7164957292072474,0.23592026813589034
1761340651062094000,6.325093994140625,6.240877087819576,2.1267326267421245,1.3227245210438967
1761340651072161000,6.3351611328125,6.160342246380448,2.472136255969107,2.747882703863084
1761340651082229000,6.34522900390625,6.137673318454623,2.6515578803569078,4.05586704415381
1761340651092296000,6.3552958984375,6.276306128597259,2.6323282792299985,4.746024898788333
1761340651102363000,6.36536279296875,6.796428903609514,2.6962401949092745,4.885772099913656
1761340651112429800,6.375429931640625,7.637495697113871,2.6757787138998506,4.709506016947329
1761340651122496800,6.385496826171875,8.501338386049866,2.646478385135531,4.396178318677842
1761340651132565000,6.39556494140625,9.113697546210885,2.601602886098623,4.0443338427484035
1761340651142632000,6.4056318359375,9.497680496940017,2.302882828243822,3.4692017126977444
1761340651152699000,6.415698974609375,9.700246557810901,2.004594147543609,2.682890883992612
1761340651162766000,6.42576611328125,9.929214887917041,1.9640142998740076,1.9176488545402883
1761340651172833000,6.4358330078125,10.143556726777552,1.881927260556817,1.1686477657929062
1761340651182900000,6.44589990234375,10.414924521195887,1.7230577180713413,0.5966764378607273
1761340651192968000,6.455968017578125,10.690175879049301,1.5433590303078293,0.16214301119819283
1761340651203035000,6.466034912109375,10.680872628653049,1.5262138342395424,-0.16130743715688586
1761340651213101800,6.476101806640625,10.326837072420119,1.4164900154560804,-0.3168841486420482
1761340651223168800,6.486168701171875,9.478977550035715,1.1716265624079854,-0.19638028490804135
1761340651233236000,6.496236083984375,7.717926493656635,0.681337492384389,-0.11650777983516454
1761340651243304000,6.506303955078125,5.235818001988529,0.20325272796079516,-0.33754626679010685
1761340651253371000,6.516370849609375,2.3961697453588244,-0.13195735096670685,-0.7631864851620048
1761340651263438000,6.52643798828125,-0.123334703245759,-0.18908647463805972,-1.1698232393130659
1761340651273505000,6.536505126953125,-2.7323598482996223,-0.10519713513925671,-1.1819455657180398
1761340651283572000,6.546572021484375,-5.928495145967602,-0.43449404450021684,-1.2470736522540449
1761340651293639000,6.556638916015625,-7.845530544784665,-2.3482177614860236,-2.818791931083798
1761340651303707000,6.566706787109375,-8.17359228632748,-2.3040170929707586,-3.8037028396382926
1761340651313773800,6.57677392578125,-7.4067159336715935,-0.23547815039157866,-2.434625002089888
1761340651323840800,6.5868408203125,-8.71737475386858,1.5651472298763691,-0.8627766671396792
1761340651333908000,6.596907958984375,-12.304850963813065,3.7378941504269836,-1.7046474705033003
1761340651343975200,6.60697509765625,-16.411560306453705,6.083223350864649,-3.2773589981541034
1761340651354043000,6.61704296875,-17.79894405441284,7.355123109078407,-2.7199145004853604
1761340651364110000,6.627110107421875,-16.74370902504921,6.015107846015692,-1.1550886115178465
1761340651374177000,6.637177001953125,-12.776311122465133,3.0762288153052326,-0.5628311591431499
1761340651384244000,6.647243896484375,-5.884644898325204,1.3426511645242571,-1.3399132639929652
1761340651394311000,6.657310791015625,0.9356938731819391,0.23268534133527427,-2.5641180818349123
1761340651404379000,6.66737890625,5.586676681751013,-1.035827660517022,-2.699654095005989
1761340651414445800,6.67744580078125,8.81957548367083,-0.8374549596827476,-0.6461231903359294
1761340651424512800,6.6875126953125,10.266249040466546,-1.210126023606956,0.8097480375897139
1761340651434580000,6.697580078125,10.906175421988964,-1.5690098966538906,1.2594354134380816
1761340651444647200,6.707647216796875,11.182366691040992,-1.1313590686231851,1.3490747678309678
1761340651454714000,6.717714111328125,10.849881287837027,-0.6597296178188174,1.1720827817428856
1761340651464782000,6.727781982421875,9.564211947467923,-0.4903122682360932,1.151154852265492
1761340651474849000,6.73784912109375,7.558800930583477,-0.9045119684547185,1.246572132472694
1761340651484916000,6.747916015625,5.129926600974798,-1.5209242033988237,1.0442437528152018
1761340651494983000,6.75798291015625,2.7206664878964424,-2.0080881271392106,0.5797318789310753
1761340651505049900,6.7680498046875,0.9556348374485969,-2.1712309630297124,0.21658983698301015
1761340651515117800,6.778117919921875,-0.18265432269871235,-1.8151093943029641,0.056819838526472446
1761340651525184800,6.788184814453125,-1.198316635608673,-1.0921065240345895,0.03673478961400688
1761340651535252000,6.798251953125,-2.8154999038010833,-0.13096680555939674,0.49262628079950804
1761340651545319000,6.80831884765625,-5.500203682434559,0.8273343284890056,0.6914063933908939
1761340651555386000,6.81838623046875,-8.871532465401291,1.6205879620693624,0.606205313706398
1761340651565454000,6.8284541015625,-13.207276773643493,1.6886621119946241,0.20471300977170467
1761340651575521000,6.83852099609375,-11.432620385760067,1.5741773624196647,-0.9584436112590133
1761340651585588200,6.848588134765625,-5.98140957455337,0.193523032313399,-1.0300748691439627
1761340651595655400,6.858655517578125,-2.829447180610895,-1.143249485968426,-0.9024370618768036
1761340651605722400,6.868722412109375,0.0978980641722679,-1.312252372998744,-1.2993028750546276
1761340651615789300,6.878789306640625,2.3205402116179465,-1.4401640287712216,-1.2451058593124151
1761340651625857300,6.888857177734375,3.7386978680253025,-1.5631868895888328,-0.3912254692032933
1761340651635924200,6.89892431640625,4.414311649000644,-1.3310549808852374,0.5364737519629299
1761340651645991400,6.908991455078125,4.45104066646099,-0.8540898681413381,1.1558467364087701
1761340651656058400,6.919058349609375,3.897316066098213,-0.29893505231235173,1.4459791447907686
1761340651666125300,6.929125244140625,3.0505244652062653,0.009524236203171312,1.3906909728109835
1761340651676193300,6.939193359375,2.1526824760347605,-0.04611525169862434,1.0172182371150702
1761340651686260200,6.94926025390625,1.336097797358036,-0.1511270203336142,0.5881847961083054
1761340651696327400,6.959327392578125,0.6502116286933421,-0.14578191471230237,0.26032047683373094
1761340651706394400,6.969394287109375,0.1215747078359127,-0.11177857762249185,-0.05383738864958286
1761340651716461300,6.97946142578125,-0.27086159846186636,-0.12460512504037469,-0.2645674667537212
1761340651726529300,6.989529296875,-0.5859194815248251,-0.04416135941818356,-0.23005488323383033
1761340651736596200,6.99959619140625,-0.6921230172276497,0.1620733800280839,-0.04590520741082728
1761340651746663400,7.009663330078125,-0.614012188065052,0.13652096908781677,0.008678104235231876
1761340651756730400,7.01973046875,-0.5235100793629884,-0.12095584528520703,-0.051487464522570366
1761340651766797300,7.02979736328125,-0.6222954477638006,-0.35118089745417236,-0.16306246413066983
1761340651776864300,7.0398642578125,-0.7514747853845357,-0.3249814938472584,-0.3038229339517653
1761340651786932200,7.04993212890625,-0.6071370415985584,-0.15300317120272666,-0.5657911779925227
1761340651796999200,7.059999267578125,-0.36981414012312885,-0.09018047553226351,-0.7724372016534209
1761340651807066400,7.07006640625,-0.285640649920702,-0.1719897573539987,-0.672470806774497
1761340651817133300,7.08013330078125,-0.3193149559855461,-0.1891178926896304,-0.5348835601620375
1761340651827200500,7.090200439453125,-0.3922439985960722,-0.12096198276504873,-0.5376527326144278
1761340651837268500,7.1002685546875,-0.4206067542493343,-0.11960227525178342,-0.6042917351700365
1761340651847335400,7.11033544921875,-0.39442601881027217,-0.30448004615362734,-0.5619108294278383
1761340651857402400,7.12040234375,-0.3344476431876421,-0.5182468250725418,-0.35673202877528964
1761340651867469300,7.13046923828125,-0.3814806125193834,-0.5856134843155741,-0.15798377262689173
1761340651877536300,7.140536376953125,-0.48433249970674513,-0.528990629665926,-0.0071921765264123675
1761340651887603200,7.150603271484375,-0.479202151080966,-0.44563985402323303,0.01633950570859015
1761340651897671200,7.160671142578125,-0.40285950063467024,-0.3771936559151858,-0.06516279252320528
1761340651907738400,7.17073828125,-0.3937760304689407,-0.38384226361680773,-0.060049248901754615
1761340651917805300,7.180805419921875,-0.43228491708338257,-0.3824972056834027,0.011702347427234054
1761340651927872500,7.19087255859375,-0.31817396925687785,-0.2671333351863548,0.028437136063724753
1761340651937939500,7.200939453125,-0.08208031731545924,-0.11421539458166807,0.011700666926801204
1761340651948007400,7.21100732421875,0.14622633401155471,-0.16220405720304698,0.05960179739519953
1761340651958074400,7.221074462890625,0.30838030499517916,-0.22218502664156256,0.023630466434359548
1761340651968141300,7.231141357421875,0.5190770653516054,-0.1331856871852651,-0.10570040848627686
1761340651978208300,7.241208251953125,0.6491998213022947,-0.12983012967966495,-0.17644282777272163
1761340651988275200,7.251275146484375,0.49699733549058434,-0.24206556595787404,0.005965776536613702
1761340651998342400,7.26134228515625,0.25481062737107274,-0.2324236947244033,0.22351269504874943
1761340652008410000,7.27141015625,-0.06873860518336296,-0.10230915861278772,0.3012652853582054
1761340652018477300,7.281477294921875,-0.33881168361604214,-0.011184095706790685,0.22245894821211695
1761340652028544500,7.29154443359375,-0.5291968928277492,-0.03693703418783843,0.07945449885651469
1761340652038611500,7.301611572265625,-0.6575520545840263,-0.13493786461483687,-0.04082132827527821
1761340652048678400,7.311678466796875,-0.5388175386101007,-0.15893468014355747,-0.14163951767794786
1761340652058746400,7.321746337890625,-0.18996376892924308,-0.13908347651958464,-0.20579620189853012
1761340652068813300,7.331813232421875,0.029303251373767852,-0.14926343668512998,-0.11920849016122519
1761340652078880300,7.34188037109375,0.16112462793588636,-0.15377148869410157,0.050107627536728976
1761340652088947200,7.351947265625,0.28586335276067254,-0.12306575011126697,0.07276683778613806
1761340652099014400,7.362014404296875,0.2883358803540468,-0.08192914534173905,0.060099225523322815
1761340652109081300,7.372081298828125,0.17861586096286772,0.013157733867317438,0.10410166805274784
1761340652119149600,7.382149658203125,0.14855039304494858,0.2028209854800254,0.0625544366557151
1761340652129216500,7.392216552734375,0.17770809846818447,0.17496088211927563,-0.07465908127352595
1761340652139283500,7.402283447265625,0.20622166076898574,-0.03185691791195422,-0.18177907423414288
1761340652149350400,7.412350341796875,0.24511750087440012,-0.19548103451337664,-0.3091639296535402
1761340652159417300,7.422417236328125,0.22142624416351317,-0.20392229778543114,-0.3741059920981526
1761340652169485300,7.4324853515625,0.10786416239142417,-0.13906250679679213,-0.314907587872073
1761340652179552300,7.44255224609375,-0.05609831931889057,-0.17863365234788506,-0.2307872160963714
1761340652189619200,7.452619140625,-0.31930443459153174,-0.27549543227497486,-0.22213921473845838
1761340652199686400,7.462686279296875,-0.500880898925662,-0.25286416947841645,-0.23736045700684189
1761340652209753300,7.47275341796875,-0.48973874266445633,-0.1861544032415375,-0.26597309576794503
1761340652219820300,7.4828203125,-0.4059720796972513,-0.12252221781909466,-0.16713694702796636
1761340652229888500,7.492888427734375,-0.3483767998188734,-0.04927095751687884,0.0369468979947269
1761340652239955500,7.50295556640625,-0.4235439767450094,-0.016477854733355342,0.17237265572436153
1761340652250022400,7.5130224609375,-0.47199324261546133,0.02236252885777503,0.1841340398624539
1761340652260089300,7.52308935546875,-0.40159108813405037,0.11812376366443932,0.15218173528462647
1761340652270156300,7.53315625,-0.2435159108966589,0.15603227323293686,0.14484898124374448
1761340652280224300,7.543224365234375,-0.07817804917991161,0.08052161663137376,0.08939487811252474
1761340652290291200,7.553291259765625,0.07977905463576317,0.026940668694581834,-0.02309957442805171
1761340652300358400,7.5633583984375,0.29976679042875765,0.04947745814071968,-0.07704488043151796
1761340652310425300,7.57342529296875,0.49321489434242244,0.05948213480459526,-0.04883380820862949
1761340652320492300,7.5834921875,0.6494307074487209,0.027299071944504975,0.01120937627851963
1761340652330559200,7.593559326171875,0.7636246573835611,-0.07055266886800528,-0.04002513639628887
1761340652340627500,7.60362744140625,0.8105331235527992,-0.1705186253555119,-0.13657646213471888
1761340652350694400,7.6136943359375,0.8060352276116609,-0.16239501319788396,-0.25479221493154763
1761340652360761300,7.62376123046875,0.7430050632029771,-0.0818862560480833,-0.3785249775841832
1761340652370828300,7.633828369140625,0.6283049173116684,-0.09083817225601523,-0.3854768425486982
1761340652380895500,7.6438955078125,0.36569384532272814,-0.041917124155350025,-0.27547427988909184
1761340652390963200,7.653963134765625,0.18047931674718856,0.1704190557048656,-0.18508900249972937
1761340652401030400,7.664030517578125,0.18690087422728538,0.2767239694229327,-0.14058577084131538
1761340652411097300,7.674097412109375,0.2181885774165392,0.180319011618942,-0.020657880364358425
1761340652421164300,7.684164306640625,0.2655664146631956,0.09645266940323635,0.15396050846017897
1761340652431231200,7.694231201171875,0.3143605484485626,0.05227872449811548,0.3093115214306861
1761340652441298200,7.704298095703125,0.07998772895038127,-0.0025927016406320034,0.2857425028599799
1761340652451366400,7.714366455078125,-0.1110609126061201,-0.09351345587987452,0.11910744093954563
1761340652461433300,7.724433349609375,-0.3882797711402178,-0.04891668245280161,-0.05897950077839195
1761340652471500300,7.734500244140625,-0.7629764226078987,0.05527111124712974,-0.2605645877879113
1761340652481567500,7.7445673828125,-0.8623363760262728,0.03378225995134562,-0.37768969580382106
1761340652491634400,7.754634521484375,-0.7294529231905936,-0.010516790904477238,-0.3529689499147236
1761340652501701400,7.764701416015625,-0.47092882825434207,-0.046046405979804694,-0.18999489471986888
1761340652511769300,7.774769287109375,-0.14829729506671427,-0.10840707362908869,-0.08036321119926869
1761340652521836300,7.784836181640625,0.08994155220985411,-0.05756945131737738,0.08286562247425318
1761340652531903200,7.7949033203125,0.16708265955746174,-0.0359956982171163,0.18798969237729907
1761340652541970200,7.80497021484375,-0.03126549135744572,0.011375928484462202,0.11083857509233057
1761340652552037000,7.815037109375,-0.30947862162590023,0.032864085660502314,-0.05718173064142465
1761340652562105300,7.825105224609375,-0.40562195108532906,-0.05927457473482936,-0.18319588222950695
1761340652572172300,7.83517236328125,-0.3385428035467863,-0.14288893321715296,-0.15508622455447912
1761340652582239500,7.845239501953125,-0.17449030546545982,-0.20589012725967912,-0.04374751792028546
1761340652592305400,7.855305419921875,0.17319208234846592,-0.19118746550530194,-0.13247414138242602
1761340652602372400,7.865372314453125,0.2472095047175884,-0.18740703365113584,-0.09193879044167697
1761340652612439300,7.875439208984375,0.2810650125682354,-0.2568089981140569,0.006654270257428288
1761340652622507500,7.885507568359375,0.23538345784544942,-0.3277569133773446,0.1675260924760252
1761340652632574500,7.895574462890625,0.07937515000998974,-0.29398115623202176,0.29596001855693754
1761340652642641700,7.9056416015625,-0.16105682339668273,-0.2125977351395413,0.2327281210310757
1761340652652708600,7.91570849609375,-0.430476990878582,-0.1093670777676627,0.19893376878313718
1761340652662775600,7.925775634765625,-0.5943330896049738,-0.27027948772497473,0.09470270219705998
1761340652672842500,7.935842529296875,-0.6738432641714811,-0.29090163918882606,0.09058803341984749
1761340652682910500,7.945910400390625,-0.5251338811725378,-0.297906878308393,0.07474668649174272
1761340652692977400,7.955977294921875,-0.37558687830567355,-0.31014417286254464,0.07404949800781906
1761340652703044400,7.96604443359375,-0.2625812613725662,-0.34915958422701804,0.11419614189192652
1761340652713111300,7.976111328125,-0.017858897295594214,-0.365231817301549,-0.05397453209795058
1761340652723178500,7.986178466796875,0.07629822678267956,-0.3260437893165275,-0.09854154970757663
1761340652733246500,7.99624658203125,-0.008645078748464584,-0.2380755464736372,0.10128478400111197
1761340652743313700,8.006313720703124,-0.19929858350753782,-0.18908439227882773,0.37310616740584374
1761340652753380600,8.016380615234375,-0.49932256356775756,-0.0582216681484133,0.3391345588948577
1761340652763447600,8.026447509765624,-0.8716413799881935,-0.005042926070652902,0.04869491119459271
1761340652773514500,8.036514404296875,-1.1363783580899238,-0.08352686286196112,-0.2655411340914666
1761340652783581400,8.04658154296875,-1.1840431955844164,-0.2957354525534436,-0.5687780117835849
1761340652793648400,8.0566484375,-1.1514894179821014,-0.6122714818775653,-0.5237018756080418
1761340652803715600,8.066715576171875,-0.9461533078759908,-0.6013662031121552,-0.13818886576741932
1761340652813783300,8.076783203125,-0.15015315206646918,0.20147567181829362,0.39252763784304257
1761340652823850500,8.0868505859375,0.3305085501730442,0.5078610036039725,1.0309379887793213
1761340652833917400,8.09691748046875,0.5059878666758537,0.24378793277107177,1.0383072023730724
1761340652843984400,8.106984375,0.3791442785263061,-0.03215078629199415,0.5984101297855376
1761340652854051300,8.11705126953125,-0.07677928829789162,-0.07743413547743111,-0.007613762939348816
1761340652864118500,8.127118408203126,-0.4825333413302898,-0.07345270115844905,-0.35849480066411193
