time,seconds_elapsed,z,y,x
1761340644820423700,0.083423583984375,-0.030248146504163742,0.13486669957637787,0.29022523760795593
1761340644830490600,0.09349072265625,-0.023329073563218117,0.1631251722574234,0.34325897693634033
1761340644840558800,0.103558837890625,-0.01589352823793888,0.08655209094285965,0.39631739258766174
1761340644850625800,0.113625732421875,-0.02794560417532921,-0.03260951489210129,0.41474536061286926
1761340644860692700,0.123692626953125,-0.04421805217862129,-0.1258031129837036,0.40659797191619873
1761340644870759700,0.133759765625,-0.047725848853588104,-0.19357743859291077,0.38946011662483215
1761340644880827600,0.14382763671875,-0.020162664353847504,-0.22823847830295563,0.37158337235450745
1761340644890894600,0.15389453125,0.025177322328090668,-0.2292698174715042,0.36495697498321533
1761340644900961500,0.16396142578125,0.06776606291532516,-0.18466374278068542,0.3454117774963379
1761340644911028700,0.17402880859375,0.10092540085315704,-0.14277060329914093,0.3277573585510254
1761340644921096400,0.184096435546875,0.18897190690040588,-0.16486231982707977,0.2879540026187897
1761340644931163600,0.19416357421875,0.2772403359413147,-0.1402231603860855,0.28106725215911865
1761340644941230800,0.20423095703125,0.3501547574996948,-0.09559469670057297,0.2941191494464874
1761340644951297800,0.2142978515625,0.3914642632007599,-0.062335655093193054,0.3168807625770569
1761340644961365800,0.22436572265625,0.40339523553848267,-0.02090991660952568,0.3748686909675598
1761340644971432700,0.2344326171875,0.4067314863204956,0.004515587352216244,0.4907054305076599
1761340644981499600,0.244499755859375,0.3759711682796478,-0.07594197243452072,0.6233574748039246
1761340644991566600,0.254566650390625,0.315254271030426,-0.2733002007007599,0.7519485354423523
1761340645001633500,0.264633544921875,0.2576407790184021,-0.6346182227134705,0.8557462692260742
1761340645011701500,0.274701416015625,0.2007315456867218,-0.9454294443130493,0.9690405130386353
1761340645021768400,0.2847685546875,0.07587110251188278,-1.1211903095245361,1.1053682565689087
1761340645031835600,0.294835693359375,-0.1996327042579651,-1.4388859272003174,1.1749753952026367
1761340645041902800,0.30490283203125,-0.611492395401001,-1.6882110834121704,1.1974505186080933
1761340645051970800,0.314970703125,-0.96382737159729,-2.075672149658203,0.8774515986442566
1761340645062037800,0.325037841796875,-1.2712315320968628,-2.1086537837982178,0.4899006485939026
1761340645072104700,0.335104736328125,-1.5181552171707153,-1.763623595237732,0.2021879106760025
1761340645082171600,0.345171630859375,-1.6727522611618042,-1.1494165658950806,-0.09470181167125702
1761340645092239600,0.355239501953125,-1.7057034969329834,-0.4529242217540741,-0.4249134361743927
1761340645102306600,0.365306640625,-1.557506799697876,0.3097606301307678,-0.7104882001876831
1761340645112373500,0.37537353515625,-1.2495464086532593,1.0812950134277344,-0.9468691349029541
1761340645122440700,0.385440673828125,-0.8960509896278381,1.7458250522613525,-1.094211459159851
1761340645132507600,0.395507568359375,-0.571162223815918,2.215333938598633,-1.1445764303207397
1761340645142575600,0.40557568359375,-0.33438724279403687,2.033108949661255,-1.2527357339859009
1761340645152642800,0.415642822265625,-0.20904754102230072,1.8387198448181152,-1.2921096086502075
1761340645162709800,0.425709716796875,-0.14571836590766907,1.7957476377487183,-1.1539992094039917
1761340645172776700,0.435776611328125,0.03201570361852646,1.5951353311538696,-0.7701519727706909
1761340645182844700,0.4458447265625,0.2888917028903961,1.1081148386001587,-0.2748468816280365
1761340645192911600,0.45591162109375,0.5520029067993164,0.31942233443260193,0.2605063021183014
1761340645202978600,0.465978515625,0.7655956149101257,-0.6820375323295593,0.8371767997741699
1761340645213045500,0.47604541015625,0.9948411583900452,-1.7581554651260376,1.433550477027893
1761340645223113700,0.48611376953125,1.2463310956954956,-2.7127528190612793,1.9524554014205933
1761340645233180700,0.4961806640625,1.4903407096862793,-3.317129135131836,2.369891405105591
1761340645243247900,0.506247802734375,1.6911035776138306,-3.4524245262145996,2.6737279891967773
1761340645253314800,0.516314697265625,1.7618560791015625,-2.9275429248809814,2.6046295166015625
1761340645263381800,0.5263818359375,1.7846121788024902,-2.431511878967285,2.3963778018951416
1761340645273449700,0.53644970703125,1.6795861721038818,-2.0099005699157715,2.157825231552124
1761340645283516700,0.5465166015625,1.4366049766540527,-1.6087336540222168,1.7881795167922974
1761340645293583600,0.55658349609375,1.1047823429107666,-1.4998503923416138,1.3762483596801758
1761340645303650600,0.566650634765625,0.6921791434288025,-1.878349781036377,0.9359167814254761
1761340645313718500,0.576718505859375,0.27494457364082336,-2.6712899208068848,0.42209988832473755
1761340645323785700,0.58678564453125,-0.07561346143484116,-3.2586631774902344,-0.1405877023935318
1761340645333852700,0.596852783203125,-0.4409967064857483,-3.4354848861694336,-0.8061319589614868
1761340645343919900,0.606919921875,-0.8826531767845154,-3.260960102081299,-1.6037899255752563
1761340645353987600,0.616987548828125,-1.2694048881530762,-2.6419222354888916,-2.3853962421417236
1761340645364054800,0.6270546875,-1.7325016260147095,-1.3173046112060547,-2.976289987564087
1761340645374121700,0.637121826171875,-2.2316315174102783,0.16575805842876434,-3.3685696125030518
1761340645384188700,0.647188720703125,-2.512390375137329,1.2578903436660767,-3.566889524459839
1761340645394255600,0.657255615234375,-2.599743127822876,1.8335870504379272,-3.577305316925049
1761340645404323600,0.667323486328125,-2.556169271469116,1.9968984127044678,-3.539306640625
1761340645414390500,0.677390625,-1.8767030239105225,1.8539735078811646,-3.332282781600952
1761340645424457500,0.68745751953125,-0.512421727180481,1.669857382774353,-2.8280022144317627
1761340645434524700,0.697524658203125,-0.10335996747016907,1.5378665924072266,-2.23538875579834
1761340645444592600,0.707592529296875,-0.8585229516029358,1.5168129205703735,-1.5076524019241333
1761340645454659600,0.71765966796875,-1.7078754901885986,1.556070327758789,-0.587199866771698
1761340645464726800,0.727726806640625,-2.1540932655334473,1.1707484722137451,0.25355181097984314
1761340645474793700,0.737793701171875,-2.492922067642212,0.4608756899833679,0.7483038902282715
1761340645484861700,0.74786181640625,-2.539608955383301,0.18767797946929932,1.0710172653198242
1761340645494928600,0.7579287109375,-2.1534245014190674,0.021980253979563713,1.11370849609375
1761340645504995600,0.76799560546875,-1.5700501203536987,0.03851449489593506,0.9222054481506348
1761340645515062500,0.7780625,-0.9779708981513977,0.061554599553346634,0.6239931583404541
1761340645525129500,0.78812939453125,-0.42891332507133484,0.045192401856184006,0.2824808359146118
1761340645535197700,0.79819775390625,0.018453527241945267,0.01099376380443573,-0.054871637374162674
1761340645545264600,0.8082646484375,0.3314686715602875,0.0011160997673869133,-0.385463684797287
1761340645555331600,0.81833154296875,0.5231581926345825,0.06921917200088501,-0.7134580612182617
1761340645565398800,0.828398681640625,0.6508999466896057,0.18881508708000183,-0.9594449400901794
1761340645575466500,0.838466552734375,0.7982670664787292,0.4926961660385132,-0.985988438129425
1761340645585533400,0.848533447265625,1.004348874092102,0.6322639584541321,-0.8250357508659363
1761340645595600400,0.858600341796875,1.1659011840820312,0.7682077288627625,-0.5124354958534241
1761340645605667300,0.868667236328125,1.2147854566574097,0.755918025970459,-0.14474855363368988
1761340645615734300,0.878734375,1.179659128189087,0.5888819098472595,0.2912029027938843
1761340645625802200,0.88880224609375,1.0793519020080566,0.3467995226383209,0.7505297660827637
1761340645635869200,0.898869140625,0.9140928983688354,0.07302774488925934,1.1025729179382324
1761340645645936000,0.90893603515625,0.7053045630455017,-0.1649877429008484,1.3279399871826172
1761340645656003300,0.91900341796875,0.5364528894424438,-0.26733285188674927,1.3986341953277588
1761340645666071300,0.9290712890625,0.46209877729415894,-0.12255862355232239,1.3113858699798584
1761340645676138500,0.939138427734375,0.4394722580909729,0.1546265035867691,1.1097768545150757
1761340645686205400,0.949205322265625,0.40993353724479675,0.35308927297592163,0.854225754737854
1761340645696272400,0.9592724609375,0.35340070724487305,0.44182559847831726,0.5877863764762878
1761340645706340400,0.96934033203125,0.2696850299835205,0.5577723979949951,0.3012504577636719
1761340645716407300,0.9794072265625,0.1508432924747467,0.8585888743400574,0.04201548546552658
1761340645726474200,0.98947412109375,0.049198418855667114,1.2933094501495361,-0.11412911117076874
1761340645736541200,0.999541259765625,0.04486950859427452,1.5305668115615845,-0.10959114879369736
1761340645746608400,1.0096083984375,0.20967523753643036,1.28275465965271,-0.03573423624038696
1761340645756676000,1.019676025390625,0.5066330432891846,0.39197129011154175,-0.061426226049661636
1761340645766743300,1.029743408203125,0.8548547029495239,-0.6836445331573486,-0.14271734654903412
1761340645776810500,1.039810546875,1.0906307697296143,-1.745531439781189,-0.1303136646747589
1761340645786877400,1.04987744140625,1.0624486207962036,-2.5200560092926025,0.12397373467683792
1761340645796945400,1.0599453125,0.8497024178504944,-2.702511787414551,0.2875364124774933
1761340645807012400,1.070012451171875,0.5452405214309692,-2.3890748023986816,0.1008237972855568
1761340645817079300,1.080079345703125,0.4196975529193878,-1.83954918384552,-0.07609931379556656
1761340645827146200,1.090146240234375,0.3609098494052887,-1.0454657077789307,0.007273335941135883
1761340645837213200,1.100213134765625,0.10973470658063889,-0.12955978512763977,0.4707109332084656
1761340645847281200,1.11028125,-0.3370997905731201,0.4791751801967621,0.8644870519638062
1761340645857348000,1.12034814453125,-0.9033970832824707,0.603620171546936,0.8359172344207764
1761340645867415300,1.130415283203125,-1.4580297470092773,0.308782160282135,0.4084191620349884
1761340645877482200,1.140482177734375,-1.890678882598877,-0.033023543655872345,-0.3483130931854248
1761340645887550500,1.150550537109375,-2.1978726387023926,-0.098305344581604,-1.2762454748153687
1761340645897617400,1.160617431640625,-2.2084860801696777,-0.017632335424423218,-2.3252227306365967
1761340645907684400,1.170684326171875,-0.9041309952735901,0.042616091668605804,-2.9249396324157715
1761340645917751300,1.180751220703125,0.916871190071106,-0.37117838859558105,-2.6493079662323
1761340645927819300,1.1908193359375,0.5706030130386353,-0.10031305253505707,-1.8511608839035034
1761340645937886200,1.20088623046875,-1.1804057359695435,0.7000990509986877,-1.2304036617279053
1761340645947953200,1.210953125,-2.4020063877105713,1.6119004487991333,-0.8230324387550354
1761340645958020000,1.22102001953125,-2.7195427417755127,2.2605762481689453,-0.42710453271865845
1761340645968087300,1.23108740234375,-2.3016345500946045,2.348264217376709,-0.046884238719940186
1761340645978155300,1.2411552734375,-1.5792303085327148,2.084275007247925,0.29446420073509216
1761340645988222500,1.251222412109375,-0.9439132213592529,1.7505518198013306,0.6220162510871887
1761340645998289400,1.261289306640625,-0.46343523263931274,1.280430555343628,0.8866412043571472
1761340646008356400,1.2713564453125,-0.019980324432253838,0.7788785099983215,1.0743573904037476
1761340646018424300,1.28142431640625,0.4522968530654907,0.2644786834716797,1.1036189794540405
1761340646028491300,1.2914912109375,0.8466241359710693,-0.12948699295520782,0.952395498752594
1761340646038558200,1.30155810546875,1.1666415929794312,-0.42854321002960205,0.6646295785903931
1761340646048625200,1.311625244140625,1.4297517538070679,-0.6378200650215149,0.30457714200019836
1761340646058692000,1.321692138671875,1.6347041130065918,-0.7336850762367249,-0.04642081633210182
1761340646068760300,1.33176025390625,1.7806708812713623,-0.7695064544677734,-0.367402046918869
1761340646078827300,1.3418271484375,1.8580185174942017,-0.679542601108551,-0.608291745185852
1761340646088894500,1.35189453125,1.913492202758789,-0.5269232392311096,-0.6964074969291687
1761340646098961400,1.36196142578125,1.8553768396377563,-0.3781551420688629,-0.6345546841621399
1761340646109029400,1.372029296875,1.724356770515442,-0.23337000608444214,-0.4688495993614197
1761340646119096300,1.382096435546875,1.6419715881347656,-0.14125454425811768,-0.2523859739303589
1761340646129163300,1.392163330078125,1.6102794408798218,-0.11653454601764679,-0.06276223808526993
1761340646139230200,1.402230224609375,1.6467976570129395,-0.191057950258255,0.050131656229496
1761340646149297200,1.412297119140625,1.7352979183197021,-0.2679934799671173,0.07858007401227951
1761340646159365000,1.422365234375,1.8130249977111816,-0.3607092499732971,0.049835432320833206
1761340646169432300,1.432432373046875,1.789170503616333,-0.4518391489982605,-0.0253533273935318
1761340646179499300,1.442499267578125,1.6792771816253662,-0.4075627326965332,-0.10993640124797821
1761340646189566500,1.45256640625,1.6132899522781372,-0.23129236698150635,-0.2350413203239441
1761340646199634400,1.462634521484375,1.593812346458435,0.07490077614784241,-0.30900847911834717
1761340646209701400,1.472701416015625,1.6455674171447754,0.3583276867866516,-0.3589933514595032
1761340646219768300,1.482768310546875,1.708666443824768,0.563758134841919,-0.36966148018836975
1761340646229835300,1.492835205078125,1.7196298837661743,0.639821469783783,-0.32374778389930725
1761340646239902200,1.502902099609375,1.6806610822677612,0.6206412315368652,-0.22607707977294922
1761340646249970200,1.51297021484375,1.4595966339111328,0.4603479504585266,-0.03245354816317558
1761340646260037000,1.523037109375,1.10182785987854,0.2794913947582245,0.2659567892551422
1761340646270104300,1.533104248046875,0.8399064540863037,0.2695857584476471,0.6258577108383179
1761340646280171500,1.543171630859375,0.8714413642883301,0.5217466354370117,0.8909793496131897
1761340646290239200,1.5532392578125,1.223235845565796,0.9330002665519714,0.9983580708503723
1761340646300306400,1.563306396484375,1.686777949333191,1.1039149761199951,0.9394064545631409
1761340646310373400,1.573373291015625,1.963672161102295,0.9825608730316162,0.6809296607971191
1761340646320440300,1.5834404296875,1.87944757938385,0.5899389982223511,0.2427929788827896
1761340646330507300,1.59350732421875,1.3913040161132812,-0.09588726609945297,-0.26880210638046265
1761340646340575200,1.6035751953125,0.8596986532211304,-1.096521019935608,-0.6332585215568542
1761340646350642200,1.61364208984375,0.606214702129364,-1.6100934743881226,-0.6690372824668884
1761340646360709000,1.623709228515625,0.6319993734359741,-1.2101091146469116,-0.3410201370716095
1761340646370776000,1.633776123046875,0.7917980551719666,-0.3230900764465332,0.5166184306144714
1761340646380844300,1.64384423828125,1.0298000574111938,0.16187985241413116,1.772902488708496
1761340646390911200,1.6539111328125,1.3454011678695679,0.18955595791339874,2.5833795070648193
1761340646400978400,1.663978515625,1.3927063941955566,0.02858540788292885,2.5900800228118896
1761340646411045400,1.67404541015625,0.798504114151001,-0.40818554162979126,2.065094232559204
1761340646421112300,1.6841123046875,-0.15783563256263733,-0.7396889328956604,1.1479144096374512
1761340646431180300,1.69418017578125,-1.0275683403015137,-0.6445810198783875,0.09188546985387802
1761340646441247200,1.704247314453125,-1.669619083404541,-0.2566279470920563,-0.7101067900657654
1761340646451314200,1.714314208984375,-2.167449951171875,0.34184345602989197,-1.1920101642608643
1761340646461381000,1.724381103515625,-2.690429925918579,1.0514740943908691,-1.5490498542785645
1761340646471449300,1.734449462890625,-3.0650343894958496,1.6848381757736206,-1.6389113664627075
1761340646481516300,1.744516357421875,-3.3612356185913086,1.993999719619751,-1.3772578239440918
1761340646491583200,1.754583251953125,-3.509805679321289,2.0585567951202393,-0.8597056865692139
1761340646501650400,1.764650390625,-3.400169610977173,1.8636621236801147,-0.3415079712867737
1761340646511717400,1.77471728515625,-3.0312693119049072,1.3641968965530396,0.019929049536585808
1761340646521785300,1.784785400390625,-2.4309163093566895,0.7745346426963806,0.23015563189983368
1761340646531852300,1.794852294921875,-1.6630182266235352,0.20783552527427673,0.3339592516422272
1761340646541919200,1.804919189453125,-0.9668741822242737,-0.27367860078811646,0.38199159502983093
1761340646551986200,1.814986083984375,-0.5150175094604492,-0.6162124872207642,0.38725826144218445
1761340646562053000,1.82505322265625,-0.2609410583972931,-0.7142362594604492,0.3469982445240021
1761340646572121300,1.835121337890625,-0.0804961621761322,-0.6124513149261475,0.3006509840488434
1761340646582189300,1.845189208984375,0.08247358351945877,-0.45298153162002563,0.26848453283309937
1761340646592256300,1.85525634765625,0.2410600185394287,-0.31693872809410095,0.2508048713207245
1761340646602323200,1.8653232421875,0.4081176221370697,-0.20530609786510468,0.21535161137580872
1761340646612391200,1.87539111328125,0.5652321577072144,-0.18387271463871002,0.10376597940921783
1761340646622458000,1.8854580078125,0.7107844948768616,-0.2708483338356018,-0.07853638380765915
1761340646632525300,1.895525390625,0.8335764408111572,-0.3969881534576416,-0.3380904793739319
1761340646642592300,1.90559228515625,0.9332276582717896,-0.4807712435722351,-0.6578982472419739
1761340646652659200,1.9156591796875,0.9878796935081482,-0.4302534759044647,-0.9758205413818359
1761340646662727400,1.9257275390625,1.0003165006637573,-0.3119181990623474,-1.2245628833770752
1761340646672794400,1.93579443359375,0.9483038783073425,-0.11809174716472626,-1.3605364561080933
1761340646682861300,1.945861328125,0.8474118709564209,0.11570778489112854,-1.3672335147857666
1761340646692928300,1.95592822265625,0.7828161120414734,0.2736963629722595,-1.2385330200195312
1761340646702996200,1.965996337890625,0.75184166431427,0.28936532139778137,-0.9569788575172424
1761340646713063200,1.976063232421875,0.7013819813728333,0.08518876135349274,-0.5538508296012878
1761340646723130000,1.986130126953125,0.6174882054328918,-0.26872357726097107,-0.09447126090526581
1761340646733197300,1.996197265625,0.564428985118866,-0.638776957988739,0.37606242299079895
1761340646743264300,2.00626416015625,0.5584065914154053,-0.8753859996795654,0.7535082101821899
1761340646753332500,2.01633251953125,0.5643768906593323,-0.9351705312728882,0.9999997019767761
1761340646763399400,2.0263994140625,0.562178373336792,-0.8153935074806213,1.1026837825775146
1761340646773466400,2.03646630859375,0.5371771454811096,-0.5760512351989746,1.0856059789657593
1761340646783533300,2.046533203125,0.5071724057197571,-0.2737007141113281,0.9693344831466675
1761340646793600300,2.056600341796875,0.4798656702041626,0.03898288309574127,0.8166541457176208
1761340646803668200,2.066668212890625,0.4294443428516388,0.2477675825357437,0.6865613460540771
1761340646813735200,2.076735107421875,0.3050747215747833,0.26220694184303284,0.6296192407608032
1761340646823802000,2.086802001953125,0.14810766279697418,0.190593883395195,0.6612944602966309
1761340646833869300,2.096869384765625,0.06871270388364792,0.2590397894382477,0.6687765717506409
1761340646843937300,2.106937255859375,0.15345865488052368,0.6293006539344788,0.5771042704582214
1761340646854004500,2.11700439453125,0.4841063618659973,1.063737392425537,0.3921290934085846
1761340646864071400,2.127071533203125,1.0166351795196533,1.2918896675109863,0.13096386194229126
1761340646874138400,2.137138427734375,1.5106643438339233,1.2931525707244873,-0.30216625332832336
1761340646884205300,2.147205322265625,1.5936832427978516,0.851984977722168,-0.6912859678268433
1761340646894273300,2.157273193359375,1.2947677373886108,-0.062277957797050476,-0.9106540083885193
1761340646904340200,2.16734033203125,0.8007946610450745,-1.1601526737213135,-1.128691554069519
1761340646914407200,2.1774072265625,0.39968112111091614,-1.9537969827651978,-1.4357109069824219
1761340646924474000,2.18747412109375,0.20159047842025757,-2.222123384475708,-1.662097454071045
1761340646934542000,2.1975419921875,0.06885106861591339,-2.1106269359588623,-1.3572757244110107
1761340646944609300,2.207609375,0.1292097568511963,-1.1948586702346802,-0.528242290019989
1761340646954676500,2.217676513671875,0.40682166814804077,0.1327340304851532,0.47154486179351807
1761340646964743400,2.227743408203125,0.6165489554405212,0.935218095779419,1.2363219261169434
1761340646974810400,2.237810302734375,0.5700978636741638,1.0634785890579224,1.7021242380142212
1761340646984878300,2.24787841796875,-0.1619478464126587,0.5094965100288391,2.090372085571289
1761340646994945300,2.2579453125,-1.6157571077346802,-0.3491916060447693,2.4341490268707275
1761340647005012200,2.26801220703125,-2.9371564388275146,-0.9429027438163757,2.455941915512085
1761340647015079200,2.2780791015625,-3.3385536670684814,-0.2673168182373047,1.9661870002746582
1761340647025146400,2.288146484375,-3.000108242034912,0.8824388980865479,1.285783052444458
1761340647035214000,2.298214111328125,-2.3978021144866943,1.3414316177368164,0.5823545455932617
1761340647045281300,2.30828125,-1.7367901802062988,1.6020803451538086,0.06133517622947693
1761340647055348500,2.318348388671875,-1.4905437231063843,1.8546843528747559,-0.17519880831241608
1761340647065415400,2.32841552734375,-1.560243844985962,1.8866215944290161,0.003909986466169357
1761340647075483400,2.3384833984375,-1.6692297458648682,1.7045038938522339,0.4584553837776184
1761340647085550300,2.34855029296875,-1.7041025161743164,1.379294514656067,0.9493395090103149
1761340647095617300,2.3586171875,-1.5869899988174438,1.005541205406189,1.3038768768310547
1761340647105684200,2.368684326171875,-1.2975584268569946,0.6716739535331726,1.4777809381484985
1761340647115751200,2.378751220703125,-0.8741478323936462,0.481026828289032,1.4466569423675537
1761340647125819100,2.388819091796875,-0.42047011852264404,0.4699894189834595,1.1958427429199219
1761340647135886000,2.398885986328125,0.004398872144520283,0.5957105755805969,0.754141628742218
1761340647145953300,2.408953369140625,0.4001378118991852,0.6476035118103027,0.26837053894996643
1761340647156020500,2.4190205078125,0.7413680553436279,0.5364700555801392,-0.11801952123641968
1761340647166087400,2.42908740234375,0.9604396224021912,0.25087106227874756,-0.33776476979255676
1761340647176155400,2.4391552734375,1.0563727617263794,-0.07082203030586243,-0.4685283601284027
1761340647186222300,2.449222412109375,0.9839310646057129,-0.2808465361595154,-0.5868763327598572
1761340647196289300,2.459289306640625,0.7601496577262878,-0.37538769841194153,-0.6846497654914856
1761340647206356200,2.469356201171875,0.4851057529449463,-0.3162931799888611,-0.7863484025001526
1761340647216424200,2.479424072265625,0.1915295571088791,-0.2100953757762909,-0.8683886528015137
1761340647226491100,2.4894912109375,-0.06464183330535889,-0.1334608793258667,-0.9190177321434021
1761340647236558000,2.49955810546875,-0.259421169757843,-0.08586246520280838,-0.9385823607444763
1761340647246625300,2.509625244140625,-0.3948712944984436,-0.06531962007284164,-0.8908554315567017
1761340647256692500,2.5196923828125,-0.4791366457939148,-0.030077479779720306,-0.7774276733398438
1761340647266760400,2.529760498046875,-0.496012419462204,0.07478936016559601,-0.6527080535888672
1761340647276827400,2.539827392578125,-0.4822462797164917,0.2488120049238205,-0.5371415019035339
1761340647286894300,2.549894287109375,-0.42160993814468384,0.40053045749664307,-0.4470880925655365
1761340647296961300,2.559961181640625,-0.31104108691215515,0.512463390827179,-0.39560920000076294
1761340647307028200,2.5700283203125,-0.1811448037624359,0.5787951350212097,-0.3472723960876465
1761340647317096200,2.58009619140625,-0.07661839574575424,0.5773149728775024,-0.305239737033844
1761340647327163100,2.5901630859375,-0.006015834864228964,0.5295135974884033,-0.24979166686534882
1761340647337230000,2.60022998046875,0.01102333515882492,0.3986698091030121,-0.1842736452817917
1761340647347297300,2.61029736328125,-0.02987755462527275,0.22740112245082855,-0.14122146368026733
1761340647357365200,2.620365234375,-0.04851595312356949,0.06325691938400269,-0.1586790233850479
1761340647367432400,2.630432373046875,-0.014469506219029427,0.016582099720835686,-0.27705949544906616
1761340647377499400,2.64049951171875,0.08507012575864792,0.22564290463924408,-0.46412259340286255
1761340647387566300,2.65056640625,0.2513554096221924,0.7521241903305054,-0.6699278354644775
1761340647397633300,2.66063330078125,0.4226225018501282,1.5480679273605347,-0.8792429566383362
1761340647407701200,2.670701171875,0.43654558062553406,2.3108623027801514,-1.0884809494018555
1761340647417768200,2.680768310546875,0.22521603107452393,2.6867306232452393,-1.3225816488265991
1761340647427835100,2.690835205078125,-0.1892949938774109,2.5255961418151855,-1.5838406085968018
1761340647437902300,2.70090234375,-0.7218097448348999,1.6784334182739258,-2.0446531772613525
1761340647447969300,2.71096923828125,-1.2010505199432373,0.33665961027145386,-2.7899060249328613
1761340647458037500,2.72103759765625,-1.214802861213684,-1.220679759979248,-3.6023964881896973
1761340647468104400,2.7311044921875,-0.6749355792999268,-2.4108150005340576,-3.9335577487945557
1761340647478171400,2.74117138671875,0.03546556085348129,-2.799874782562256,-3.3162996768951416
1761340647488238300,2.75123828125,0.8033541440963745,-2.2759547233581543,-1.682445764541626
1761340647498306300,2.761306396484375,1.666209101676941,-0.9945194125175476,0.3928299844264984
1761340647508373200,2.771373291015625,2.2482030391693115,-0.045487090945243835,1.9551551342010498
1761340647518440200,2.781440185546875,2.3444221019744873,0.4671868681907654,2.490133047103882
1761340647528507100,2.791507080078125,2.104363441467285,0.7638198733329773,2.3534488677978516
1761340647538574300,2.80157421875,1.6647177934646606,0.7958835363388062,1.940269947052002
1761340647548642300,2.811642333984375,1.140804409980774,0.7435561418533325,1.5064901113510132
1761340647558709500,2.82170947265625,0.6103591322898865,0.8033081889152527,1.2024660110473633
1761340647568776400,2.8317763671875,0.03320823237299919,1.0239039659500122,1.0743238925933838
1761340647578843000,2.8418427734375,-0.6530974507331848,1.2242072820663452,1.103818416595459
1761340647588909800,2.851909912109375,-1.3477708101272583,1.3977357149124146,1.234483003616333
1761340647598977800,2.861977783203125,-1.928194284439087,1.4919488430023193,1.3841984272003174
1761340647609045000,2.872044921875,-2.2376763820648193,1.5971252918243408,1.4963213205337524
1761340647619112000,2.88211181640625,-2.302997350692749,1.6920042037963867,1.5488038063049316
1761340647629179000,2.892178955078125,-2.123622417449951,1.7008799314498901,1.5759578943252563
1761340647639246000,2.90224609375,-1.7172592878341675,1.712475061416626,1.5576443672180176
1761340647649314000,2.91231396484375,-1.1612972021102905,1.6201097965240479,1.5188087224960327
1761340647659381000,2.922381103515625,-0.5660542845726013,1.3896769285202026,1.4823814630508423
1761340647669448000,2.932447998046875,0.0027327651623636484,1.0617563724517822,1.4325380325317383
1761340647679515000,2.942514892578125,0.4834889769554138,0.7216102480888367,1.3377366065979004
1761340647689582800,2.952582763671875,0.8214738368988037,0.4136348068714142,1.1981375217437744
1761340647699649800,2.96264990234375,1.0586533546447754,0.12743768095970154,1.0039678812026978
1761340647709716700,2.972716796875,1.2109938859939575,-0.16568437218666077,0.7477270364761353
1761340647719784000,2.982783935546875,1.2347500324249268,-0.3849741220474243,0.374557226896286
1761340647729851000,2.992850830078125,1.13792884349823,-0.4574398994445801,-0.11309757083654404
1761340647739918800,3.0029189453125,0.980425238609314,-0.339542031288147,-0.6561691164970398
1761340647749986000,3.012986083984375,0.8404249548912048,-0.11103829741477966,-1.1501097679138184
1761340647760053000,3.023052978515625,0.7540258765220642,0.03302886337041855,-1.5229488611221313
1761340647770120000,3.033119873046875,0.7017114758491516,0.08065459877252579,-1.7318788766860962
1761340647780187000,3.043186767578125,0.6635110974311829,0.022342827171087265,-1.7750111818313599
1761340647790254800,3.0532548828125,0.619852602481842,-0.12524954974651337,-1.6891071796417236
1761340647800321800,3.06332177734375,0.5886368751525879,-0.2573910653591156,-1.5090171098709106
1761340647810388700,3.073388671875,0.5774258375167847,-0.35468554496765137,-1.2986748218536377
1761340647820456000,3.0834560546875,0.5896375179290771,-0.3896009027957916,-1.1098188161849976
1761340647830523100,3.093523193359375,0.6097757816314697,-0.36790016293525696,-0.9402229189872742
1761340647840590800,3.1035908203125,0.6019498109817505,-0.39042386412620544,-0.7542296051979065
1761340647850658000,3.113657958984375,0.531339704990387,-0.48621994256973267,-0.5400328040122986
1761340647860725000,3.12372509765625,0.4197481870651245,-0.6122178435325623,-0.32579267024993896
1761340647870792000,3.1337919921875,0.30185866355895996,-0.7370169162750244,-0.15921249985694885
1761340647880860000,3.14385986328125,0.20263993740081787,-0.855018675327301,-0.05049455165863037
1761340647890926800,3.1539267578125,0.14736586809158325,-0.9309532642364502,-0.01193906832486391
1761340647900993800,3.163993896484375,0.13358508050441742,-0.9626928567886353,-0.0360739640891552
1761340647911060700,3.174060791015625,0.1664782613515854,-0.9111678004264832,-0.11065515875816345
1761340647921128000,3.1841279296875,0.19329841434955597,-0.7295607328414917,-0.18668334186077118
1761340647931196000,3.19419580078125,0.18468469381332397,-0.502691924571991,-0.2570142447948456
1761340647941262800,3.204262939453125,0.13730518519878387,-0.19538122415542603,-0.33383873105049133
1761340647951330000,3.214330078125,0.10396777838468552,0.06727725267410278,-0.4303879141807556
1761340647961397000,3.22439697265625,0.20730295777320862,0.2406754195690155,-0.5876595377922058
1761340647971464000,3.2344638671875,0.5172751545906067,0.4520740807056427,-0.7704671621322632
1761340647981532000,3.244531982421875,0.9408394694328308,0.7964754104614258,-0.7140268087387085
1761340647991598800,3.254598876953125,1.3014063835144043,0.9538558125495911,-0.3612605333328247
1761340648001665800,3.264665771484375,1.4800786972045898,0.8342207670211792,0.14659975469112396
1761340648011732700,3.274732666015625,1.5482285022735596,0.3357674181461334,0.5765808820724487
1761340648021799700,3.284799560546875,1.4664896726608276,-0.3226024806499481,0.8663844466209412
1761340648031868000,3.294867919921875,1.3210853338241577,-1.112998604774475,0.9553738832473755
1761340648041934800,3.304934814453125,1.237548589706421,-1.9862382411956787,0.8139371275901794
1761340648052002000,3.315001953125,1.3779010772705078,-2.9042446613311768,0.5597862601280212
1761340648062069000,3.325069091796875,1.7052628993988037,-3.527181625366211,0.4965476095676422
1761340648072137000,3.335136962890625,2.0708296298980713,-3.332890510559082,0.7300805449485779
1761340648082204000,3.345203857421875,2.196549892425537,-2.738654851913452,1.1459683179855347
1761340648092270800,3.355270751953125,2.0413551330566406,-2.2651708126068115,1.5330681800842285
1761340648102337800,3.365337890625,1.6752233505249023,-1.9526145458221436,1.7249788045883179
1761340648112404700,3.37540478515625,1.166330099105835,-1.6955926418304443,1.7116813659667969
1761340648122473000,3.385472900390625,0.5485801100730896,-1.4809436798095703,1.52279531955719
1761340648132540000,3.395539794921875,-0.09559652954339981,-1.3300610780715942,1.2133870124816895
1761340648142606800,3.40560693359375,-0.6606950163841248,-1.250191569328308,0.8274419903755188
1761340648152674000,3.415674072265625,-1.120208740234375,-1.078480839729309,0.36078354716300964
1761340648162741000,3.425740966796875,-1.490642786026001,-0.5676907896995544,-0.18077638745307922
1761340648172809000,3.43580908203125,-1.8104403018951416,0.23455467820167542,-0.7877305746078491
1761340648182876000,3.4458759765625,-2.0671093463897705,1.1935720443725586,-1.3652880191802979
1761340648192942800,3.45594287109375,-2.161076307296753,2.0113754272460938,-1.7635085582733154
1761340648203009800,3.466009765625,-2.05947208404541,2.5230836868286133,-1.8663842678070068
1761340648213076700,3.47607666015625,-1.8728755712509155,2.6013076305389404,-1.6822729110717773
1761340648223145000,3.48614501953125,-1.7584573030471802,2.083317995071411,-1.1848011016845703
1761340648233212000,3.4962119140625,-1.713477373123169,1.1823793649673462,-0.5353992581367493
1761340648243279000,3.506279052734375,-1.6323797702789307,0.31619614362716675,-0.015092402696609497
1761340648253346000,3.516345947265625,-1.4591082334518433,-0.15909461677074432,0.24202051758766174
1761340648263414000,3.5264140625,-1.1809778213500977,-0.2812817692756653,0.17041850090026855
1761340648273481000,3.53648095703125,-0.8242143988609314,-0.11574302613735199,-0.12007004022598267
1761340648283548000,3.5465478515625,-0.45976585149765015,0.21391823887825012,-0.49867725372314453
1761340648293614800,3.55661474609375,-0.18817712366580963,0.4691571295261383,-0.8199931383132935
1761340648303681800,3.566681884765625,-0.006371902767568827,0.6093059778213501,-1.0203802585601807
1761340648313750000,3.57675,0.05653204768896103,0.6067404747009277,-1.101637601852417
1761340648323817000,3.58681689453125,-0.005578726530075073,0.4751123785972595,-1.0964149236679077
1761340648333884000,3.5968837890625,-0.0968405231833458,0.30712035298347473,-1.0716314315795898
1761340648343951000,3.606951171875,-0.19358225166797638,0.18198823928833008,-1.0338667631149292
1761340648354018000,3.61701806640625,-0.22633667290210724,0.11460957676172256,-0.9787650108337402
1761340648364086000,3.6270859375,-0.1611744463443756,0.10936474800109863,-0.8806821703910828
1761340648374153000,3.637153076171875,-0.0195918045938015,0.17924492061138153,-0.7349272966384888
1761340648384220000,3.647219970703125,0.13921648263931274,0.28554606437683105,-0.5234826803207397
1761340648394286800,3.657286865234375,0.2761567533016205,0.3102107644081116,-0.22809436917304993
1761340648404353800,3.667353759765625,0.3902636170387268,0.18507999181747437,0.11797887831926346
1761340648414421800,3.677421875,0.48954665660858154,-0.06839814782142639,0.4716896712779999
1761340648424489000,3.687489013671875,0.5766038298606873,-0.3771067261695862,0.786432147026062
1761340648434556000,3.697555908203125,0.6622801423072815,-0.6587070822715759,1.0129821300506592
1761340648444623000,3.707623046875,0.7342289090156555,-0.8476293087005615,1.1462560892105103
1761340648454690000,3.71768994140625,0.7929773330688477,-0.9442841410636902,1.2227567434310913
1761340648464758000,3.727758056640625,0.8059232234954834,-0.973214864730835,1.2563611268997192
1761340648474825000,3.737824951171875,0.7621870636940002,-0.9266237616539001,1.2312201261520386
1761340648484892000,3.747891845703125,0.65953528881073,-0.7654117345809937,1.1456499099731445
1761340648494958800,3.757958740234375,0.46500325202941895,-0.4532816410064697,0.9761881828308105
1761340648505025800,3.76802587890625,0.20209971070289612,-0.02608479931950569,0.6932877898216248
1761340648515093800,3.77809375,-0.07237818092107773,0.48465490341186523,0.22651657462120056
1761340648525161000,3.788160888671875,-0.3161442279815674,1.1367110013961792,-0.4065714180469513
1761340648535228000,3.798227783203125,-0.4272739589214325,1.8064168691635132,-1.239825963973999
1761340648545295000,3.808295166015625,-0.26393988728523254,2.093329906463623,-2.128239870071411
1761340648555362000,3.818362060546875,0.1668412834405899,1.8081132173538208,-2.5073001384735107
1761340648565430000,3.828429931640625,0.7375137805938721,1.339026689529419,-1.9317370653152466
1761340648575497000,3.8384970703125,1.2176594734191895,0.6472411751747131,-0.633283793926239
1761340648585563600,3.848563720703125,1.3653863668441772,-0.26846009492874146,0.6785216927528381
1761340648595630600,3.858630615234375,1.2103701829910278,-1.2102066278457642,1.3964836597442627
1761340648605697500,3.868697509765625,1.10112726688385,-1.9355978965759277,1.4048446416854858
1761340648615765800,3.878765869140625,1.2888675928115845,-2.241888999938965,1.004404067993164
1761340648625832700,3.888832763671875,1.5894420146942139,-2.0327377319335938,0.7677502036094666
1761340648635900000,3.89889990234375,1.7943854331970215,-1.3221262693405151,1.0419738292694092
1761340648645966800,3.908966796875,1.7393379211425781,-0.48527291417121887,1.4578802585601807
1761340648656034800,3.919034912109375,1.4865047931671143,0.12278766930103302,1.6295721530914307
1761340648666101800,3.929101806640625,1.1010441780090332,0.3895469307899475,1.5230225324630737
1761340648676168700,3.939168701171875,0.6071757674217224,0.2810051441192627,1.2391083240509033
1761340648686235600,3.949235595703125,0.06603583693504333,-0.14152264595031738,0.9016221761703491
1761340648696302600,3.959302490234375,-0.5420584082603455,-0.6667927503585815,0.5170596241950989
1761340648706370600,3.96937060546875,-1.2053922414779663,-0.8579829335212708,-0.010655909776687622
1761340648716437800,3.979437744140625,-1.9855812788009644,-0.5619796514511108,-0.660643994808197
1761340648726504700,3.989504638671875,-2.6647000312805176,0.08767212927341461,-1.2909358739852905
1761340648736572000,3.999572021484375,-2.9870641231536865,0.8918891549110413,-1.621260404586792
1761340648746638800,4.009638916015625,-2.861666679382324,1.4906926155090332,-1.4938199520111084
1761340648756705800,4.019705810546875,-2.3948187828063965,1.7382230758666992,-1.0222309827804565
1761340648766772700,4.029772705078125,-1.8245177268981934,1.670083999633789,-0.3796350061893463
1761340648776839700,4.039839599609375,-1.3079122304916382,1.3139375448226929,0.3721180856227875
1761340648786906600,4.04990673828125,-0.8386946320533752,0.7952930927276611,1.0689550638198853
1761340648796974600,4.059974609375,-0.4403019845485687,0.27265021204948425,1.6035630702972412
1761340648807041500,4.07004150390625,-0.13610267639160156,-0.1828315705060959,1.9234992265701294
1761340648817108700,4.080108642578125,0.06816191971302032,-0.4635735750198364,1.9916421175003052
1761340648827175700,4.09017578125,0.17308486998081207,-0.5138804316520691,1.7512692213058472
1761340648837242600,4.10024267578125,0.1895936131477356,-0.3641743063926697,1.272711157798767
1761340648847310800,4.110310791015625,0.1407267302274704,-0.17924146354198456,0.6602730751037598
1761340648857377800,4.120377685546875,0.045370832085609436,-0.006437960546463728,0.0006392719224095345
1761340648867444700,4.13044482421875,-0.07542376220226288,0.20558801293373108,-0.7309547662734985
1761340648877511700,4.14051171875,-0.1855207085609436,0.4047347903251648,-1.4568949937820435
1761340648887578600,4.15057861328125,-0.26632073521614075,0.4965803027153015,-2.0671846866607666
1761340648897646600,4.160646484375,-0.2997976243495941,0.48328346014022827,-2.4898626804351807
1761340648907713500,4.170713623046875,-0.27864518761634827,0.42540234327316284,-2.700256824493408
1761340648917780700,4.18078076171875,-0.22603635489940643,0.34290751814842224,-2.6805498600006104
1761340648927847700,4.19084765625,-0.0899251252412796,0.16842278838157654,-2.4520466327667236
1761340648937914600,4.20091455078125,0.10458967089653015,-0.04052365943789482,-2.0380988121032715
1761340648947982800,4.21098291015625,0.30563971400260925,-0.24563179910182953,-1.5252429246902466
1761340648958049800,4.2210498046875,0.4671124815940857,-0.4236081838607788,-1.0173418521881104
1761340648968116700,4.23111669921875,0.5531480312347412,-0.5297958850860596,-0.6106230616569519
1761340648978183700,4.24118359375,0.5768402218818665,-0.5521582961082458,-0.3008165955543518
1761340648988250600,4.251250732421875,0.5552963018417358,-0.5378477573394775,-0.07430434226989746
1761340648998318600,4.261318603515625,0.48235684633255005,-0.5013686418533325,0.1022045910358429
1761340649008385500,4.271385498046875,0.3759494423866272,-0.41711366176605225,0.2396724373102188
1761340649018452700,4.28145263671875,0.2584303021430969,-0.4039734899997711,0.4110441207885742
1761340649028519700,4.291519775390625,0.1599881649017334,-0.5062506198883057,0.618246853351593
1761340649038586600,4.301586669921875,0.10990580916404724,-0.5998573899269104,0.8082957863807678
1761340649048654800,4.31165478515625,0.06813546270132065,-0.5889541506767273,0.949639618396759
1761340649058721800,4.3217216796875,0.05115281417965889,-0.44481945037841797,1.0399361848831177
1761340649068788700,4.331788818359375,0.04736420139670372,-0.17677950859069824,1.0462367534637451
1761340649078855700,4.341855712890625,0.05554061383008957,0.2133285403251648,0.8865203857421875
1761340649088922600,4.351922607421875,0.09698019921779633,0.6692265272140503,0.5880431532859802
1761340649098990600,4.361990478515625,0.1445300132036209,1.2060320377349854,0.1725054532289505
1761340649109057800,4.372057861328125,0.23818407952785492,1.7808846235275269,-0.3146980106830597
1761340649119124700,4.382124755859375,0.36099088191986084,2.2742257118225098,-0.7019977569580078
1761340649129191700,4.392191650390625,0.45310160517692566,2.3151614665985107,-0.8636516332626343
1761340649139260000,4.402260009765625,0.5580707788467407,1.5035902261734009,-0.9004412293434143
1761340649149326800,4.412326904296875,0.6650659441947937,-0.022001592442393303,-0.9121729731559753
1761340649159393800,4.422393798828125,0.7425441145896912,-1.6161363124847412,-0.7782619595527649
1761340649169461800,4.432461669921875,0.7433593273162842,-2.8229167461395264,-0.589290976524353
1761340649179528700,4.44252880859375,0.8888995051383972,-3.572998285293579,-0.4475458562374115
1761340649189595600,4.452595703125,1.353155255317688,-3.738111972808838,-0.25709015130996704
1761340649199662600,4.46266259765625,2.0671794414520264,-2.8518118858337402,0.1286015808582306
1761340649209729800,4.472729736328125,2.8770229816436768,-1.397120714187622,0.8067228198051453
1761340649219797500,4.482797607421875,3.206946849822998,-0.421572208404541,1.4468284845352173
1761340649229864700,4.49286474609375,3.210070848464966,0.017462672665715218,1.8347445726394653
1761340649239932000,4.502931884765625,2.785980224609375,0.21550199389457703,1.9623444080352783
1761340649249998800,4.512998779296875,1.2610174417495728,0.099916011095047,1.9665011167526245
1761340649260065800,4.523065673828125,-1.2238373756408691,-0.8480799794197083,2.0604915618896484
1761340649270133800,4.5331337890625,-3.7916853427886963,-1.1502033472061157,1.3670084476470947
1761340649280200700,4.54320068359375,-5.176547527313232,-0.03840698301792145,0.5457771420478821
1761340649290267600,4.553267578125,-5.377989768981934,1.5303285121917725,0.002900836057960987
1761340649300334600,4.56333447265625,-4.766940593719482,2.6069159507751465,-0.23921874165534973
1761340649310401800,4.57340185546875,-3.4156157970428467,2.5220000743865967,-0.2328183650970459
1761340649320469500,4.583469482421875,-1.6695263385772705,1.7526373863220215,-0.13485775887966156
1761340649330536700,4.59353662109375,-0.4454842209815979,1.135664463043213,0.16996899247169495
1761340649340603600,4.603603759765625,0.20364920794963837,0.4284011423587799,0.6385245323181152
1761340649350670800,4.6136708984375,0.6222916841506958,-0.4005199670791626,1.2214577198028564
1761340649360737800,4.62373779296875,0.8798918724060059,-1.2171958684921265,1.7927366495132446
1761340649370805800,4.6338056640625,0.9965686798095703,-1.873547077178955,2.2355446815490723
1761340649380872700,4.643872802734375,1.0500086545944214,-2.1760106086730957,2.4274566173553467
1761340649390939600,4.653939697265625,1.0446913242340088,-2.0981907844543457,2.308354616165161
1761340649401006600,4.664006591796875,0.990486741065979,-1.7405096292495728,1.887200117111206
1761340649411073800,4.67407373046875,0.8771482110023499,-1.2111496925354004,1.2220820188522339
1761340649421141500,4.6841416015625,0.7038885354995728,-0.591721773147583,0.39205414056777954
1761340649431208700,4.694208740234375,0.472104012966156,-0.044937796890735626,-0.46485307812690735
1761340649441275600,4.704275634765625,0.24552267789840698,0.3405565917491913,-1.2208454608917236
1761340649451342800,4.7143427734375,0.03877829387784004,0.6107550859451294,-1.7901155948638916
1761340649461409800,4.724409912109375,-0.11627340316772461,0.7624204754829407,-2.1809775829315186
1761340649471477800,4.734477783203125,-0.21535710990428925,0.819776713848114,-2.391411542892456
1761340649481544700,4.744544677734375,-0.2580609917640686,0.8079828023910522,-2.454153537750244
1761340649491611600,4.754611572265625,-0.21524536609649658,0.7135872840881348,-2.3652000427246094
1761340649501678600,4.7646787109375,-0.08891495317220688,0.5404730439186096,-2.148566246032715
1761340649511745800,4.774745849609375,0.09053416550159454,0.3221670985221863,-1.8108986616134644
1761340649521813500,4.7848134765625,0.28902673721313477,0.10343591868877411,-1.376474142074585
1761340649531880700,4.794880615234375,0.4501466751098633,-0.1049114316701889,-0.879122257232666
1761340649541947600,4.80494775390625,0.534919798374176,-0.307239294052124,-0.3729483187198639
1761340649552014600,4.8150146484375,0.5404474139213562,-0.477485328912735,0.06324418634176254
1761340649562081800,4.825081787109375,0.5013810992240906,-0.6263427138328552,0.38616877794265747
1761340649572149800,4.835149658203125,0.45519891381263733,-0.7192420363426208,0.5701452493667603
1761340649582216400,4.845216552734375,0.4025801420211792,-0.7274618148803711,0.6312485933303833
1761340649592283400,4.855283447265625,0.3572891056537628,-0.6683409810066223,0.5739155411720276
1761340649602350600,4.8653505859375,0.30054181814193726,-0.4866565763950348,0.40060022473335266
1761340649612417500,4.87541748046875,0.23868563771247864,-0.20462460815906525,0.1931045651435852
1761340649622485500,4.885485595703125,0.17594705522060394,0.10286524146795273,0.017951728776097298
1761340649632552400,4.895552490234375,0.1221751719713211,0.36361587047576904,-0.09956638514995575
1761340649642619400,4.905619384765625,0.0778563916683197,0.5330466628074646,-0.1833018660545349
1761340649652686300,4.915686279296875,0.04343610256910324,0.6812609434127808,-0.28402796387672424
1761340649662753300,4.925753173828125,0.01316770724952221,0.9969701170921326,-0.4883299767971039
1761340649672821500,4.935821533203125,0.010028372518718243,1.5215131044387817,-0.7979767918586731
1761340649682888400,4.945888427734375,0.10869626700878143,2.1196694374084473,-1.123010516166687
1761340649692955400,4.955955322265625,0.2541687786579132,2.7292447090148926,-1.3366767168045044
1761340649703022600,4.966022705078125,0.3342564105987549,2.821814775466919,-1.411946415901184
1761340649713089500,4.976089599609375,0.1416294127702713,1.9240577220916748,-1.485174298286438
1761340649723157500,4.986157470703125,-0.2315378338098526,0.006108713336288929,-1.6529334783554077
1761340649733224400,4.996224365234375,-0.5465309619903564,-1.9824105501174927,-1.8777008056640625
1761340649743291400,5.00629150390625,-0.6958891749382019,-3.5375723838806152,-2.0319392681121826
1761340649753358300,5.0163583984375,-0.5011029243469238,-4.450667858123779,-1.928826093673706
1761340649763425300,5.02642529296875,0.024199869483709335,-4.04653787612915,-1.3092420101165771
1761340649773493500,5.036493408203125,0.6454439759254456,-2.282191276550293,-0.1379837989807129
1761340649783560400,5.046560546875,0.9791294932365417,-0.4517938792705536,0.9402654767036438
1761340649793627400,5.05662744140625,0.8627786636352539,0.588343620300293,1.4096460342407227
1761340649803694600,5.066694580078125,0.44846922159194946,1.0864609479904175,1.3872017860412598
1761340649813761500,5.076761474609375,-0.7463183403015137,1.2791239023208618,1.1224037408828735
1761340649823829500,5.08682958984375,-2.745380163192749,0.8780007362365723,1.0099140405654907
1761340649833896400,5.096896484375,-4.453919410705566,0.7560362219810486,0.7336882948875427
1761340649843963400,5.10696337890625,-5.373232841491699,1.386724591255188,0.39566683769226074
1761340649854030300,5.1170302734375,-5.460202217102051,2.1877593994140625,0.2793085277080536
1761340649864097300,5.12709716796875,-4.4687676429748535,2.657170295715332,0.25356829166412354
1761340649874165500,5.13716552734375,-3.158704996109009,2.4276504516601562,0.42707082629203796
1761340649884232400,5.147232421875,-2.385821580886841,1.6783864498138428,0.7536925077438354
1761340649894299400,5.15729931640625,-1.971166729927063,0.8908165097236633,1.1072090864181519
1761340649904366600,5.16736669921875,-1.5983312129974365,0.2684501111507416,1.3955267667770386
1761340649914433500,5.17743359375,-1.2398006916046143,-0.18349364399909973,1.5845332145690918
1761340649924500500,5.18750048828125,-0.899190366268158,-0.4471721053123474,1.640260100364685
1761340649934568400,5.197568359375,-0.5615785121917725,-0.5125471353530884,1.553737998008728
1761340649944635400,5.207635498046875,-0.23363442718982697,-0.4030894637107849,1.3353856801986694
1761340649954702300,5.217702392578125,0.05592069774866104,-0.17019414901733398,1.0909568071365356
1761340649964769300,5.227769287109375,0.3011842668056488,0.06525731086730957,0.8766564130783081
1761340649974836200,5.237836181640625,0.44834843277931213,0.2210354506969452,0.739995539188385
1761340649984904400,5.247904541015625,0.4905164837837219,0.20019030570983887,0.6531513929367065
1761340649994971400,5.257971435546875,0.4307168126106262,0.06849992275238037,0.5725143551826477
1761340650005038600,5.26803857421875,0.28428271412849426,-0.14223062992095947,0.47043049335479736
1761340650015105500,5.27810546875,0.09682174026966095,-0.42510679364204407,0.2902314066886902
1761340650025172500,5.28817236328125,-0.11137093603610992,-0.6435819268226624,-0.01969658024609089
1761340650035240400,5.298240478515625,-0.26848095655441284,-0.6244878768920898,-0.43773484230041504
1761340650045307400,5.308307373046875,-0.3558817505836487,-0.43477633595466614,-0.902812123298645
1761340650055374300,5.318374267578125,-0.42189350724220276,-0.14637036621570587,-1.3860297203063965
1761340650065441300,5.328441162109375,-0.4359366297721863,0.26951685547828674,-1.824275255203247
1761340650075508500,5.338508544921875,-0.34874847531318665,0.7018885612487793,-2.113574981689453
1761340650085576400,5.348576416015625,-0.15381768345832825,0.9139973521232605,-2.2014265060424805
1761340650095643600,5.3586435546875,0.09826010465621948,0.88691645860672,-2.0498087406158447
1761340650105710600,5.368710693359375,0.3640567660331726,0.6687862873077393,-1.6632357835769653
1761340650115777500,5.378777587890625,0.6251860857009888,0.2821265161037445,-1.0653259754180908
1761340650125844500,5.388844482421875,0.8907691836357117,-0.1407962143421173,-0.36945250630378723
1761340650135912400,5.398912353515625,1.1537197828292847,-0.47845733165740967,0.2767387628555298
1761340650145979400,5.4089794921875,1.3885653018951416,-0.6493905782699585,0.7767080068588257
1761340650156046300,5.41904638671875,1.5941386222839355,-0.6477511525154114,1.139057993888855
1761340650166113300,5.42911328125,1.7376779317855835,-0.5521432161331177,1.3346525430679321
1761340650176180500,5.439180419921875,1.7929797172546387,-0.3654998540878296,1.348139762878418
1761340650186248400,5.44924853515625,1.7719919681549072,-0.11854272335767746,1.2109079360961914
1761340650196315600,5.459315673828125,1.6919783353805542,0.11234135180711746,0.9803200364112854
1761340650206382600,5.469382568359375,1.5640413761138916,0.30682533979415894,0.6787665486335754
1761340650216449500,5.479449462890625,1.404491901397705,0.5241124033927917,0.3054582476615906
1761340650226516500,5.4895166015625,1.2258565425872803,0.7936856150627136,-0.08440051227807999
1761340650236583400,5.49958349609375,1.1436785459518433,1.0499041080474854,-0.43938949704170227
1761340650246651400,5.5096513671875,1.2233686447143555,1.1831825971603394,-0.6487483382225037
1761340650256718300,5.51971826171875,1.3929325342178345,1.011151671409607,-0.7408468127250671
1761340650266785300,5.529785400390625,1.5314388275146484,0.39949941635131836,-0.7663684487342834
1761340650276852500,5.5398525390625,1.3929719924926758,-0.6800265312194824,-0.988168478012085
1761340650286919400,5.54991943359375,0.8686484694480896,-2.3307478427886963,-1.7865511178970337
1761340650296987600,5.559987548828125,0.3894043564796448,-4.159414291381836,-3.087251901626587
1761340650307054600,5.5700546875,0.3993525803089142,-5.452855110168457,-4.106058120727539
1761340650317121500,5.58012158203125,0.5898271799087524,-5.363000869750977,-4.054009914398193
1761340650327188500,5.5901884765625,0.6232804656028748,-3.633969783782959,-2.5921576023101807
1761340650337255400,5.60025537109375,0.812004029750824,-1.3070828914642334,-0.35364478826522827
1761340650347323400,5.610323486328125,0.9327670931816101,0.33206966519355774,1.4242517948150635
1761340650357390300,5.620390380859375,0.7929220795631409,1.1051307916641235,2.0446348190307617
1761340650367457300,5.630457275390625,0.528437077999115,1.4666115045547485,1.817571759223938
1761340650377524500,5.6405244140625,0.19394218921661377,1.7126919031143188,1.3343933820724487
1761340650387591400,5.65059130859375,-0.1490529626607895,1.9052232503890991,1.0176194906234741
1761340650397659600,5.66065966796875,-0.47839704155921936,1.938405156135559,0.9994790554046631
1761340650407726600,5.6707265625,-0.7373430728912354,1.7203162908554077,1.2019747495651245
1761340650417793500,5.68079345703125,-0.9092170596122742,1.2882641553878784,1.519473910331726
1761340650427860500,5.690860595703125,-0.9870185852050781,0.7432418465614319,1.8461060523986816
1761340650437927400,5.700927490234375,-0.9920879602432251,0.2063549906015396,2.0728068351745605
1761340650447995400,5.710995361328125,-0.9693295359611511,-0.23268751800060272,2.132547616958618
1761340650458062300,5.721062255859375,-0.8737183213233948,-0.4560641348361969,2.028106212615967
1761340650468129300,5.73112939453125,-0.6799565553665161,-0.3301568031311035,1.7722700834274292
1761340650478196500,5.741196533203125,-0.4169278144836426,0.028636503964662552,1.4271841049194336
1761340650488263400,5.751263427734375,-0.13691306114196777,0.41469407081604004,1.0988609790802002
1761340650498331600,5.76133154296875,0.08429522067308426,0.687342643737793,0.8525431752204895
1761340650508398600,5.771398681640625,0.201861172914505,0.8179845213890076,0.690265417098999
1761340650518465500,5.781465576171875,0.2301335632801056,0.8055944442749023,0.5842812061309814
1761340650528532500,5.791532470703125,0.18419314920902252,0.6770309805870056,0.4982694387435913
1761340650538599400,5.801599365234375,0.08700694143772125,0.5016788840293884,0.3691748380661011
1761340650548666400,5.811666259765625,-0.03368997946381569,0.35386085510253906,0.1674039363861084
1761340650558734300,5.821734375,-0.15627874433994293,0.23461012542247772,-0.08219602704048157
1761340650568801300,5.83180126953125,-0.27251771092414856,0.17165948450565338,-0.41112273931503296
1761340650578868500,5.841868408203125,-0.3628217577934265,0.20851044356822968,-0.7728753685951233
1761340650588936000,5.85193603515625,-0.40527382493019104,0.2695724368095398,-1.1207475662231445
1761340650599003000,5.8620029296875,-0.4096669554710388,0.3110724687576294,-1.3950427770614624
1761340650609071000,5.872071044921875,-0.4201308488845825,0.3142646849155426,-1.5755501985549927
1761340650619138000,5.882137939453125,-0.42311200499534607,0.23555521667003632,-1.6635509729385376
1761340650629205000,5.892205078125,-0.40283432602882385,0.08801285177469254,-1.6950249671936035
1761340650639272000,5.90227197265625,-0.3275297284126282,-0.08108136802911758,-1.6688753366470337
1761340650649339000,5.9123388671875,-0.20617598295211792,-0.24299581348896027,-1.574324369430542
1761340650659406800,5.92240673828125,-0.07318864017724991,-0.3470521569252014,-1.414496660232544
1761340650669473800,5.932473876953125,0.06749261170625687,-0.4072929620742798,-1.1901943683624268
1761340650679541000,5.942541015625,0.17798450589179993,-0.4338665306568146,-0.9141911268234253
1761340650689608000,5.95260791015625,0.27006128430366516,-0.39160391688346863,-0.6324055194854736
1761340650699675000,5.9626748046875,0.36403438448905945,-0.27700304985046387,-0.3649684488773346
1761340650709743000,5.9727431640625,0.4878869652748108,-0.180784210562706,-0.1134820431470871
1761340650719810000,5.98281005859375,0.5994411706924438,-0.15446846187114716,0.13481459021568298
1761340650729877000,5.992876953125,0.6765788793563843,-0.20681820809841156,0.36705049872398376
1761340650739944000,6.00294384765625,0.7336349487304688,-0.285778284072876,0.5691699981689453
1761340650750011000,6.013010986328125,0.7727424502372742,-0.33686456084251404,0.726545512676239
1761340650760078000,6.023078125,0.7892265915870667,-0.3707572817802429,0.7590177059173584
1761340650770145800,6.033145751953125,0.7758565545082092,-0.30430155992507935,0.5585228204727173
1761340650780213000,6.043212890625,0.7460344433784485,-0.09887250512838364,0.1386653184890747
1761340650790280000,6.053280029296875,0.7631279230117798,0.14477083086967468,-0.38329073786735535
1761340650800347000,6.063346923828125,0.8230022192001343,0.3925984799861908,-0.8052409291267395
1761340650810414000,6.0734140625,0.8698920607566833,0.7496344447135925,-0.9348217248916626
1761340650820482000,6.08348193359375,0.8330354690551758,1.0478745698928833,-0.6987056136131287
1761340650830549000,6.093549072265625,0.6733015775680542,1.0009465217590332,-0.3973999321460724
1761340650840616000,6.103615966796875,0.4372999370098114,0.5950875878334045,-0.34652501344680786
1761340650850683000,6.113682861328125,0.054005105048418045,-0.040668752044439316,-0.6213189959526062
1761340650860750000,6.12375,-0.41801917552948,-0.9910297989845276,-1.1800867319107056
1761340650870817800,6.13381787109375,-0.7170946002006531,-2.02166748046875,-1.983924388885498
1761340650880885000,6.143885009765625,-0.5384697318077087,-2.7077369689941406,-2.770223617553711
1761340650890952000,6.153951904296875,0.24821358919143677,-2.501335620880127,-2.9614546298980713
1761340650901019000,6.164018798828125,1.4537001848220825,-1.3638535737991333,-2.557084798812866
1761340650911085800,6.1740859375,2.3857908248901367,0.5795636177062988,-3.040705680847168
1761340650921154000,6.184154052734375,1.76630437374115,1.3602991104125977,-3.938629627227783
1761340650931221000,6.194220947265625,0.2310713529586792,0.9590580463409424,-2.9902186393737793
1761340650941288000,6.204287841796875,-1.8886830806732178,0.8400333523750305,0.07229478657245636
1761340650951355000,6.21435498046875,-2.8150320053100586,-0.32386282086372375,2.6364455223083496
1761340650961422000,6.224422119140625,-2.733168125152588,-1.262019395828247,4.130985260009766
1761340650971489800,6.23448974609375,-2.520542621612549,-1.8403810262680054,4.5057573318481445
1761340650981557000,6.244556884765625,-2.366309881210327,-2.4486989974975586,4.025461673736572
1761340650991624000,6.2546240234375,-2.1341562271118164,-2.646937131881714,2.9676294326782227
1761340651001691000,6.26469091796875,-1.8640717267990112,-2.166815757751465,1.7442090511322021
1761340651011757800,6.2747578125,-1.760471224784851,-1.2497752904891968,0.6125227212905884
1761340651021825000,6.284824951171875,-1.8811228275299072,-0.2765912115573883,-0.3247704803943634
1761340651031893000,6.29489306640625,-2.132432460784912,0.6190674304962158,-0.9220880270004272
1761340651041960000,6.3049599609375,-2.3934147357940674,1.3438912630081177,-1.197650671005249
1761340651052027000,6.31502685546875,-2.5433754920959473,1.8559602499008179,-1.190805196762085
1761340651062094000,6.325093994140625,-2.5305051803588867,2.0510494709014893,-0.9498365521430969
1761340651072161000,6.3351611328125,-2.342700719833374,1.9264180660247803,-0.5074456334114075
1761340651082229000,6.34522900390625,-2.0105466842651367,1.5379362106323242,0.06844061613082886
1761340651092296000,6.3552958984375,-1.6094651222229004,0.9661126136779785,0.6886680126190186
1761340651102363000,6.36536279296875,-1.2070337533950806,0.3308621942996979,1.2476874589920044
1761340651112429800,6.375429931640625,-0.8016848564147949,-0.23868054151535034,1.6801984310150146
1761340651122496800,6.385496826171875,-0.4179467260837555,-0.6031926870346069,1.9522148370742798
1761340651132565000,6.39556494140625,-0.092397540807724,-0.8205403685569763,2.0993759632110596
1761340651142632000,6.4056318359375,0.15153470635414124,-0.8717303276062012,2.1362481117248535
1761340651152699000,6.415698974609375,0.3141944110393524,-0.7844190001487732,2.0917911529541016
1761340651162766000,6.42576611328125,0.3897528052330017,-0.5960525274276733,1.9482626914978027
1761340651172833000,6.4358330078125,0.4166800379753113,-0.33457279205322266,1.7008633613586426
1761340651182900000,6.44589990234375,0.4115707576274872,-0.06888653337955475,1.3357713222503662
1761340651192968000,6.455968017578125,0.3796877861022949,0.2027229219675064,0.8934191465377808
1761340651203035000,6.466034912109375,0.3406309187412262,0.4403839409351349,0.3933355212211609
1761340651213101800,6.476101806640625,0.3251758813858032,0.5787185430526733,-0.16966868937015533
1761340651223168800,6.486168701171875,0.32659798860549927,0.6560181379318237,-0.6991897821426392
1761340651233236000,6.496236083984375,0.34341374039649963,0.5846985578536987,-1.0892441272735596
1761340651243304000,6.506303955078125,0.3126622140407562,0.3332016170024872,-1.2826071977615356
1761340651253371000,6.516370849609375,0.2011389136314392,0.009446628391742706,-1.2710164785385132
1761340651263438000,6.52643798828125,0.06314375251531601,-0.21891197562217712,-1.1366808414459229
1761340651273505000,6.536505126953125,0.019130948930978775,0.1639656126499176,-1.013281226158142
1761340651283572000,6.546572021484375,-0.14229123294353485,-0.1534147411584854,-0.9288368821144104
1761340651293639000,6.556638916015625,-0.5850620865821838,-1.1754688024520874,-1.0501154661178589
1761340651303707000,6.566706787109375,-1.0110414028167725,-2.0992538928985596,-1.7414838075637817
1761340651313773800,6.57677392578125,-1.012539029121399,-2.6180269718170166,-2.740198850631714
1761340651323840800,6.5868408203125,-0.8578075170516968,-2.5923099517822266,-3.2488064765930176
1761340651333908000,6.596907958984375,-0.7871509790420532,-1.8108246326446533,-2.9293572902679443
1761340651343975200,6.60697509765625,-0.6669005155563354,-0.5327951908111572,-1.9306915998458862
1761340651354043000,6.61704296875,-0.4038432240486145,0.9012610912322998,-0.48402905464172363
1761340651364110000,6.627110107421875,-0.0741068571805954,1.890794038772583,0.9756971597671509
1761340651374177000,6.637177001953125,0.12367825210094452,2.240278720855713,2.053222417831421
1761340651384244000,6.647243896484375,0.07966125011444092,1.9752795696258545,2.661750316619873
1761340651394311000,6.657310791015625,-0.07938742637634277,1.3989704847335815,2.803572654724121
1761340651404379000,6.66737890625,-0.09115966409444809,0.5319041609764099,2.670768976211548
1761340651414445800,6.67744580078125,-0.08009913563728333,0.09790372103452682,2.3519420623779297
1761340651424512800,6.6875126953125,0.010393748059868813,-0.07589257508516312,1.8111013174057007
1761340651434580000,6.697580078125,0.16560667753219604,-0.13170385360717773,1.100209355354309
1761340651444647200,6.707647216796875,0.2854507863521576,-0.04998315870761871,0.2867257297039032
1761340651454714000,6.717714111328125,0.35862526297569275,0.2038690447807312,-0.49102771282196045
1761340651464782000,6.727781982421875,0.4308376610279083,0.4359736740589142,-1.1050328016281128
1761340651474849000,6.73784912109375,0.4871290326118469,0.4671109616756439,-1.4531514644622803
1761340651484916000,6.747916015625,0.4575679302215576,0.3276502788066864,-1.5079796314239502
1761340651494983000,6.75798291015625,0.3378681540489197,-0.024497389793395996,-1.3726273775100708
1761340651505049900,6.7680498046875,0.17770487070083618,-0.6176578998565674,-1.250921368598938
1761340651515117800,6.778117919921875,0.007500017061829567,-1.3049217462539673,-1.214652419090271
1761340651525184800,6.788184814453125,-0.0981433168053627,-1.8410311937332153,-1.2946524620056152
1761340651535252000,6.798251953125,-0.10144174844026566,-2.0510571002960205,-1.293695092201233
1761340651545319000,6.80831884765625,-0.014837080612778664,-1.6972932815551758,-0.9348114728927612
1761340651555386000,6.81838623046875,0.09957677870988846,-0.6753595471382141,-0.07153285294771194
1761340651565454000,6.8284541015625,0.09765211492776871,-0.05117001384496689,0.6540469527244568
1761340651575521000,6.83852099609375,0.0018367103766649961,0.46102258563041687,1.0220838785171509
1761340651585588200,6.848588134765625,-0.007058247458189726,0.7414398193359375,1.1696804761886597
1761340651595655400,6.858655517578125,-0.05656437575817108,0.7581101059913635,1.12404465675354
1761340651605722400,6.868722412109375,-0.16199733316898346,0.6193253397941589,0.9221458435058594
1761340651615789300,6.878789306640625,-0.20799987018108368,0.4697987735271454,0.6073194742202759
1761340651625857300,6.888857177734375,-0.14313645660877228,0.325626939535141,0.27375078201293945
1761340651635924200,6.89892431640625,-0.0321163609623909,0.21019043028354645,-0.04306678846478462
1761340651645991400,6.908991455078125,0.09675639867782593,0.13967791199684143,-0.30717405676841736
1761340651656058400,6.919058349609375,0.2126770168542862,0.09737641364336014,-0.5085705518722534
1761340651666125300,6.929125244140625,0.2775665521621704,0.051512785255908966,-0.6013620495796204
1761340651676193300,6.939193359375,0.2760574519634247,0.01234061922878027,-0.6228289008140564
1761340651686260200,6.94926025390625,0.24234583973884583,-0.00875108316540718,-0.5856682062149048
1761340651696327400,6.959327392578125,0.19111362099647522,-0.020464450120925903,-0.4829332232475281
1761340651706394400,6.969394287109375,0.11890918761491776,-0.055073291063308716,-0.3462028205394745
1761340651716461300,6.97946142578125,0.05667037516832352,-0.0791098028421402,-0.2216593623161316
1761340651726529300,6.989529296875,0.049987971782684326,-0.0777587816119194,-0.13230951130390167
1761340651736596200,6.99959619140625,0.07180885970592499,-0.0835210382938385,-0.0655980333685875
1761340651746663400,7.009663330078125,0.0972423180937767,-0.1397392898797989,-0.030589982867240906
1761340651756730400,7.01973046875,0.11830552667379379,-0.20853912830352783,-0.007521148771047592
1761340651766797300,7.02979736328125,0.16418834030628204,-0.1630512773990631,0.01829446852207184
1761340651776864300,7.0398642578125,0.2166377156972885,-0.06772603839635849,0.024978164583444595
1761340651786932200,7.04993212890625,0.22794468700885773,-0.009540494531393051,0.021245479583740234
1761340651796999200,7.059999267578125,0.2302270233631134,-0.002018280327320099,0.01580805331468582
1761340651807066400,7.07006640625,0.25239065289497375,0.014315951615571976,0.005210535600781441
1761340651817133300,7.08013330078125,0.26153048872947693,0.0830550566315651,-0.005396366119384766
1761340651827200500,7.090200439453125,0.25443369150161743,0.14284223318099976,-0.003774501383304596
1761340651837268500,7.1002685546875,0.2412860095500946,0.14729146659374237,-0.0012872298248112202
1761340651847335400,7.11033544921875,0.22650733590126038,0.11490343511104584,-0.006230056751519442
1761340651857402400,7.12040234375,0.19586081802845,0.0619201622903347,-0.03577044606208801
1761340651867469300,7.13046923828125,0.1686353236436844,0.05018654093146324,-0.07089807093143463
1761340651877536300,7.140536376953125,0.1309889554977417,0.06683757901191711,-0.09640608727931976
1761340651887603200,7.150603271484375,0.07206199318170547,0.06377653777599335,-0.11685596406459808
1761340651897671200,7.160671142578125,0.011351259425282478,0.04653220251202583,-0.10760209709405899
1761340651907738400,7.17073828125,-0.027241673320531845,0.03773018717765808,-0.07108962535858154
1761340651917805300,7.180805419921875,-0.044314831495285034,0.05754071846604347,-0.0042793829925358295
1761340651927872500,7.19087255859375,-0.04230228066444397,0.06108751520514488,0.05919758975505829
1761340651937939500,7.200939453125,-0.023354826495051384,0.047827884554862976,0.1048334613442421
1761340651948007400,7.21100732421875,0.023619873449206352,0.0740688145160675,0.11851970851421356
1761340651958074400,7.221074462890625,0.0713634192943573,0.14525122940540314,0.08280027657747269
1761340651968141300,7.231141357421875,0.10129176080226898,0.17462269961833954,0.018668964505195618
1761340651978208300,7.241208251953125,0.13228416442871094,0.15449227392673492,-0.040476392954587936
1761340651988275200,7.251275146484375,0.18189086019992828,0.09165818989276886,-0.06574366986751556
1761340651998342400,7.26134228515625,0.22089886665344238,0.02007295750081539,-0.05635835975408554
1761340652008410000,7.27141015625,0.23526102304458618,-0.043102018535137177,-0.025283262133598328
1761340652018477300,7.281477294921875,0.2277713119983673,-0.0828326940536499,0.023961585015058517
1761340652028544500,7.29154443359375,0.1879541277885437,-0.10052062571048737,0.0855378657579422
1761340652038611500,7.301611572265625,0.1364445984363556,-0.08175294101238251,0.13353756070137024
1761340652048678400,7.311678466796875,0.07316282391548157,-0.06129053980112076,0.1424032300710678
1761340652058746400,7.321746337890625,0.005034305155277252,-0.054086148738861084,0.12601202726364136
1761340652068813300,7.331813232421875,-0.0403669998049736,-0.06877747178077698,0.0976986289024353
1761340652078880300,7.34188037109375,-0.08129692077636719,-0.0954185426235199,0.0883391797542572
1761340652088947200,7.351947265625,-0.11243752390146255,-0.12277906388044357,0.0872584730386734
1761340652099014400,7.362014404296875,-0.1255873590707779,-0.1087503656744957,0.0831003487110138
1761340652109081300,7.372081298828125,-0.11094717681407928,-0.06580609828233719,0.06884178519248962
1761340652119149600,7.382149658203125,-0.10128814727067947,-0.020639002323150635,0.0589364729821682
1761340652129216500,7.392216552734375,-0.08582636713981628,0.005786744877696037,0.058311957865953445
1761340652139283500,7.402283447265625,-0.07179563492536545,-0.0033867675811052322,0.055945537984371185
1761340652149350400,7.412350341796875,-0.05614503473043442,-0.0008125556632876396,0.049856219440698624
1761340652159417300,7.422417236328125,-0.031796351075172424,0.02409200370311737,0.026112038642168045
1761340652169485300,7.4324853515625,-0.004610267002135515,0.04621115326881409,0.0007646018639206886
1761340652179552300,7.44255224609375,0.027891280129551888,0.06784959882497787,-0.008086975663900375
1761340652189619200,7.452619140625,0.06056320667266846,0.11340030282735825,-0.007673120126128197
1761340652199686400,7.462686279296875,0.06622698158025742,0.15883521735668182,-0.012724112719297409
1761340652209753300,7.47275341796875,0.060801852494478226,0.19379852712154388,-0.025836188346147537
1761340652219820300,7.4828203125,0.055623095482587814,0.18082380294799805,-0.03805835545063019
1761340652229888500,7.492888427734375,0.0500139445066452,0.13021868467330933,-0.03398797661066055
1761340652239955500,7.50295556640625,0.04005008935928345,0.0843278020620346,0.00004882737994194031
1761340652250022400,7.5130224609375,0.028102615848183632,0.04196542873978615,0.03489203006029129
1761340652260089300,7.52308935546875,0.017339447513222694,-0.0035457266494631767,0.06811514496803284
1761340652270156300,7.53315625,0.010440262034535408,-0.033777929842472076,0.09310252219438553
1761340652280224300,7.543224365234375,0.0027523452881723642,-0.05561887100338936,0.11927156150341034
1761340652290291200,7.553291259765625,-0.003172921948134899,-0.0747760534286499,0.13232636451721191
1761340652300358400,7.5633583984375,-0.00224057724699378,-0.10029691457748413,0.13923119008541107
1761340652310425300,7.57342529296875,0.006354242097586393,-0.12811948359012604,0.12831436097621918
1761340652320492300,7.5834921875,0.016048725694417953,-0.13784392178058624,0.10979612171649933
1761340652330559200,7.593559326171875,0.016495604068040848,-0.1050817221403122,0.07884806394577026
1761340652340627500,7.60362744140625,0.009226012043654919,-0.030035631731152534,0.03349371626973152
1761340652350694400,7.6136943359375,-0.010889377444982529,0.07006993144750595,-0.012699877843260765
1761340652360761300,7.62376123046875,-0.048364780843257904,0.13787800073623657,-0.050983116030693054
1761340652370828300,7.633828369140625,-0.07177982479333878,0.18622449040412903,-0.060731351375579834
1761340652380895500,7.6438955078125,-0.07527662068605423,0.23214511573314667,-0.036106400191783905
1761340652390963200,7.653963134765625,-0.0738009586930275,0.2122262716293335,-0.02103530615568161
1761340652401030400,7.664030517578125,-0.07153837382793427,0.14557421207427979,-0.003648284822702408
1761340652411097300,7.674097412109375,-0.045047108083963394,0.0454886294901371,-0.006319168955087662
1761340652421164300,7.684164306640625,-0.01881534606218338,-0.07696054130792618,-0.02708207443356514
1761340652431231200,7.694231201171875,-0.000763909425586462,-0.17486579716205597,-0.05596911534667015
1761340652441298200,7.704298095703125,0.004007813986390829,-0.19554071128368378,-0.10400982201099396
1761340652451366400,7.714366455078125,-0.00582297844812274,-0.1590692549943924,-0.14879167079925537
1761340652461433300,7.724433349609375,-0.0163688026368618,-0.09784631431102753,-0.15541605651378632
1761340652471500300,7.734500244140625,-0.03356802836060524,-0.008055975660681725,-0.12481740862131119
1761340652481567500,7.7445673828125,-0.050432827323675156,0.06059127300977707,-0.08160732686519623
1761340652491634400,7.754634521484375,-0.05099022760987282,0.07841473817825317,-0.0601760633289814
1761340652501701400,7.764701416015625,-0.048250168561935425,0.05098351091146469,-0.058394186198711395
1761340652511769300,7.774769287109375,-0.04288043454289436,0.0213294830173254,-0.08580103516578674
1761340652521836300,7.784836181640625,-0.03334864228963852,-0.0059974645264446735,-0.1190371960401535
1761340652531903200,7.7949033203125,-0.023792153224349022,-0.00594286946579814,-0.12205615639686584
1761340652541970200,7.80497021484375,-0.02389618381857872,0.011230074800550938,-0.09143002331256866
1761340652552037000,7.815037109375,-0.03444816172122955,0.054094187915325165,-0.03468259423971176
1761340652562105300,7.825105224609375,-0.04759969189763069,0.09923878312110901,0.00930711068212986
1761340652572172300,7.83517236328125,-0.04843752458691597,0.13708603382110596,0.01466672308743
1761340652582239500,7.845239501953125,-0.06052275747060776,0.18156878650188446,-0.025051485747098923
1761340652592305400,7.855305419921875,-0.07430301606655121,0.2189052402973175,-0.06747111678123474
1761340652602372400,7.865372314453125,-0.07000448554754257,0.20542430877685547,-0.11988699436187744
1761340652612439300,7.875439208984375,-0.05161643028259277,0.16531097888946533,-0.15119779109954834
1761340652622507500,7.885507568359375,-0.016054274514317513,0.10142192989587784,-0.16258816421031952
1761340652632574500,7.895574462890625,0.02066672220826149,0.04864207282662392,-0.156500443816185
1761340652642641700,7.9056416015625,0.04818776249885559,0.02190074697136879,-0.1260514259338379
1761340652652708600,7.91570849609375,0.06142500415444374,-0.026688361540436745,-0.08021869510412216
1761340652662775600,7.925775634765625,0.08469291031360626,-0.04103493690490723,-0.03391353040933609
1761340652672842500,7.935842529296875,0.09247387200593948,-0.044449906796216965,-0.0028245854191482067
1761340652682910500,7.945910400390625,0.09389224648475647,-0.04401093348860741,0.00037398654967546463
1761340652692977400,7.955977294921875,0.09851043671369553,-0.030093785375356674,-0.014269671402871609
1761340652703044400,7.96604443359375,0.0818617194890976,-0.026149442419409752,-0.05531802400946617
1761340652713111300,7.976111328125,0.04855116829276085,-0.039942752569913864,-0.10890641808509827
1761340652723178500,7.986178466796875,0.027587028220295906,-0.04891973361372948,-0.16193154454231262
1761340652733246500,7.99624658203125,0.03464413806796074,-0.06739834696054459,-0.18744808435440063
1761340652743313700,8.006313720703124,0.04437718167901039,-0.08150871843099594,-0.1888689547777176
1761340652753380600,8.016380615234375,0.04398809373378754,-0.024204149842262268,-0.1486075520515442
1761340652763447600,8.026447509765624,0.02731807716190815,0.08717317879199982,-0.08085565268993378
1761340652773514500,8.036514404296875,-0.007955491542816162,0.17282149195671082,0.005953280255198479
1761340652783581400,8.04658154296875,-0.03681296110153198,0.18739792704582214,0.21080315113067627
1761340652793648400,8.0566484375,0.011799046769738197,0.028482580557465553,0.3999863862991333
1761340652803715600,8.066715576171875,0.038620129227638245,-0.13514699041843414,0.4269710183143616
1761340652813783300,8.076783203125,0.14408530294895172,-0.13279221951961517,0.3453046679496765
1761340652823850500,8.0868505859375,0.25547271966934204,-0.1312302052974701,0.17283543944358826
1761340652833917400,8.09691748046875,0.33961233496665955,-0.038650739938020706,0.028883054852485657
1761340652843984400,8.106984375,0.36905187368392944,0.04976006969809532,-0.03976637125015259
1761340652854051300,8.11705126953125,0.3234758675098419,0.08555135875940323,-0.007052368018776178
1761340652864118500,8.127118408203126,0.29561904072761536,0.07608789205551147,0.05358412489295006
