time,seconds_elapsed,z,y,x
1761336220637439500,0.071439453125,-0.7153671146929264,0.19402853415012358,-0.14186338956169783
1761336220647506400,0.08150634765625,-0.504687305471301,0.17180033572912215,-0.1707306606709957
1761336220657572600,0.091572509765625,-0.20923720919787883,0.1294657533466816,-0.08526143156960606
1761336220667639600,0.1016396484375,0.045810149538516996,-0.028452772024273872,0.04137041352540254
1761336220677705200,0.111705322265625,0.21686638890206814,-0.10642799210846424,0.09902443785369396
1761336220687772400,0.1217724609375,0.3060100687325001,-0.07419190215319395,0.014720891530811785
1761336220697839600,0.131839599609375,0.38482816938161846,-0.05492079997211694,-0.08647204946838319
1761336220707905300,0.1419052734375,0.4029050933420658,-0.06237228502184152,-0.05472754242233932
1761336220717972200,0.15197216796875,0.40168344259262084,-0.0523781297519803,0.012965133904665707
1761336220728038400,0.162038330078125,0.3262204975903034,-0.007577449516952038,0.08345840073563159
1761336220738105300,0.172105224609375,0.10141220977306366,0.0552627452775836,0.12571553396768867
1761336220748171300,0.182171142578125,-0.2812269251316786,0.1171934240117669,0.17546747993454337
1761336220758238200,0.19223828125,-0.5682260039240121,0.22043284921199083,0.11892857724130153
1761336220768304400,0.202304443359375,-0.7122720712870358,0.2924120437517762,-0.03809292622469365
1761336220778371300,0.212371337890625,-0.8102396935641765,0.33713556709736586,-0.15560374562256038
1761336220788438300,0.222438232421875,-0.800813109049201,0.3044643005952239,-0.24600327073298392
1761336220798504400,0.23250439453125,-0.8056108647197484,0.24033932668715713,-0.3069005878314376
1761336220808571400,0.2425712890625,-0.7123328615635633,0.1637353949561715,-0.3675284403387457
1761336220818637300,0.25263720703125,-0.41621757937967774,0.1280859894260764,-0.4210888386778533
1761336220828704300,0.262704345703125,-0.09356266531646251,0.07857523180395365,-0.4549424468323588
1761336220838770400,0.2727705078125,0.03180032888650894,0.03841740893870592,-0.3449270977564156
1761336220848837400,0.28283740234375,0.2934890253335237,0.08826865056157111,-0.43633170825615525
1761336220858903300,0.2929033203125,0.52529754730165,0.03488192828893661,-0.457216017787531
1761336220868970500,0.302970458984375,0.5480108988910913,-0.2237108479693532,-0.40726263096444304
1761336220879036400,0.313036376953125,0.4357984781622886,-0.30730887637138365,-0.3677686057701707
1761336220889103400,0.323103271484375,0.28823417354524133,-0.19627514403313398,-0.3788875272862613
1761336220899170300,0.33317041015625,0.1801642594486475,-0.0759907682687044,-0.48195926776938136
1761336220909236500,0.343236572265625,0.16194997284412382,-0.025851357354223725,-0.5437473962277174
1761336220919303400,0.353303466796875,0.2523796008318662,-0.1397562612146139,-0.5533307056743652
1761336220929369300,0.363369384765625,0.33012276572585103,-0.16511165174543857,-0.6004128479100763
1761336220939436500,0.3734365234375,0.3691717505663633,-0.10360942755639553,-0.6644000207826495
1761336220949502500,0.38350244140625,0.3713853349626064,-0.10628566102832555,-0.6514458466634154
1761336220959569400,0.3935693359375,0.29711773722469803,-0.13899579823613167,-0.6190428026434034
1761336220969635600,0.403635498046875,0.17956453998982905,-0.14425824880897997,-0.6329897871922702
1761336220979702500,0.41370263671875,0.08886720097661018,-0.13962269796282054,-0.7501730551362037
1761336220989769500,0.42376953125,0.00950315688252449,-0.20368746611624955,-0.8716286666370928
1761336220999835400,0.43383544921875,-0.11059738674759864,-0.4171361555293202,-1.005658293833211
1761336221009902600,0.443902587890625,-0.1488935073941946,-0.5677183466628194,-1.191196282209456
1761336221019968500,0.453968505859375,-0.0018038345515727996,-0.4081047078117728,-1.2801486772514878
1761336221030035500,0.464035400390625,0.18636019147932528,-0.15797668529897926,-1.1348084784246981
1761336221040101400,0.474101318359375,0.36700960409641264,0.051098903596401214,-0.9619245852425694
1761336221050168600,0.48416845703125,0.4417904120534658,0.27684067287147046,-0.8028964911945163
1761336221060234200,0.494234130859375,0.5089771116197109,0.40256987003833056,-0.5761803969945758
1761336221070301200,0.50430126953125,0.4667267003893852,0.45180707141607995,-0.342931686155498
1761336221080368400,0.514368408203125,0.34690614274442194,0.5856447562366723,-0.16303510119970888
1761336221090434300,0.524434326171875,0.2757540466785431,0.6429565429985523,-0.011442527447268366
1761336221100501200,0.534501220703125,0.2528647540003061,0.6212804255023598,0.08856471089869737
1761336221110567400,0.5445673828125,0.2438251229763031,0.5534525054231286,0.17153083460535853
1761336221120634400,0.55463427734375,0.2363175238251686,0.5393117518678308,0.2563448877336457
1761336221130700300,0.5647001953125,0.17037644040584562,0.48771162075102326,0.2253441117269918
1761336221140767200,0.574767333984375,0.041975101420283316,0.4389420368850231,0.15242374561326577
1761336221150833400,0.58483349609375,-0.1169996550053358,0.34907793382555247,0.10968644591514021
1761336221160900400,0.594900390625,-0.23168343428373336,0.42388796787708993,0.24791946135153992
1761336221170967300,0.60496728515625,-0.15725217041671274,0.6375903397902846,0.4979986214876175
1761336221181033500,0.615033447265625,-0.07521803033053874,0.4673375257641077,0.602281783587113
1761336221191100400,0.625100341796875,0.02138473333418369,0.21544424714446067,0.5618898597050458
1761336221201166300,0.635166259765625,0.1317524029791355,0.13136778757572173,0.41343883538134396
1761336221211233300,0.6452333984375,0.1132090305507183,0.10742986262738705,0.2578692477567121
1761336221221299500,0.655299560546875,-0.005795534536242485,0.011877777059376239,0.17231023974632842
1761336221231366400,0.665366455078125,-0.06198153213858604,-0.030659926679730415,0.1166418910762295
1761336221241432300,0.675432373046875,-0.08696692031323909,-0.0429417544953525,0.06133559891786426
1761336221251499500,0.68549951171875,-0.07766600800454616,-0.06501695431172848,0.022164814328588543
1761336221261566500,0.69556640625,-0.13120119883716105,-0.09586831191033124,0.01045179937686771
1761336221271632400,0.70563232421875,-0.2053735195070505,-0.1651908544614911,0.06826053934283555
1761336221281699300,0.71569921875,-0.22295359986126423,-0.1911129389643669,0.2327772939350456
1761336221291765500,0.725765625,-0.2866892821907997,-0.1845188013963401,0.3748275113057345
1761336221301832400,0.73583251953125,-0.40156127751767634,-0.19334099027737975,0.4358125432202592
1761336221311898400,0.7458984375,-0.4937403795212507,-0.20784604710042476,0.4955778606140986
1761336221321965600,0.755965576171875,-0.5361725770592689,-0.1846158320300281,0.5445326648538932
1761336221332031500,0.766031494140625,-0.46751989659368987,-0.14250219892188906,0.5989616627210751
1761336221342098200,0.77609814453125,-0.42342005810439587,-0.10282836018130183,0.6543307544499636
1761336221352165000,0.7861650390625,-0.462739676579833,-0.04460910318568349,0.6807506324071436
1761336221362231300,0.796231201171875,-0.5638157862663269,0.04655804529637098,0.6285911138419061
1761336221372298200,0.80629833984375,-0.6881558671623468,0.07735854949057101,0.5421614422105252
1761336221382364200,0.8163642578125,-0.7921417268157005,0.011173135921359061,0.4771716681666672
1761336221392431400,0.826431396484375,-0.9105576783597469,-0.03207943808883428,0.38528643454313277
1761336221402497300,0.836497314453125,-0.9636211600273847,-0.05688888517469167,0.30136005096957086
1761336221412564200,0.846564208984375,-0.9468009581297635,-0.06435322970598936,0.2525346452631056
1761336221422630100,0.856630126953125,-0.8999000907450914,-0.10652809148207307,0.22882081139422952
1761336221432697300,0.866697265625,-0.7719061635166407,-0.10798501229211688,0.20372319501675665
1761336221442764300,0.876764404296875,-0.6058171911716461,-0.07620031936615705,0.1891780253790319
1761336221452830000,0.886829833984375,-0.40790392454266544,-0.0762073336288333,0.2195996132582426
1761336221462897400,0.8968974609375,-0.22350012782812118,-0.11353402472138405,0.23855134729184208
1761336221472963000,0.906963134765625,-0.07525251712203025,-0.16537936277091503,0.20530944129489362
1761336221483030000,0.917030029296875,0.021469489008188247,-0.16258754009529947,0.14778466936945914
1761336221493096200,0.92709619140625,-0.1323889473170042,-0.15929770476967095,0.08877645395323634
1761336221503163100,0.9371630859375,-0.28903146140277386,-0.11189122595041989,0.019963103033229707
1761336221513229000,0.94722900390625,-0.23395021017193793,0.0031780455142259596,-0.026041838425025342
1761336221523296000,0.9572958984375,-0.03890285436809063,0.11432707479521631,-0.03145962569005787
1761336221533363200,0.96736328125,0.2366314120799303,0.17448329120278358,0.0938467429548502
1761336221543429000,0.97742919921875,0.47162265573740003,0.1967795864239335,0.28067440581545233
1761336221553496000,0.98749609375,0.6828951701551675,0.23441943511888383,0.39043431882560253
1761336221563562200,0.997562255859375,0.7234545595586299,0.18153364810571074,0.3841179752856493
1761336221573629200,1.007629150390625,0.6544312922149896,0.08081175868436694,0.2513989922966808
1761336221583695000,1.017695068359375,0.7341518946617841,0.06879954159036278,0.1687376602228731
1761336221593762000,1.027761962890625,0.8399298984289169,0.07955912827476859,0.10200623014345765
1761336221603828200,1.037828125,0.7581868502438068,0.07836129679232835,-0.0000985650036484003
1761336221613895200,1.047895263671875,0.5984165595263242,0.12438684264719485,-0.10969364284090698
1761336221623962000,1.057962158203125,0.4031622829735279,0.23601064983308315,-0.23992168579697606
1761336221634028300,1.0680283203125,0.2121837840437889,0.38487127787098285,-0.3469977665506303
1761336221644095200,1.07809521484375,0.21417758820950983,0.5299192157529294,-0.40370479235239326
1761336221654161200,1.0881611328125,0.4756009117186069,0.6111068220123649,-0.42921778459772464
1761336221664228000,1.09822802734375,0.8412760523408651,0.6184446175545454,-0.3987081531088799
1761336221674294300,1.108294189453125,1.1282301229476928,0.685229458321631,-0.34176008509285744
1761336221684361200,1.118361328125,1.195735386943817,0.8670742182031274,-0.3236206903554499
1761336221694427100,1.12842724609375,1.3744897795945406,1.1648466199442744,-0.32754604710564017
1761336221704494300,1.138494384765625,1.661653109037876,1.459513603015989,-0.3146595313951373
1761336221714561300,1.148561279296875,1.9170646249115466,1.6166756109312175,-0.27060565093941985
1761336221724627200,1.158627197265625,2.1002865183651447,1.7160750195771455,-0.30055143800042566
1761336221734694100,1.168694091796875,2.301304180750251,1.7771844450563192,-0.3972230291176587
1761336221744760300,1.17876025390625,2.5672639786452054,1.82543994192034,-0.5627634276691824
1761336221754827300,1.1888271484375,2.9176947883844373,1.8055790571525692,-0.6585957184180617
1761336221764893200,1.19889306640625,3.180124658587575,1.5649273035153746,-0.5815517878346145
1761336221774960400,1.20896044921875,3.1304198396980762,1.1783633963823317,-0.42029988025724885
1761336221785026000,1.219026123046875,2.800559524300694,0.8943886338472365,-0.32623364933282134
1761336221795093200,1.22909326171875,2.4393688356161114,0.9111106360673904,-0.290186622787267
1761336221805160200,1.23916015625,2.16719323194623,1.167807223315537,-0.25876038791015743
1761336221815226000,1.24922607421875,1.93751763035357,1.6278993079960344,-0.19754940175265073
1761336221825293300,1.259293212890625,1.7877859185695648,2.1349439902484417,-0.18008081894889472
1761336221835359000,1.26935888671875,1.8230887026190756,2.2643016070455313,-0.13060498650968075
1761336221845426200,1.27942626953125,1.9950854377031324,1.9841706604570148,-0.1512469386525452
1761336221855492000,1.2894921875,2.1769483177632094,1.4681050518810748,-0.2738867915019393
1761336221865559000,1.29955908203125,2.151585912969708,0.7626841616630554,-0.3232183931648731
1761336221875625200,1.309625244140625,1.7598370044142007,-0.036032559628784655,-0.22012129904478786
1761336221885692200,1.319692138671875,1.1451759970515967,-0.574126314008981,-0.0027661037124693394
1761336221895759000,1.329759033203125,0.2931336360245943,-0.7186274316631257,0.26600977451652286
1761336221905825000,1.339824951171875,-0.7010469129174948,-0.6404894222326576,0.5383408610090613
1761336221915892200,1.349892333984375,-1.7460563163429497,-0.34292511028423905,0.6988295291289687
1761336221925958100,1.359958251953125,-2.8982500832021234,0.0015530746608972549,0.8610156488165259
1761336221936025000,1.370025146484375,-4.0855023039609195,0.0961698521401733,1.0692369589701294
1761336221946091300,1.38009130859375,-4.9820840639382595,0.16090587061867118,1.353964585699141
1761336221956158200,1.390158203125,-5.268986112096905,0.13317301036678253,1.659972608605027
1761336221966224100,1.40022412109375,-5.0599973247021435,-0.08019559954740106,1.9227118370182812
1761336221976291000,1.410291015625,-4.645571304914355,-0.4730888192998245,2.152986281286925
1761336221986358300,1.420358154296875,-4.221370910087227,-0.961665934306383,2.1816395443193612
1761336221996424200,1.430424072265625,-3.8463241300076243,-1.1845708727203308,1.9306427761480212
1761336222006491100,1.4404912109375,-3.5287323445528744,-1.279298197901994,1.4944697655849157
1761336222016557300,1.450557373046875,-3.303725903815031,-1.323754010222107,1.1632637346670032
1761336222026624300,1.460624267578125,-3.014028671979904,-1.189554652482271,1.071556049567461
1761336222036690200,1.470690185546875,-2.5403929228544233,-0.9474039655242115,1.1688210765331983
1761336222046757000,1.480757080078125,-2.1568068624883887,-0.7472520531229674,1.290072836025059
1761336222056823300,1.4908232421875,-1.9908482385247945,-0.5304113466514274,1.2564981909424067
1761336222066890200,1.50089013671875,-1.9375725754112003,-0.3933822819110006,0.9928468161202967
1761336222076957200,1.510957275390625,-1.8556974252790213,-0.5237407097810879,0.754945091843605
1761336222087023400,1.5210234375,-1.6356465611219406,-0.837384378664568,0.598285480492562
1761336222097090300,1.53109033203125,-1.3553724066704511,-1.2547720978021621,0.45942105355113744
1761336222107156200,1.54115625,-1.0802689328551291,-1.2808018804632126,0.18155045311003923
1761336222117223200,1.55122314453125,-1.007480175498128,-1.1038712691735475,-0.1409282276034355
1761336222127289300,1.561289306640625,-1.0111720157533883,-0.9896750542163848,-0.2139735900700092
1761336222137356300,1.571356201171875,-1.0007049822747707,-1.0094221033461392,-0.15560644903630017
1761336222147422000,1.581421875,-0.9556576338022946,-1.087675409719348,-0.21837620894312856
1761336222157489400,1.591489501953125,-0.7021206796288489,-1.0069308710522948,-0.4438553817592561
1761336222167556400,1.601556396484375,-0.2246323467284441,-0.8177641707848757,-0.762156192266196
1761336222177622000,1.6116220703125,0.2878641711890697,-0.985128789088875,-1.3098510109454393
1761336222187689200,1.621689208984375,0.7039139927864074,-1.2896110637322067,-2.1677070266872644
1761336222197755100,1.631755126953125,0.8255009755820035,-1.5988076535463331,-3.0910300785958764
1761336222207822000,1.641822021484375,0.8552589849859475,-1.9423782221272587,-3.585923427544534
1761336222217888000,1.651887939453125,0.8483031744986772,-2.138533246912062,-3.5176410416960713
1761336222227955200,1.661955078125,0.8861275859802961,-2.032005886082351,-3.1371967864871024
1761336222238021000,1.672021240234375,1.0312748925834894,-1.2341218162223695,-2.4741379511803387
1761336222248088000,1.682088134765625,0.9078566027075051,-0.7339975808829069,-1.6696587208390234
1761336222258155000,1.692155029296875,0.49877837368845934,-0.42400567597262556,-0.7806076486274599
1761336222268221200,1.70222119140625,0.05800152259171009,-0.36816491161137815,0.07562807243615388
1761336222278288100,1.7122880859375,-0.4192430646806955,-0.29858868656009435,0.5816318673335016
1761336222288354000,1.72235400390625,-0.8137830652594565,0.15940554905831814,0.6909737010620534
1761336222298421200,1.732421142578125,-1.0263082100868224,0.4468035640403628,0.6025158115386963
1761336222308487200,1.742487060546875,-1.0493588308066129,0.39728199276328086,0.4632413424916565
1761336222318554000,1.75255419921875,-0.9803747264295816,0.19757862784713506,0.2768985405385494
1761336222328620300,1.762620361328125,-0.7964724494963884,-0.06304638489112258,0.06508629322089254
1761336222338687200,1.772687255859375,-0.5571791247308254,-0.19585728394724428,-0.03726034785807133
1761336222348754200,1.782754150390625,-0.28695231704115864,-0.20385631987713276,0.047828722819313406
1761336222358820000,1.792820068359375,-0.2156213572770357,-0.09595788988992571,0.20177439903654157
1761336222368887300,1.80288720703125,-0.3631798166751861,0.01695844132453203,0.30856252969428893
1761336222378953200,1.812953125,-0.806812641724944,0.05163797890916466,0.2625678173691034
1761336222389020200,1.823020263671875,-1.3091612751156092,0.04428337836265564,0.08962306084521114
1761336222399086300,1.83308642578125,-1.75560506593287,0.09576660510152578,-0.154461662915349
1761336222409153300,1.8431533203125,-2.2025451158344747,0.11120338981673121,-0.317541516572237
1761336222419219200,1.85321923828125,-2.5632132419496774,0.036294279304891826,-0.223084532764554
1761336222429286100,1.8632861328125,-2.725786315128207,-0.03630363165512681,0.04986519708298146
1761336222439353300,1.873353271484375,-2.719144977417588,-0.01268397887572646,0.23780520509965716
1761336222449419300,1.883419189453125,-2.4962778867959976,0.11227627974525094,0.2903431285232305
1761336222459486200,1.893486328125,-2.0740233653396367,0.2010832019019872,0.2697201733417809
1761336222469552000,1.90355224609375,-1.5934189462453126,0.16710962062962353,0.12052826752290129
1761336222479619300,1.913619384765625,-1.1561515645742415,0.14263240117281675,-0.0013793255291879177
1761336222489685000,1.92368505859375,-1.0328390731602906,0.21732443486787378,-0.011029635797441005
1761336222499752000,1.933751953125,-1.0745499706864357,0.4079993477411568,0.18312442442849278
1761336222509818000,1.943818115234375,-1.0299112030148505,0.2646015882190317,0.3454119586639106
1761336222519885000,1.953885009765625,-0.9433172076672315,-0.021715353528037665,0.23121289416253565
1761336222529952000,1.963951904296875,-0.8297948733836412,-0.2510531014684588,0.044444852534681556
1761336222540018200,1.97401806640625,-0.7870943802982568,-0.4094008851021528,-0.11174304965138435
1761336222550085000,1.984085205078125,-0.832381967267394,-0.41386385586038227,-0.25257030109837647
1761336222560151000,1.994151123046875,-0.6780594205617905,-0.4209827479548752,-0.27410335686206816
1761336222570218000,2.004218017578125,-0.33975685551166535,-0.3782217568539083,-0.2193519221074879
1761336222580284200,2.0142841796875,0.14936287847161292,-0.30505459463857115,0.0105853991612792
1761336222590351000,2.02435107421875,0.46911154969930646,-0.3197781895831227,0.3967975702472031
1761336222600417000,2.0344169921875,0.4281277974039316,-0.2302181840367615,0.7206853871062397
1761336222610484200,2.044484130859375,0.03990647845268249,0.00007781447656452655,0.9553301554135978
1761336222620551200,2.05455126953125,-0.5637649328619241,0.1257968555755913,0.9743339849606156
1761336222630617000,2.0646171875,-1.1706348479568958,0.08869359797537327,0.8342796175822615
1761336222640684000,2.07468408203125,-1.527704657319188,-0.032325741000100966,0.5988491057246923
1761336222650750200,2.084750244140625,-1.6044447826504706,-0.23350516981817782,0.28796090956181286
1761336222660817200,2.094817138671875,-1.607694724357128,-0.4027506334327161,-0.11221826594769954
1761336222670883000,2.104883056640625,-1.459261235690117,-0.4031383906412869,-0.4606124552927911
1761336222680950300,2.1149501953125,-1.0022446129322051,-0.4339415982492268,-0.5439601621955633
1761336222691016200,2.12501611328125,-0.27081249862313267,-0.35360374068692324,-0.5842879348002373
1761336222701083100,2.135083251953125,0.5765560253739357,-0.22338526927679775,-0.4153950109504163
1761336222711150000,2.145150146484375,1.2794547036379575,-0.06423796929586678,-0.046335780847817656
1761336222721216300,2.15521630859375,1.8828133957415818,0.04259560793880373,0.3075998221419751
1761336222731283200,2.165283203125,2.1418325807183978,0.014349373070988804,0.49429216818511484
1761336222741349000,2.17534912109375,2.0171686746954918,-0.084897164834477,0.4769483808048069
1761336222751416300,2.185416259765625,1.6978537187099456,-0.12964532943097873,0.28325813869833943
1761336222761482200,2.195482177734375,1.3967910432517527,-0.15707929806783794,0.012736731976270675
1761336222771549200,2.205549072265625,1.196184884276986,-0.22003146533686666,-0.2474997198358178
1761336222781616000,2.2156162109375,1.1395733547389506,-0.31505711587797847,-0.4316095020398497
1761336222791682300,2.225682373046875,1.31691788059175,-0.32798210043534637,-0.5356814325414597
1761336222801749200,2.235749267578125,1.6265081458985804,-0.278157838150952,-0.4370116533443332
1761336222811815200,2.245815185546875,2.103379808205366,-0.1094504634684883,-0.15526859538406132
1761336222821882400,2.25588232421875,2.700754165202379,0.06951678648162633,0.1805316314563155
1761336222831948000,2.265947998046875,3.1722470570802686,0.1610227749966085,0.40423634194582697
1761336222842015000,2.276014892578125,3.2909739742696282,0.3362191098395735,0.6052352996304631
1761336222852081200,2.2860810546875,3.0858044529020785,0.4651512677662074,0.7534532458506524
1761336222862148000,2.296148193359375,2.6861726821422574,0.52951118294131,0.813634888960421
1761336222872215000,2.306215087890625,2.2618056985765693,0.614531024307385,0.7608388260573148
1761336222882281000,2.316281005859375,1.960520320278406,0.651141749150306,0.656174336490035
1761336222892348200,2.32634814453125,1.6123521947741508,0.5583891581077128,0.5359557194381952
1761336222902414000,2.3364140625,1.226269641417265,0.415808012198098,0.31028000113666054
1761336222912481000,2.34648095703125,0.7794108400583267,0.30429239636072886,0.026333880174160003
1761336222922547200,2.356547119140625,0.3437842113316059,0.23086682067122308,-0.16960691733807323
1761336222932614100,2.3666142578125,0.07713584665060043,0.12863167714271695,-0.16331190884709357
1761336222942680000,2.37668017578125,-0.0807487764507532,-0.018288009427860377,-0.026360183659195898
1761336222952747000,2.3867470703125,-0.2701362067967653,-0.1445913532208651,0.09717851772606373
1761336222962814200,2.396814208984375,-0.5887316163361073,-0.16382194072846323,0.16310265001058577
1761336222972880100,2.406880126953125,-0.7638678184896707,-0.07830649786517023,0.2331210658714175
1761336222982947000,2.416947021484375,-0.7802081279158591,-0.04674622481223196,0.3138601977109909
1761336222993013200,2.42701318359375,-0.7363502814888954,-0.08896971150301396,0.3385103625819087
1761336223003080200,2.437080078125,-0.6876175225019454,-0.15072181879989802,0.17285861261039973
1761336223013146000,2.44714599609375,-0.6883505129516124,-0.2651601719498634,-0.20225684879124164
1761336223023213000,2.457213134765625,-0.7270365096986293,-0.38924627808481455,-0.5232327237263321
1761336223033280300,2.4672802734375,-0.8338590540826321,-0.5715282238071784,-0.6632505584865808
1761336223043346200,2.47734619140625,-0.9621955111384392,-0.6310549466721713,-0.7894400666415691
1761336223053413000,2.4874130859375,-1.0044389081060885,-0.5670732902249321,-0.9346429028242826
1761336223063479300,2.497479248046875,-0.8448656012654304,-0.5149348144477233,-1.0017939465552568
1761336223073546200,2.507546142578125,-0.5739665934026241,-0.4892536625612527,-0.9554881224542856
1761336223083612200,2.517612060546875,-0.30855566156208514,-0.5092500468095764,-0.8569044141054153
1761336223093679000,2.52767919921875,-0.02782324194908142,-0.5218460186082869,-0.7238134559988975
1761336223103745300,2.537745361328125,0.0456271941870451,-0.465360453537479,-0.5758069605723023
1761336223113812200,2.547812255859375,-0.051418637070059774,-0.3027543183395639,-0.3748813603848219
1761336223123879200,2.557879150390625,-0.12759995947480202,-0.11031305338088422,0.080102002979815
1761336223133945300,2.5679453125,-0.21391922953426837,0.01600040994733572,0.5170832611858844
1761336223144012300,2.57801220703125,-0.27102701815664765,0.11772007823437451,0.7594207759529352
1761336223154078200,2.588078125,-0.29482231976389883,0.230382288557291,0.7956070648387074
1761336223164145200,2.598145263671875,-0.17912088787555694,0.2956024738235399,0.7732774518698453
1761336223174211300,2.60821142578125,-0.08514028940796851,0.3155062844175845,0.792590347366035
1761336223184278300,2.6182783203125,-0.05548574037849903,0.3246499968705699,0.8309519344642758
1761336223194344000,2.628343994140625,0.010571662896871566,0.29156291610915214,0.8288242747858167
1761336223204411100,2.6384111328125,0.17270108396112918,0.29126407929304987,0.7415113175138831
1761336223214478300,2.648478271484375,0.3507522967785597,0.3608429712254554,0.6552376401618123
1761336223224544000,2.6585439453125,0.6103413905978202,0.41753816045895215,0.6076733404323458
1761336223234611000,2.66861083984375,0.804891902795434,0.46083263738211244,0.5872445926487445
1761336223244677000,2.678677001953125,0.8791700219273567,0.3602185557167977,0.4109752948120236
1761336223254744000,2.688744140625,0.8024678905189037,0.15507840657420455,0.1197796411126852
1761336223264810000,2.69881005859375,0.6810474964618682,-0.07932314582811668,-0.1832683629438281
1761336223274877200,2.708877197265625,0.508238275951147,-0.20674268896840511,-0.3717641051471233
1761336223284944100,2.718944091796875,0.34850422559082506,-0.2597120991444215,-0.4757222000107169
1761336223295010000,2.729010009765625,0.1558557476222515,-0.3841151257414371,-0.6699635001286864
1761336223305077000,2.739076904296875,-0.08709609965085983,-0.47732309586871413,-0.9779247029289603
1761336223315143200,2.74914306640625,-0.2451274377465248,-0.4944047251814976,-1.2272200740098953
1761336223325210000,2.759210205078125,-0.3421031263768673,-0.5440658145271241,-1.3855173695653675
1761336223335276000,2.769276123046875,-0.3503554064154625,-0.5423633214581758,-1.3736436841592192
1761336223345342700,2.7793427734375,-0.35506080762743947,-0.4054651530884206,-1.1577400028094649
1761336223355408600,2.78940869140625,-0.43239889885187144,-0.25828466015718876,-0.7069578905269503
1761336223365475600,2.7994755859375,-0.5976122574061155,-0.07675612661801279,-0.1891322865411639
1761336223375542500,2.80954248046875,-0.6790595375150442,0.12880473215468227,0.22629969541877507
1761336223385608700,2.819608642578125,-0.6122679747462272,0.23833945810683071,0.46284576730281113
1761336223395675600,2.829675537109375,-0.44146600240468975,0.2665067642532289,0.4949661219239235
1761336223405741600,2.839741455078125,-0.20789865407049654,0.22636552719660102,0.46053047609776254
1761336223415808800,2.849808837890625,-0.06961012732088566,0.1023920145906508,0.4253942807868123
1761336223425874700,2.859874755859375,-0.07900690121948718,-0.0741605571668595,0.324883988289535
1761336223435941600,2.869941650390625,-0.16000234590768814,-0.17363916852883993,0.18680618168115615
1761336223446008600,2.880008544921875,-0.2562602416574955,-0.23235044682510195,-0.020372049160301685
1761336223456074800,2.89007470703125,-0.3476660212010145,-0.31133243279904127,-0.186444654892385
1761336223466141700,2.9001416015625,-0.47378421768546103,-0.4051857516251504,-0.258364812721312
1761336223476207600,2.91020751953125,-0.7134288401067257,-0.38708836939856406,-0.18762568137049673
1761336223486274800,2.92027490234375,-1.024686746364832,-0.2313057600777596,-0.018308979150652886
1761336223496340700,2.9303408203125,-1.23651747918725,-0.05570617819614708,0.12135171273499727
1761336223506407700,2.94040771484375,-1.2661591687351466,-0.005503346656635403,0.12994623034000397
1761336223516474600,2.950474609375,-1.0833569619983434,-0.05664893893897533,0.028984979204833505
1761336223526540800,2.960540771484375,-0.7400836227983236,-0.09625716509744524,-0.07297288175225257
1761336223536607700,2.970607666015625,-0.34026538955569263,-0.10928915369324385,-0.07229308279454708
1761336223546673700,2.980673583984375,-0.011369535276293754,-0.0977535411350429,-0.029710078608989714
1761336223556740900,2.990740966796875,0.26885259672701356,-0.09215572112798691,0.06362228508293628
1761336223566806800,3.000806884765625,0.4804828385412693,-0.13219108665734527,0.1368883045628667
1761336223576873700,3.010873779296875,0.5786532899141311,-0.10353870040774345,0.1659969101473689
1761336223586939600,3.020939697265625,0.48741526815295216,-0.09351758406572043,0.19893252667412162
1761336223597006800,3.0310068359375,0.3915589389413595,-0.0556833818424493,0.20661080621704458
1761336223607073800,3.04107373046875,0.3924883287459612,-0.01700184207484126,0.16110796906203032
1761336223617139500,3.051139404296875,0.40802199796438215,-0.02516293669864535,0.08034633312970399
1761336223627207000,3.06120703125,0.3967915788978338,-0.05753390507996082,-0.023512246882170438
1761336223637272600,3.0712724609375,0.3377671429991722,-0.08899163107387721,-0.10532967547774315
1761336223647339500,3.081339599609375,0.28589842407405375,-0.08858677660003304,-0.19888152713924645
1761336223657405700,3.09140576171875,0.2379693826854229,-0.08140840940326452,-0.25046704520881174
1761336223667472600,3.10147265625,0.21074702923893926,-0.07506408187784254,-0.26644655849859117
1761336223677539600,3.11153955078125,0.17394786915183066,-0.061796896286681294,-0.2233990055412054
1761336223687605500,3.12160546875,0.18592939884662626,-0.14350509235411882,-0.14892901709899306
1761336223697672700,3.131672607421875,0.15686346336007118,-0.19858846247680484,-0.038841479569673536
1761336223707738600,3.141738525390625,0.04207330109775066,-0.08805150067955254,0.10061696774214506
1761336223717805600,3.1518056640625,0.03413257122635841,0.03961808996535837,0.25510610318630933
1761336223727871700,3.161871826171875,-0.03148760967552662,0.05126571153067052,0.323244696649909
1761336223737938700,3.171938720703125,-0.0862824451804161,0.048753582579270004,0.27437647471502424
1761336223748004600,3.182004638671875,-0.10393675981462001,0.06980718426294624,0.20035642199739812
1761336223758071600,3.192071533203125,-0.20369827977120875,0.03595006897710264,0.14002733324095606
1761336223768138800,3.202138671875,-0.33641339030265804,-0.0050970308780670165,0.011369681406766176
1761336223778204700,3.21220458984375,-0.5803647700071335,-0.09698489485010504,-0.1356103935815394
1761336223788271600,3.222271728515625,-0.887729760479927,-0.20464608201533555,-0.22915713067650795
1761336223798337800,3.232337890625,-1.1133785907745362,-0.19371669172197578,-0.2629515559896827
1761336223808404700,3.24240478515625,-1.1435755761176347,-0.11365582447014748,-0.24136355516836044
1761336223818470700,3.252470703125,-0.9554863688886165,-0.07616137559525668,-0.1600061452999711
1761336223828537600,3.26253759765625,-0.6724269676327705,-0.08364303658753633,-0.052863136789947744
1761336223838604800,3.272604736328125,-0.3571726852148771,-0.12695581635236738,-0.009644903440773487
1761336223848670700,3.282670654296875,-0.09402209952175616,-0.151580262260139,-0.022364976543188093
1761336223858737700,3.292737548828125,0.0920470000565052,-0.11167129958942532,-0.023710838194191456
1761336223868803800,3.302803955078125,0.23520108701586723,-0.08843582382202148,0.021672025842964647
1761336223878870800,3.312870849609375,0.3279816620439291,-0.04741298162527382,0.12481222845241427
1761336223888936700,3.322936767578125,0.3940425724506378,-0.05558795864395797,0.18077976099848747
1761336223899003600,3.333003662109375,0.43429567238390443,-0.13193185119926928,0.16788959202617407
1761336223909070800,3.34307080078125,0.401737218606472,-0.19463139541409907,0.09183920252472162
1761336223919136800,3.35313671875,0.3017208471059799,-0.23044001009389756,-0.008981324965506791
1761336223929203700,3.36320361328125,0.15973112775087356,-0.23263204024545847,-0.06956409622207284
1761336223939270000,3.373269775390625,0.06775777745246887,-0.2124254838451743,-0.09136939305588603
1761336223949336800,3.3833369140625,0.0011579378634691238,-0.17327954143621027,-0.056928924924135205
1761336223959402800,3.39340283203125,-0.07545826882719993,-0.17859226089157162,-0.021875147199630737
1761336223969469700,3.4034697265625,-0.12217501181662081,-0.1998249454692006,-0.025453882469236848
1761336223979537000,3.413536865234375,-0.14938216769397258,-0.18238493117280302,-0.08501753981113433
1761336223989602800,3.423602783203125,-0.1377653796583414,-0.18070282330475745,-0.11499810592457652
1761336223999669800,3.433669677734375,-0.06004851824939251,-0.2038855459716171,-0.06503434383794665
1761336224009735700,3.443735595703125,0.014844517910480498,-0.23797537403479216,0.009592150340229273
1761336224019802600,3.453802734375,0.033500703063607216,-0.2516257867898792,0.007389379598945379
1761336224029868500,3.46386865234375,-0.05013619604408741,-0.2071199247829616,-0.018323153806477786
1761336224039935500,3.473935546875,-0.14317337618172168,-0.16569149746000766,-0.049066520985960954
1761336224050001700,3.484001708984375,-0.19330957222580908,-0.2006207720220089,-0.057055035521835086
1761336224060068600,3.494068603515625,-0.22815759824514387,-0.24471542287953196,-0.06623392888605595
1761336224070135600,3.504135498046875,-0.26087913362979887,-0.30747188491337,-0.06743015293329954
1761336224080201700,3.51420166015625,-0.3074433164060116,-0.32022870982959867,-0.03092866061851382
1761336224090268700,3.5242685546875,-0.365162514925003,-0.21948270888030527,0.006237433084845543
1761336224100334600,3.53433447265625,-0.35106150885820386,-0.1251317427303642,0.07657382885366677
1761336224110401500,3.544401611328125,-0.26881343376040456,-0.0699513419739902,0.14576529237106442
1761336224120468700,3.55446875,-0.2061661311894655,-0.015826076293736696,0.1715191807001829
1761336224130534700,3.56453466796875,-0.19318740715086458,0.03993336645960808,0.12920637175813315
1761336224140601600,3.5746015625,-0.15347382092177866,-0.022704876022040844,-0.011626140385866164
1761336224150667800,3.584667724609375,-0.11538637458980083,-0.11031382056586443,-0.1688267267458141
1761336224160734700,3.594734619140625,-0.04514554814994335,-0.11509484429731964,-0.1965805567204952
1761336224170800600,3.604800537109375,0.011644260564446448,-0.09844999896660446,-0.15729250242710113
1761336224180867600,3.61486767578125,0.08778817356824874,-0.07747143528051674,-0.11451499858275055
1761336224190933800,3.624933837890625,0.1433598386645317,-0.04339497815556824,-0.08827318060621618
1761336224201000700,3.635000732421875,0.18404431575238703,-0.014758739323168991,-0.10397329243272542
1761336224211067600,3.645067626953125,0.20742226873040198,0.007262246087938547,-0.07205415947213768
1761336224221133800,3.6551337890625,0.18099077340066433,-0.037501024746149775,-0.07897519090697169
1761336224231200800,3.66520068359375,0.14667173969149588,-0.07869717768318951,-0.08505772569105029
1761336224241266700,3.6752666015625,0.15730769999623298,-0.1317963882513344,-0.08465630528330803
1761336224251333600,3.685333740234375,0.1937754361718893,-0.17949615092873572,-0.07329904496669769
1761336224261399800,3.69539990234375,0.23814123212099073,-0.18775244955532253,-0.02291764198988676
1761336224271466800,3.705466796875,0.2856692914932966,-0.13805413347184659,0.06463146212548017
1761336224281533700,3.71553369140625,0.24198738615512846,-0.10283420540019869,0.11674597250521182
1761336224291600000,3.725599853515625,0.2054559370934963,-0.13685118742287158,0.12014160629287361
1761336224301666800,3.735666748046875,0.12797346896231174,-0.1467879134170711,0.1400032217130065
1761336224311732700,3.745732666015625,0.06836451117396354,-0.1366919782731682,0.12098258716166019
1761336224321799700,3.755799560546875,-0.05775485435426235,-0.1493703311257064,0.08308584109619259
1761336224331865900,3.765865966796875,-0.18981939202249049,-0.1858971040122211,0.03408712464943528
1761336224341932300,3.775932373046875,-0.32270342938005925,-0.2140099765576422,-0.022289865480363366
1761336224351999200,3.785999267578125,-0.3718126204639673,-0.24301687533333896,-0.025828414870053527
1761336224362065400,3.7960654296875,-0.3176332865089178,-0.2458072367042303,0.027769612065702675
1761336224372132400,3.80613232421875,-0.15654139179885387,-0.24095044432282448,0.15584683366343377
1761336224382198300,3.8161982421875,-0.052611061725020405,-0.2077740778427571,0.29095629198551176
1761336224392265200,3.82626513671875,-0.05101180983483791,-0.0725653238646686,0.35106633116379377
1761336224402331400,3.836331298828125,-0.10418050544261932,0.03552987080365419,0.27824630188569427
1761336224412398300,3.8463984375,-0.16440964095592497,0.007647372948005795,0.1789605827473104
1761336224422465300,3.85646533203125,-0.26775895627141,-0.04929587276242673,0.1000583109460771
1761336224432531500,3.866531494140625,-0.34758535718023775,-0.12202500888668,-0.01612199050039053
1761336224442598400,3.876598388671875,-0.3874088335245848,-0.1554425637114793,-0.15215660084336996
1761336224452664300,3.886664306640625,-0.3218862677782774,-0.14887078410573304,-0.25066665943413974
1761336224462731300,3.896731201171875,-0.21309797627925872,-0.13082359769642352,-0.2700704480841756
1761336224472797400,3.90679736328125,-0.13010814290344713,-0.13114238132201134,-0.23029285670816896
1761336224482864400,3.916864501953125,-0.0727975251853466,-0.06465484300106764,-0.18528715542033314
1761336224492931300,3.926931396484375,0.014921090278029441,0.001695478806272149,-0.1258677288547158
1761336224502997500,3.93699755859375,0.12690613199174403,0.024867095557227728,-0.06896481515467166
1761336224513064400,3.947064453125,0.22101766336262224,0.005048880887404084,-0.0172910342797637
1761336224523130400,3.95713037109375,0.24584230801761148,-0.021343597606196998,0.003252572055160999
1761336224533197300,3.967197265625,0.24440906034409998,-0.04240552872680128,0.002196779391914606
1761336224543264500,3.977264404296875,0.1760240909039974,-0.0707378161765635,-0.03070931877940893
1761336224553330400,3.987330322265625,0.055258361363410946,-0.06546630551442503,-0.036653906397521495
1761336224563397400,3.9973974609375,-0.03587912263274193,-0.027552389118447897,0.0047989247143268585
1761336224573462500,4.007462646484375,-0.06896364611089228,-0.012193272749334573,0.02349398057311773
1761336224583529500,4.017529541015625,-0.07499708105623722,-0.038763226701691744,-0.006299684666097163
1761336224593595400,4.027595458984375,-0.08777531408667563,-0.09516549740321933,-0.0992110464669764
1761336224603662600,4.03766259765625,-0.0602361497759819,-0.17924385666809975,-0.2090169905759394
1761336224613729500,4.0477294921875,-0.02834872712790966,-0.26028284823708236,-0.22992475404813884
1761336224623795500,4.05779541015625,-0.04811024317443371,-0.29496406632214783,-0.20768954136446116
1761336224633862400,4.0678623046875,-0.06436053622961044,-0.29987953008823093,-0.11150865637362002
1761336224643928300,4.07792822265625,-0.035890813070535654,-0.28946086579598485,0.02972922170087695
1761336224653995500,4.08799560546875,-0.05557341866195201,-0.20254713697470722,0.13705883882418274
1761336224664061200,4.098061279296875,-0.0730547148168087,-0.09969247330836951,0.21110256467834113
1761336224674128400,4.10812841796875,-0.08068623260855674,-0.06448745054490863,0.25843919313177466
1761336224684195300,4.1181953125,-0.05517009855806827,-0.09504698559008538,0.27178835791796446
1761336224694261200,4.12826123046875,-0.06663315733671188,-0.15645882808193565,0.18942469361647962
1761336224704328200,4.138328125,-0.1079851584225893,-0.16383564046025276,0.11643807559981942
1761336224714394400,4.148394287109375,-0.19311901808977125,-0.14672208163924513,0.009367693934589624
1761336224724461300,4.15846142578125,-0.19690496636927127,-0.16455255655795334,-0.09579583119601011
1761336224734527200,4.16852734375,-0.13543839801549912,-0.22887414901666342,-0.12926760042607782
1761336224744594400,4.178594482421875,-0.033570261168479915,-0.3757195647746324,-0.1515155264608562
1761336224754661400,4.188661376953125,0.017920856615900992,-0.3601824614901095,-0.11047668297737837
1761336224764727300,4.198727294921875,-0.04598492158353328,-0.24911292718611655,-0.007448854701220989
1761336224774794200,4.208794189453125,-0.09517653025388717,-0.18026457801796494,0.09377952293753623
1761336224784860400,4.2188603515625,-0.18844342749416826,-0.13126396187506614,0.18680165163651108
1761336224794927400,4.22892724609375,-0.33752515093684193,-0.07030863097906112,0.2128790728315711
1761336224804993300,4.2389931640625,-0.4578513200163841,-0.0019230770170688628,0.170636844907701
1761336224815060500,4.249060546875,-0.4690320547223091,0.07760594838038086,0.11911372454985976
1761336224825127400,4.25912744140625,-0.4021376161009073,0.10301394588127731,0.03744856390655041
1761336224835193300,4.269193359375,-0.2834966236293316,0.095525124495849,-0.04315744307264685
1761336224845260300,4.27926025390625,-0.12493161704838275,0.13158303776159883,-0.11929434181377291
1761336224855326500,4.289326416015625,0.040403906580805775,0.10728395135067402,-0.22879282740876078
1761336224865393400,4.299393310546875,0.15729133338332174,0.013895035165920853,-0.3275419554524123
1761336224875459300,4.309459228515625,0.1710585774511099,-0.10395276110135018,-0.36658027276843785
1761336224885526500,4.319526611328125,0.13805530251562595,-0.1468317525587976,-0.3621304537527263
1761336224895593500,4.329593505859375,0.0762356829404831,-0.13314583009891212,-0.33185368117168546
1761336224905659400,4.339659423828125,0.0751893887579441,-0.09824052093438804,-0.279677211471647
1761336224915726300,4.349726318359375,0.09292436741292476,-0.06451426548659801,-0.23225626573562622
1761336224925792500,4.35979248046875,0.10151625466942786,-0.05896057688221335,-0.13987623433247207
1761336224935859500,4.369859375,0.10151567014753818,-0.05513173930905759,-0.0742982851371169
1761336224945925400,4.37992529296875,0.08877776912748814,-0.044706060754135246,-0.046599400220066305
1761336224955992600,4.38999267578125,-0.009001637101173401,-0.061731283704563975,-0.023294366347789763
1761336224966059500,4.4000595703125,-0.10745850419998168,-0.14049568140506744,0.012531710923463106
1761336224976125400,4.41012548828125,-0.131757079154253,-0.2170877765677869,0.018722528387606144
1761336224986192400,4.4201923828125,-0.15371698202788828,-0.27172493729293345,0.028480829074978828
1761336224996259300,4.43025927734375,-0.16501637467741964,-0.3285381999481469,0.03586260988935828
1761336225006326500,4.440326416015625,-0.18306874871850012,-0.34652350010238586,0.022446517346799373
1761336225016392400,4.450392333984375,-0.1560650064587593,-0.3260633342672139,-0.02272854915857315
1761336225026459400,4.46045947265625,-0.07631517791748046,-0.2669598417829722,-0.05004238028079271
1761336225036526300,4.4705263671875,0.04683656997680664,-0.18736271958537398,-0.042649931941926476
1761336225046592500,4.480592529296875,0.1461012463271618,-0.18047091424502432,0.010604396122694015
1761336225056659500,4.490659423828125,0.12084054834246635,-0.20816599976979194,0.023453794693201777
1761336225066725400,4.500725341796875,0.03572130172252655,-0.24515951338522135,0.04316431120485067
1761336225076792600,4.51079248046875,-0.04063128559589386,-0.2300614591050893,0.06905132439434528
1761336225086859500,4.520859619140625,-0.10505495018959045,-0.19957827723175287,0.09098287795633077
1761336225096925400,4.530925537109375,-0.1300795013308525,-0.16091463844701648,0.10609130750000476
1761336225106992400,4.540992431640625,-0.1397165137261152,-0.1345971248857677,0.0749064801633358
1761336225117058600,4.55105859375,-0.18326456355154513,-0.10692257069237529,0.008175707671046256
1761336225127125500,4.56112548828125,-0.17938684533536434,-0.05124160000272095,-0.08186009869351983
1761336225137191200,4.571191162109375,-0.1071831943899393,-0.0011496814917773008,-0.14498963182345032
1761336225147258400,4.58125830078125,-0.04703530741930008,0.006626432402431964,-0.1481428351573646
1761336225157325600,4.59132568359375,-0.02056172651350498,0.005105141119286418,-0.16053440695777535
1761336225167391200,4.60139111328125,-0.010384031370282173,0.010772884557396173,-0.1600365404382348
1761336225177458200,4.611458251953125,-0.0666717357814312,-0.0018918050959706306,-0.08452551851049066
1761336225187524400,4.6215244140625,-0.13553542864918708,0.0033165041368454695,-0.05158917133137583
1761336225197591300,4.63159130859375,-0.183035430970788,0.02592902570031583,-0.07406038472801446
1761336225207657200,4.6416572265625,-0.2157651496618986,0.021042568833008406,-0.14150354327335954
1761336225217724400,4.651724365234375,-0.22084406036138532,-0.0052771366853266955,-0.21801468215435743
1761336225227791400,4.661791259765625,-0.14954057312607763,-0.025925883895158767,-0.2852875986993313
1761336225237857300,4.671857177734375,-0.04984861127436161,-0.063655456700176,-0.3360182535052299
1761336225247924200,4.68192431640625,0.04087503122389316,-0.08538016257844865,-0.30669673582240936
1761336225257990400,4.691990478515625,0.13146423368752003,-0.03862739842757582,-0.23863836798816918
1761336225268057300,4.702057373046875,0.16846739191412924,0.009163841925561427,-0.12398323028236627
1761336225278124300,4.712124267578125,0.12117606390714644,-0.001430763455480337,-0.02964475828781724
1761336225288190500,4.7221904296875,0.0378320102661848,-0.06088197339884936,0.023769144252687693
1761336225298257400,4.73225732421875,0.04663958609998226,-0.07475983823426068,0.03668064827397465
1761336225308323300,4.7423232421875,0.15713585056066512,-0.07908705378361046,0.049699412062019103
1761336225318390300,4.752390380859375,0.24892273837625978,-0.1228681817125529,0.0690143533848226
1761336225328456400,4.76245654296875,0.2861234650015831,-0.1506272723842412,0.08487389355674385
1761336225338524400,4.7725244140625,0.26790859387516974,-0.17237185200676322,0.050959787386655804
1761336225348591400,4.78259130859375,0.10631517938375472,-0.14968253888003527,-0.0061487318880856035
1761336225358657300,4.7926572265625,-0.11632803935408592,-0.10607106842957437,-0.02504661684259772
1761336225368724200,4.80272412109375,-0.24425474656522272,-0.06523461565040052,-0.044558395911753174
1761336225378790400,4.812790283203125,-0.3096995709002018,-0.07363777540177106,-0.08327376488372683
1761336225388857300,4.822857421875,-0.30901158863604067,-0.11781396706290542,-0.1268362816259265
1761336225398924300,4.83292431640625,-0.21680618314743041,-0.13066665356904267,-0.15431275596395133
1761336225408990500,4.842990478515625,-0.13327566702365876,-0.1441664788722992,-0.15876666663289069
1761336225419057400,4.853057373046875,-0.11486790367364882,-0.17447167383022605,-0.12180442493855953
1761336225429123000,4.863123046875,-0.08897767561376094,-0.148697838691622,-0.08187515013217926
1761336225439190300,4.873190185546875,-0.0402069227039814,-0.07334427234791219,-0.02757218979746103
1761336225449256200,4.883256103515625,-0.022960604348778724,0.001503024974092841,0.06518631952926517
1761336225459323100,4.8933232421875,-0.08897066135108471,0.052266559136286375,0.06156652159690856
1761336225469390000,4.90339013671875,-0.1685749439418316,0.03312902020700276,0.0195728616066277
1761336225479456300,4.913456298828125,-0.21497019989192484,-0.010987842482328414,-0.06337956236824394
1761336225489523200,4.923523193359375,-0.17435703447461126,-0.11403422932848334,-0.09348404712229967
1761336225499589000,4.933589111328125,-0.11205576886236666,-0.19100253739245235,-0.10357581754773855
1761336225509656000,4.943656005859375,-0.029991233637928962,-0.22845373164750635,-0.10614698320999741
1761336225519722200,4.95372216796875,0.06118365975916385,-0.24040917705297468,-0.09158873489499092
1761336225529789200,4.9637890625,0.1306844814866781,-0.20176037051118909,-0.0461193616181612
1761336225539856100,4.973856201171875,0.14903379264771938,-0.11564933637492358,0.003550824349373579
1761336225549922300,4.98392236328125,0.17254209400713444,-0.048375616112351416,0.04498714271783828
1761336225559989200,4.9939892578125,0.20942016454935072,-0.048657794054597615,0.08579246970638632
1761336225570055200,5.00405517578125,0.17390403001010418,-0.07504464652501046,0.14402736266255378
1761336225580122000,5.0141220703125,0.09455050731003284,-0.07944463504962623,0.20034926160424946
1761336225590189300,5.024189208984375,-0.019853870505094528,-0.14267572885788976,0.2260385602645576
1761336225600255200,5.034255126953125,-0.15573299802541732,-0.2245581124484539,0.16011165150105952
1761336225610322200,5.044322265625,-0.2484434304267168,-0.27364998707138,0.016802812371402978
1761336225620388400,5.054388427734375,-0.2759229735046625,-0.285858311259374,-0.0644797786951065
1761336225630455300,5.064455322265625,-0.2528887193977833,-0.26895956423282624,-0.048589258863031864
1761336225640521200,5.074521240234375,-0.18840660261511802,-0.24486601033136246,0.046927024739235636
1761336225650588200,5.084588134765625,-0.18257424319982526,-0.1849541240736842,0.15531126548200844
1761336225660655400,5.0946552734375,-0.22141513824760914,-0.10437098651342093,0.24236323373019694
1761336225670721300,5.10472119140625,-0.20706512585580347,-0.09485255899652838,0.2742205535009503
1761336225680788200,5.114788330078125,-0.15119944624900816,-0.15318126771599053,0.17296631076857447
1761336225690854400,5.1248544921875,-0.03453764489591121,-0.23377748395353554,0.05682239580973982
1761336225700921300,5.13492138671875,0.13100012330710886,-0.30798582578487693,-0.00168313078135252
1761336225710987300,5.1449873046875,0.22479075216054914,-0.3339841173291206,0.011572656632959841
1761336225721054200,5.15505419921875,0.2483469843149185,-0.3326658012721687,-0.010515548795461654
1761336225731121400,5.165121337890625,0.2561281397104263,-0.2870504436533898,-0.01908624713346362
1761336225741187300,5.175187255859375,0.21460428918898106,-0.28335202752687033,-0.009262333863973618
1761336225751254300,5.185254150390625,0.09494505958557128,-0.2862760252147913,-0.0184400581844151
1761336225761320400,5.195320556640625,-0.024602526336908338,-0.2383799362476915,0.0016882453478872775
1761336225771387400,5.205387451171875,-0.11594634656012058,-0.27046105483695865,-0.015023527739197014
1761336225781454300,5.215454345703125,-0.2088461640536785,-0.30504955313727256,0.059277826137840745
1761336225791520300,5.225520263671875,-0.28700960018634797,-0.24998357254080472,0.17250526912808417
1761336225801587500,5.23558740234375,-0.25258944419026375,-0.15414938209578394,0.21469912786558268
1761336225811653400,5.2456533203125,-0.2110468889683485,-0.09563260345831513,0.20143340357914566
1761336225821720300,5.25572021484375,-0.18120880006551743,-0.054640887052193284,0.2088935103267431
1761336225831786200,5.2657861328125,-0.20342121639549732,0.031762919485568995,0.22696809619963168
1761336225841853400,5.275853515625,-0.2495978611588478,0.11770590357854961,0.200328657207638
1761336225851920400,5.28592041015625,-0.24725977360010146,0.17098719271533191,0.17335925560891627
1761336225861986000,5.295986083984375,-0.2294061370015144,0.18805932354740798,0.05872457616925239
1761336225872053500,5.306053466796875,-0.18781272837519644,0.152906250166893,-0.07606529480963944
1761336225882119200,5.316119140625,-0.14636778830885885,0.058124052992835636,-0.19712094720751047
1761336225892186000,5.32618603515625,-0.15427227782309055,0.015157602447643876,-0.3056079176723957
1761336225902253300,5.33625341796875,-0.17685761911869047,0.02288315519839525,-0.3695483287937939
1761336225912319200,5.3463193359375,-0.11637012493014334,-0.004131839107722044,-0.3439988769955933
1761336225922386200,5.35638623046875,-0.02587912214398384,-0.07677709634080529,-0.23703838544562458
1761336225932452000,5.3664521484375,0.08032850521206855,-0.11056121945567428,-0.14367211948409675
1761336225942519300,5.376519287109375,0.1653232486695051,-0.07691168250590562,-0.07858750676363706
1761336225952585200,5.386585205078125,0.15843758080899714,-0.03484327677898109,-0.00013195581659674645
1761336225962652200,5.396652099609375,0.14278408460319042,0.0017957243103533982,0.09104293758049607
1761336225972719000,5.406718994140625,0.163471483322978,-0.005369345013424754,0.1755953440979123
1761336225982785300,5.416785400390625,0.16640929034054278,-0.05704042247459292,0.19969313578307626
1761336225992852200,5.426852294921875,0.15545885725915431,-0.08544709033481776,0.18451704783067105
1761336226002918100,5.436918212890625,0.12203531108498572,-0.0800608672518283,0.14999226241633296
1761336226012985300,5.4469853515625,0.041463644766807556,-0.08376753975003957,0.11364961392506956
1761336226023051300,5.45705126953125,-0.049341246274113654,-0.09356208079457283,0.03391498295292258
1761336226033118200,5.4671181640625,-0.10220715954303741,-0.06674282825626432,-0.017599369576573373
1761336226043185200,5.47718505859375,-0.10504325975179672,-0.053505672477185726,-0.030708734257519243
1761336226053251300,5.487251220703125,-0.10909925714433193,-0.05183839685209095,-0.043844840814918275
1761336226063318300,5.497318359375,-0.11168868911564349,-0.053230070406198496,-0.04551335854902863
1761336226073384200,5.50738427734375,-0.12652677728533743,-0.10481653832383453,-0.07480696531161665
1761336226083451400,5.517451416015625,-0.14975801526904106,-0.15295732276700436,-0.11603782423585653
1761336226093518300,5.527518310546875,-0.14805764109194278,-0.148088913013041,-0.18219401171058416
1761336226103584300,5.537584228515625,-0.11595452986657619,-0.1368452691387385,-0.23035466989800332
1761336226113651200,5.547651123046875,-0.07071662725806235,-0.1113133529972285,-0.17455460287332533
1761336226123717400,5.55771728515625,-0.05129881008267402,-0.024042846627533435,-0.06947817150428891
1761336226133784300,5.567784423828125,-0.06822773305177689,0.04520385420843959,-0.016070406443625687
1761336226143850200,5.577850341796875,-0.03863923499584198,0.08614325590543448,0.014083324279636144
1761336226153917400,5.58791748046875,0.018624036449193953,0.08025617062821984,0.0129306471131742
1761336226163984400,5.597984375,0.05408990210592746,0.03554258415475488,-0.042365708173066376
1761336226174050300,5.60805029296875,0.047585927039384836,-0.004355857121944427,-0.1087953057616949
1761336226184117200,5.6181171875,0.0020756372302770613,-0.04749364564605057,-0.15804273627251386
1761336226194183400,5.628183349609375,-0.026777532288432118,-0.06464775567315519,-0.1623110612414777
1761336226204250400,5.63825048828125,-0.07077215683758259,-0.05855353045128286,-0.13625322152972222
1761336226214317300,5.6483173828125,-0.11661737768948077,-0.07990333860255777,-0.10792261458039283
1761336226224383200,5.65838330078125,-0.16580664827227592,-0.09112535516694188,-0.07175006195902824
1761336226234450400,5.668450439453125,-0.20112346084713933,-0.08992379735745488,-0.06637889031469822
1761336226244516400,5.678516357421875,-0.23484686675071714,-0.08756744348965585,-0.08982917787656187
1761336226254583300,5.688583251953125,-0.2796639135986566,-0.07737908082194626,-0.10966332076787948
1761336226264649200,5.698649169921875,-0.3326870632559061,-0.043670434096083045,-0.1264610185727477
1761336226274716400,5.70871630859375,-0.29421558604240416,-0.029802360002323985,-0.09878069222569465
1761336226284783400,5.718783447265625,-0.1872568480581045,-0.015412088665366171,-0.06361410177648068
1761336226294849300,5.728849365234375,-0.017492402070760724,0.03221826203763485,-0.056756052575260396
1761336226304916500,5.73891650390625,0.12213818693757056,0.04991261642128229,-0.06412745812609791
1761336226314982100,5.748982177734375,0.20819383762478827,0.009305369288101792,-0.11365925853624939
1761336226325049000,5.759049072265625,0.26838731730282306,-0.08106514892354608,-0.14774287605434655
1761336226335115300,5.769115234375,0.2698866159498691,-0.15061521662026642,-0.1871507573351264
1761336226345182200,5.77918212890625,0.22049860792458056,-0.1730494590073824,-0.2109836144737899
1761336226355249200,5.789249267578125,0.15282441710233688,-0.16790413200818002,-0.18760215436443686
1761336226365315000,5.799315185546875,0.06173018772602081,-0.15429171317592263,-0.14866554385721684
1761336226375382300,5.80938232421875,-0.0487421113371849,-0.14529796712026,-0.08817425027638673
1761336226385448200,5.8194482421875,-0.1090787988781929,-0.12419241605363786,-0.029430384884774684
1761336226395515100,5.82951513671875,-0.08124912718832493,-0.12359050463773309,0.015480769987404346
1761336226405582000,5.83958203125,-0.05761690718829632,-0.16434943520128725,0.04945478965118527
1761336226415648300,5.849648193359375,-0.08959200811982154,-0.19098302897438404,0.03538096385225654
1761336226425715200,5.859715087890625,-0.1419254219472408,-0.19328918702490627,0.026812749732285736
1761336226435781000,5.869781005859375,-0.21322247944176195,-0.20233166759312152,0.030441461623460054
1761336226445848300,5.879848388671875,-0.23924656301438807,-0.20027488119378684,0.03409881508722901
1761336226455914200,5.889914306640625,-0.19432488674819468,-0.22132154168002305,0.015469225680083035
1761336226465981200,5.899981201171875,-0.10187748919725417,-0.28895174723006783,-0.020969868922978637
1761336226476048100,5.910048095703125,0.027018939828872678,-0.3282640591818839,-0.04817454058229923
1761336226486114300,5.9201142578125,0.05325228223800659,-0.3079038465898484,-0.01100610879138112
1761336226496181200,5.93018115234375,0.02979424976110458,-0.2535512018945068,0.06266220787912608
1761336226506247200,5.9402470703125,-0.07428922504782676,-0.1700150597475469,0.06253565889000892
1761336226516314000,5.950314208984375,-0.23051263693869112,-0.12142185536175966,0.0033073709823191163
1761336226526381300,5.96038134765625,-0.3732727561444044,-0.10035079108662903,-0.07018573525175452
1761336226536447000,5.970447021484375,-0.423824547252059,-0.05469846245832741,-0.07940086897313595
1761336226546514000,5.980513916015625,-0.3422837436407804,0.028116598872467875,-0.05042451146617531
1761336226556580000,5.990580078125,-0.17848258997201918,0.10885492699444294,-0.009245528859645127
1761336226566647000,6.00064697265625,0.013616437420248985,0.17532763307243585,0.027929186541587114
1761336226576713000,6.010712890625,0.2035954039186239,0.21994367745555937,0.00025528993532061573
1761336226586780200,6.0207802734375,0.31248131057322026,0.20283559852726757,-0.07586202732250094
1761336226596847000,6.03084716796875,0.3476876485109329,0.11772701943181454,-0.16926599494591354
1761336226606913000,6.0409130859375,0.3038993601888418,0.06085515845715999,-0.2678264685496688
1761336226616980000,6.05097998046875,0.18848375950455665,0.0416374669637531,-0.31124738486409187
1761336226627046100,6.061046142578125,0.08397709084749222,0.057059492501243946,-0.2965834842175245
1761336226637113000,6.071113037109375,-0.011776362511515617,0.05134491424672305,-0.25909458830058574
1761336226647180000,6.081179931640625,-0.13732757276296614,0.0070984338283538815,-0.22150588527098297
1761336226657246200,6.09124609375,-0.1564221493333578,-0.008762567648291588,-0.1640830393500626
1761336226667313200,6.101313232421875,-0.12128069332540034,-0.01824804274365306,-0.0778533472701907
1761336226677379000,6.111379150390625,-0.08438450260460376,-0.051867988272756335,-0.022129706482589242
1761336226687446000,6.121446044921875,-0.05655483091473579,-0.1036247712559998,0.001072451537102461
1761336226697512200,6.13151220703125,-0.03166471980810165,-0.10864018826521933,-0.05968333819881081
1761336226707579100,6.1415791015625,0.008733926075696945,-0.09750168526582419,-0.11368468523845075
1761336226717646000,6.15164599609375,0.012661328652501105,-0.10448314165100454,-0.13950330936685204
1761336226727712300,6.161712158203125,0.01147299565076828,-0.0990126012854278,-0.11674319602623581
1761336226737779200,6.171779296875,-0.07039163308739661,-0.08929704376123845,-0.09015139556825161
1761336226747845000,6.18184521484375,-0.14820143347680567,-0.09100508978813886,-0.047423429954051965
1761336226757912000,6.191912109375,-0.20000936212539672,-0.11387158611267804,0.013163579086214303
1761336226767979300,6.201979248046875,-0.2062970640927553,-0.12633585782311857,0.0332440979540348
1761336226778045200,6.212045166015625,-0.19307108729481695,-0.11833178039193153,-0.012297025384753942
1761336226788112100,6.222112060546875,-0.15194120452702045,-0.07381123227253555,-0.08308861757516861
1761336226798178300,6.23217822265625,-0.10265256522297858,-0.028750439796596763,-0.09771320912465453
1761336226808245200,6.242245361328125,-0.06056757368743419,-0.007723799185082316,-0.06981470998227596
1761336226818311200,6.252311279296875,-0.05624444979131221,0.03700600777082145,-0.0786607181303203
1761336226828378000,6.262378173828125,-0.007809796968102455,0.023056758199632165,-0.0406741018243134
1761336226838445300,6.2724453125,-0.017509353205561635,-0.04733465569205582,0.02662029590010643
1761336226848511200,6.28251123046875,-0.05151683674752712,-0.09992036378011107,0.03660349138453602
1761336226858578200,6.292578125,-0.06250000305473805,-0.136617743993178,0.02055997294783592
1761336226868644400,6.302644287109375,-0.05092296250760555,-0.15566095570251345,-0.0006244155086576938
1761336226878711300,6.312711181640625,-0.028777766194939613,-0.1543934930499643,-0.0334270533055067
1761336226888778200,6.3227783203125,-0.002741407662630081,-0.15200579419583082,-0.043130993457138535
1761336226898844200,6.33284423828125,0.034656302839517594,-0.11353482843898235,-0.03073591452538967
1761336226908911000,6.3429111328125,0.059925768652558324,-0.05928922431468963,0.008898322857171296
1761336226918977300,6.352977294921875,0.08964344604611396,-0.02464958034902811,0.06493906676992774
1761336226929044200,6.363044189453125,0.08812368913292884,0.0037405017025768754,0.0835321235589683
1761336226939110100,6.373110107421875,0.025682722789049147,0.03427767878547311,0.07750979452952741
1761336226949177300,6.38317724609375,-0.0761830759704113,0.02375847672820091,0.062555094242841
1761336226959244300,6.393244384765625,-0.158687756177783,0.0018425591267645358,0.03131312989145517
1761336226969310000,6.40331005859375,-0.13764672171473502,-0.06533924506865442,0.008424860126525163
1761336226979377200,6.413377197265625,-0.04838964463770389,-0.11160020711459219,-0.01208119067698717
1761336226989443000,6.423443115234375,0.05797405006289482,-0.12386216118596494,-0.043280777191370724
1761336226999510000,6.433510009765625,0.15669278296828268,-0.10894209382124244,-0.03019903116971254
1761336227009577000,6.443576904296875,0.19460954890847204,-0.06387845180109143,0.029271979452669617
1761336227019643100,6.45364306640625,0.11744506068527698,-0.06385390188172459,0.08541077691242098
1761336227029710000,6.4637099609375,-0.02072773073017597,-0.0655295069437474,0.0860312468983233
1761336227039776000,6.47377587890625,-0.11366554214656352,-0.036147491245344276,0.07960545163452624
1761336227049843200,6.48384326171875,-0.1528103885769844,-0.050300227499380706,0.08489698217138647
1761336227059910100,6.49391015625,-0.1651274338364601,-0.09081818891391158,0.017089374227821825
1761336227069976000,6.50397607421875,-0.15353987189531326,-0.15454787989407776,-0.07908274293467402
1761336227080043000,6.51404296875,-0.1454898364305496,-0.18061214934661984,-0.14785598104000092
1761336227090109200,6.524109130859375,-0.19719664279222487,-0.23022344473376868,-0.14634279999807476
1761336227100176100,6.534176025390625,-0.2414841128081083,-0.22196356591060756,-0.10678265076503157
1761336227110242000,6.544241943359375,-0.3135965783387422,-0.18000819210410118,-0.07303557172492146
1761336227120309000,6.55430908203125,-0.3605225801646709,-0.15248875540718435,-0.017528788558393717
1761336227130376200,6.564376220703125,-0.333017318123579,-0.12949497944116592,0.0020657003581523894
1761336227140442000,6.574442138671875,-0.2099099938929081,-0.11493293173387646,0.002602291452884674
1761336227150509000,6.584509033203125,-0.04381050015389919,-0.16973770411089062,0.0034444413654506206
1761336227160575200,6.5945751953125,0.06935761386454105,-0.22573738536089658,-0.002694207520037889
1761336227170642200,6.60464208984375,0.13239070088267327,-0.3070757982678711,-0.05440057549029589
1761336227180709000,6.614709228515625,0.14089023368060588,-0.32474852534160015,-0.09104571405947208
1761336227190775000,6.624775146484375,0.11404197424352168,-0.29685601754859087,-0.11362389496192335
1761336227200842200,6.63484228515625,0.09746960962712764,-0.2674818928956985,-0.11169555724784731
1761336227210908200,6.644908203125,0.07565934435725212,-0.23489947372078895,-0.11584361683800816
1761336227220975000,6.65497509765625,0.010464695391058921,-0.2017847012348473,-0.10753361526280641
1761336227231042000,6.6650419921875,-0.05387187544107437,-0.17127689637690782,-0.06591682576090097
1761336227241108200,6.675108154296875,-0.09337620283365249,-0.11896218724995851,0.033872166724503036
1761336227251175200,6.685175048828125,-0.16901508892476558,-0.0711637865036726,0.056901160134375094
1761336227261241000,6.695240966796875,-0.25171324587762356,-0.06288344941437245,-0.00507072739303112
1761336227271308300,6.705308349609375,-0.27768472248017784,-0.0864836668409407,-0.09131605543345213
1761336227281374200,6.715374267578125,-0.23503917445242403,-0.1012403603374958,-0.15134250798150897
1761336227291441200,6.725441162109375,-0.14408464580774305,-0.09362433237582445,-0.13844853961691259
1761336227301508000,6.735508056640625,-0.06704466074705123,-0.020213935989141462,-0.08759206647425889
1761336227311574300,6.74557421875,0.011359013882279395,0.03156929660961032,-0.027627573246508837
1761336227321641200,6.75564111328125,0.0478489618897438,-0.020432547175884247,0.015587006840854883
1761336227331707100,6.76570703125,0.06303717867136001,-0.07939063984006643,-0.00019157704934477806
1761336227341774000,6.775774169921875,0.06202770936787128,-0.128260176949203,-0.046472266709059476
1761336227351841000,6.785841064453125,0.05630114841461181,-0.17463409785032272,-0.08221125021874905
1761336227361907000,6.795906982421875,0.07376373986899852,-0.19943828423917292,-0.08852540180161594
1761336227371974000,6.805973876953125,0.08329144667088985,-0.15858838745653628,-0.04042684906497598
1761336227382040000,6.8160400390625,0.017705168038606642,-0.13418766730204224,0.023757746075838804
1761336227392107000,6.82610693359375,-0.027721535140275953,-0.10169628741145133,0.08652224528566002
1761336227402173000,6.8361728515625,0.0021516250759363175,-0.04987140762805938,0.11750979648455977
1761336227412240100,6.846240234375,0.02332943766117096,-0.038621114817261694,0.07308978613018989
1761336227422307000,6.85630712890625,0.037593525335192675,-0.07117971472516656,-0.005546528211235999
1761336227432373000,6.866373046875,0.02077741509079933,-0.1104404426202178,-0.0416556602075696
1761336227442440000,6.87643994140625,-0.017315291938185692,-0.1324234341084957,-0.06307005802765488
1761336227452506000,6.886506103515625,-0.08050853795409202,-0.18978680492714045,-0.049718555153906344
1761336227462573000,6.896572998046875,-0.1564051981985569,-0.20764614061415193,-0.04575038217529654
1761336227472640000,6.906639892578125,-0.22902327516376972,-0.1923692226357758,-0.0246117325566709
1761336227482706200,6.9167060546875,-0.2526782915174961,-0.13689458817318081,0.0014959376461803912
1761336227492773000,6.926773193359375,-0.23914368716180323,-0.07694689994975924,0.034082302343845364
1761336227502839000,6.936839111328125,-0.2107721636801958,-0.024557810412347315,0.06528364242389798
1761336227512906000,6.946906005859375,-0.1669271767348051,-0.031031974862515924,0.07903554279208183
1761336227522973200,6.95697314453125,-0.171502229565382,-0.08100888869166374,0.09750833420231937
1761336227533039000,6.9670390625,-0.20838263819515704,-0.10365955030843615,0.06108765203878283
1761336227543106000,6.97710595703125,-0.17956337094604968,-0.05064677591472864,-0.006419073262065649
1761336227553172200,6.987172119140625,-0.10093991608619689,-0.05691182765886187,-0.048942894606292246
1761336227563239200,6.9972392578125,-0.02726151641309261,-0.10541560019552706,-0.0666312576405704
1761336227573305000,7.00730517578125,0.03644610886573791,-0.11187091381475328,-0.09603168577849865
1761336227583372000,7.0173720703125,0.08018588187098502,-0.10611746485456823,-0.08866510253325104
1761336227593439000,7.02743896484375,0.0720475836008787,-0.10753463817611336,-0.0018586334787309168
1761336227603505200,7.037505126953125,0.04198153116106987,-0.0951335678949952,0.04204933570027351
1761336227613572000,7.047572021484375,0.012077391284704208,-0.0825897281423211,-0.01990998460650444
1761336227623638000,7.057637939453125,0.0021989713490009307,-0.07450973593071103,-0.0765193221874535
1761336227633705200,7.067705322265625,0.021963994526863095,-0.07778130494728684,-0.10117372484207153
1761336227643772200,7.077772216796875,0.041214638441801066,-0.06696107411682606,-0.08447539575845002
1761336227653837800,7.087837890625,0.007597031000256538,-0.06508622015565634,-0.10137523876354097
1761336227663905000,7.097905029296875,-0.0393137732565403,-0.07558233359828591,-0.12657660777643323
1761336227673971000,7.107970947265625,-0.052265609288215636,-0.07125175704807042,-0.12929112743213772
1761336227684038000,7.118037841796875,-0.05737257703840732,-0.08999109044000506,-0.1250135962434113
1761336227694104800,7.128104736328125,-0.10602584104835987,-0.12187135269492864,-0.134002519993484
1761336227704171000,7.1381708984375,-0.1280062021881342,-0.11360475187003612,-0.1420562087200582
1761336227714238000,7.148238037109375,-0.12337386621236801,-0.12067805125713348,-0.16488120399042963
1761336227724304000,7.158303955078125,-0.1146907935410738,-0.14669234408810733,-0.1531296836592257
1761336227734371000,7.16837109375,-0.14651158069372175,-0.17378215719610451,-0.08692191212773323
1761336227744437000,7.17843701171875,-0.14921207182407378,-0.13923925160318612,-0.09856953369304537
1761336227754504000,7.18850390625,-0.06872399213612079,-0.043882980868220324,0.015638590897619722
1761336227764571000,7.19857080078125,0.07703589340746403,0.038377076928317544,0.1961402656070888
1761336227774637000,7.208636962890625,0.26141163307130333,0.05894362574741244,0.24056232178807258
1761336227784704000,7.2187041015625,0.44469080967009067,0.05597483906969428,0.2629815127365291
1761336227794770000,7.22877001953125,0.4868675711423158,-0.03918810105025768,0.25153569735363124
1761336227804836900,7.2388369140625,0.4130868801385164,-0.0588616465523839,0.18356047775819898
1761336227814904000,7.248904052734375,0.2109767463415861,-0.07963336255475878,0.017812573935836552
1761336227824970000,7.258969970703125,0.03420622098445892,-0.09249138282313943,-0.11061726049184799
1761336227835037000,7.269036865234375,-0.06201309632062912,-0.09528042901977896,-0.1374927001968026
1761336227845103000,7.27910302734375,-0.11692425168156623,-0.12995982047393917,-0.15468144314587115
1761336227855170000,7.289170166015625,-0.11867255665361881,-0.10265256522297858,-0.15657777828648686
1761336227865237000,7.299237060546875,-0.17791677278280257,-0.13209537119790912,-0.23785101700276134
1761336227875303000,7.309302978515625,-0.2109586261630058,-0.19546499669402836,-0.2927102960459888
1761336227885370000,7.3193701171875,-0.2884726584762335,-0.24811565977707503,-0.35355858637094495
1761336227895436000,7.32943603515625,-0.3533826452821493,-0.21870748672410845,-0.46319355782717464
1761336227905503000,7.3395029296875,-0.27634324474334715,-0.1643178710192442,-0.4225650487102568
1761336227915569200,7.349569091796875,-0.12058218966722488,-0.1787203442506492,-0.24501184854283928
1761336227925636000,7.359635986328125,0.0759346541672945,-0.14520780461877583,-0.15436214806362986
1761336227935703000,7.369703125,0.20590777251422404,-0.1178144785195589,-0.13762187953442334
1761336227945769000,7.37976904296875,0.19236673841774463,-0.13982596544995904,-0.1448950854077935
1761336227955836200,7.389836181640625,0.12907704629004002,-0.17313816020414233,-0.09689458621814846
1761336227965902000,7.399902099609375,-0.018237082958221434,-0.17231997568905352,-0.06477320868372917
1761336227975969000,7.409968994140625,-0.16504209364056585,-0.10718845508694648,0.02501008422449231
1761336227986036000,7.420035888671875,-0.2720961086928844,-0.04736453937366605,0.1302643563784659
1761336227996102100,7.43010205078125,-0.3099813104510307,-0.06657499740868807,0.16096023115441202
1761336228006169000,7.440169189453125,-0.3528285185307264,-0.13520970382615924,0.15695099551305175
1761336228016235000,7.450235107421875,-0.3972527666687965,-0.1886198069743812,0.07812558834031223
1761336228026302200,7.46030224609375,-0.31854923231005666,-0.20000220173224806,-0.02532791800200939
1761336228036368100,7.4703681640625,-0.12273498378694057,-0.13959507930353282,-0.11751797979101537
1761336228046435000,7.48043505859375,0.15993629493415354,-0.07538958750516175,-0.12843772547319532
1761336228056502000,7.490501953125,0.3676028938144445,-0.020269465568661688,-0.04896130704581737
1761336228066568200,7.500568115234375,0.3900304141998291,0.022960458218306303,0.03169657625108957
1761336228076635100,7.51063525390625,0.2845037548452616,0.002846767733246088,0.10680953877195715
1761336228086700800,7.52070068359375,0.1464800165116787,-0.05833893785253167,0.1365831841364503
1761336228096768300,7.530768310546875,0.041326282122731206,-0.09231324977725744,0.10793810441046953
1761336228106835200,7.540835205078125,0.047180853369832035,-0.12966054526641965,0.03455810316205025
1761336228116900900,7.55090087890625,0.03831540986895561,-0.1752187658704817,-0.009053805679827928
1761336228126967800,7.5609677734375,-0.03179857532083988,-0.21256503844633698,-0.01559212140738964
1761336228137034000,7.571033935546875,-0.11853577853143214,-0.1981844847857952,-0.017165946595370768
1761336228147101000,7.581100830078125,-0.15653788466751575,-0.2036667155891657,-0.021173867062479257
1761336228157167900,7.59116796875,-0.2778834599226713,-0.24591756521090863,-0.002286649632453918
1761336228167234000,7.601234130859375,-0.41899230479002,-0.2556641754604876,-0.014163988300412893
1761336228177301000,7.611301025390625,-0.44340076985955235,-0.20785700688585637,0.015569763445109129
1761336228187367000,7.621366943359375,-0.38655835417509077,-0.1965047150053084,0.1022030678898096
1761336228197433900,7.631433837890625,-0.277052269795537,-0.10689517122879624,0.23353607641309498
1761336228207501000,7.6415009765625,-0.17997078270316122,0.02051101923957467,0.34216932348087425
1761336228217567000,7.65156689453125,-0.10373100810945034,0.006886398512870073,0.2931038254082203
1761336228227634000,7.661634033203125,-0.0009632920742034911,-0.0789070941068232,0.1247105216436088
1761336228237700000,7.6717001953125,0.05951894141733646,-0.1834608167760074,-0.03952858505100012
1761336228247767000,7.68176708984375,0.06623042175471783,-0.2560002755470574,-0.16572642264291643
1761336228257833000,7.6918330078125,0.05027005155682564,-0.26165099478513,-0.21619681907743216
1761336228267900000,7.70189990234375,-0.01105856963098049,-0.28510785821825263,-0.21675123808979987
1761336228277967000,7.711967041015625,-0.047045828813314435,-0.31490897611156105,-0.1602472605794668
1761336228288033000,7.722032958984375,-0.038591888722777364,-0.26192937333509325,0.020390607730299232
1761336228298100000,7.732099853515625,-0.11278992835581302,-0.15856982888653873,0.190308929105103
1761336228308166100,7.742166259765625,-0.31819735013246536,-0.07758490559235215,0.280481951983273
1761336228318233000,7.752233154296875,-0.47401335026621816,-0.019590105002373456,0.2571200733572245
1761336228328300000,7.762300048828125,-0.4886410105556249,-0.056694677776843304,0.15355404655113816
1761336228338366000,7.772365966796875,-0.40805356214642524,-0.13362418820038438,0.010443068081140518
1761336228348432600,7.7824326171875,-0.33749417127668857,-0.20874007333070038,-0.14344664016515016
1761336228358498300,7.792498291015625,-0.26170740114748475,-0.25635157320275903,-0.196087658637017
1761336228368565200,7.802565185546875,-0.1779459988772869,-0.24671572985127566,-0.1880824852272868
1761336228378632400,7.812632568359375,-0.07412088274359703,-0.210032305098325,-0.10478343977183104
1761336228388698400,7.822698486328125,0.055116322544217104,-0.14683672099485992,-0.029761516535282133
1761336228398765300,7.832765380859375,0.13510638958215712,-0.09910334830880164,0.07179930792823433
1761336228408831200,7.842831298828125,0.1366682320713997,-0.08186711295619606,0.19712956890538333
1761336228418898400,7.8528984375,0.06511281590163708,-0.11984905308708547,0.2603689921505749
1761336228428964400,7.86296435546875,-0.10529343512058258,-0.15110270787626504,0.29015418182238933
1761336228439031300,7.87303125,-0.25868483845591544,-0.15655688162893056,0.26917963672429324
1761336228449098200,7.88309814453125,-0.31422493937015533,-0.1811528320945799,0.18358619672134519
1761336228459164400,7.893164306640625,-0.30674656631350516,-0.184659817302227,0.05941475039049983
1761336228469231400,7.9032314453125,-0.17668460063934324,-0.16576558560952542,-0.0581534982830286
1761336228479297300,7.91329736328125,-0.0047439796566963194,-0.16474325682446359,-0.18858298209533095
1761336228489364500,7.923364501953125,0.08141337783932685,-0.1257907180957496,-0.24443244121968744
1761336228499431400,7.933431396484375,0.11989420740306377,-0.10700272325649857,-0.2569387254409492
1761336228509497300,7.943497314453125,0.0832756645798683,-0.10735898934826255,-0.19864640320912003
1761336228519564300,7.953564208984375,0.03393675639331341,-0.1327481360182166,-0.1364955058529973
1761336228529630500,7.96363037109375,-0.00845218652486801,-0.11905877949222922,-0.03459448964968324
1761336228539697400,7.973697509765625,-0.03361234674453735,-0.04732493801563978,0.07453165550157427
1761336228549764400,7.983764404296875,-0.03962941507697105,-0.011560381673276424,0.13951426915228365
1761336228559830500,7.99383056640625,-0.025079496198892593,-0.04057400245070457,0.08422975043430923
1761336228569896400,8.003896484375,0.004162380376458168,-0.056134121284633874,-0.030868016472458838
1761336228579962400,8.01396240234375,0.005634791016578674,-0.08437368894964456,-0.13975523830130696
1761336228590029600,8.024029541015626,0.008974749094247817,-0.09420987717881799,-0.22831337332874535
1761336228600096500,8.034096435546875,0.037820319828391076,-0.09957184260338545,-0.2494621059499681
1761336228610162400,8.044162353515626,0.12270868030190467,-0.1292734456449747,-0.2168582055956125
1761336228620229400,8.0542294921875,0.2072907513052225,-0.14418328387662768,-0.14269333757981656
1761336228630295600,8.064295654296876,0.1868161185532808,-0.15896102016121147,-0.057256549443304536
1761336228640362500,8.074362548828125,0.11918050617575644,-0.1436886322274804,-0.021043957072496414
1761336228650428400,8.084428466796876,0.08655190977156162,-0.16167963147014378,-0.04337576199844479
1761336228660495600,8.09449560546875,0.132118898203969,-0.15334917162880302,-0.07649009609296918
1761336228670562600,8.1045625,0.2809241427928209,-0.12887071006298065,-0.03201718650758266
1761336228680628500,8.11462841796875,0.3885556654721498,-0.15613807169497013,0.024193945536017416
1761336228690695400,8.1246953125,0.3518751633286476,-0.20945523586273193,0.03230257932022214
1761336228700761600,8.13476171875,0.16428163066208362,-0.18537950987890361,-0.034696196458488704
1761336228710828500,8.14482861328125,-0.10161036269366741,-0.14435045713707803,-0.04991188576892018
1761336228720895500,8.1548955078125,-0.5709013606131077,-0.0975038041576743,0.04546060544848442
1761336228730961400,8.16496142578125,-0.9967197120308875,-0.049896103677898644,0.18033260175287721
1761336228741028600,8.175028564453125,-1.1817904482215642,0.00853913415595889,0.2085992035552859
1761336228751094300,8.18509423828125,-1.0813970601022243,-0.07738499910607934,0.11171353129595517
1761336228761161200,8.1951611328125,-0.820664056944847,-0.17888401037976145,0.02434343700930476
1761336228771228700,8.205228759765625,-0.6006126082658767,-0.18578399902656673,-0.06980696506723762
1761336228781294300,8.21529443359375,-0.31591888380646704,-0.07504632702544331,-0.17128785616233944
1761336228791361300,8.225361328125,-0.03418926984965801,0.003841916250437498,-0.22816826576963065
1761336228801427500,8.235427490234375,0.21891630716919896,-0.03768865627273917,-0.2194235260389745
1761336228811494400,8.245494384765625,0.3671148180365562,-0.025908932760357856,-0.1736937482602894
1761336228821561300,8.255561279296876,0.39241526350975037,-0.025250322721153497,-0.13965060888305306
1761336228831627300,8.265627197265625,0.3361637994557619,-0.06462780886366963,-0.09526698501631617
1761336228841694500,8.275694580078126,0.24253683673143386,-0.10060542343482375,-0.054329702211171386
1761336228851760400,8.285760498046875,0.09048983374238014,-0.16532017992958425,-0.0248918646723032
1761336228861827300,8.295827392578126,-0.038278584989905357,-0.13843115009069443,-0.015417787753790616
1761336228871893500,8.3058935546875,-0.06453063209950924,-0.12050415599495172,-0.011595014595240354
1761336228881960400,8.31596044921875,0.0018429975181818007,-0.1125846150420606,-0.022254063514620063
1761336228892027400,8.32602734375,0.07592939347028732,-0.1265852294743061,-0.0374748673915863
1761336228902093300,8.33609326171875,0.13059154250621796,-0.1402544199950993,-0.040013592088967556
1761336228912160500,8.346160400390625,0.07418167302012443,-0.1324523679420352,-0.022699761455506087
1761336228922226400,8.356226318359376,-0.006815525233745574,-0.12955518519580364,-0.0029134032286703584
1761336228932293400,8.36629345703125,-0.05559679953753948,-0.16542568613067268,0.011033873581141232
1761336228942360300,8.3763603515625,-0.0967524012684822,-0.22305530667006968,0.014391513445973395
1761336228952426500,8.386426513671875,-0.1473983004003763,-0.19894158676341175,0.07479951265752315
1761336228962493400,8.396493408203124,-0.21618132924735545,-0.17431217241957783,0.09242328602299094
1761336228972560400,8.406560302734375,-0.2563561032474041,-0.152634885879606,0.11941884497627615
1761336228982627300,8.41662744140625,-0.2584182964742184,-0.13636559586301444,0.14497297294959424
1761336228992693500,8.426693603515625,-0.27255320481061934,-0.14808599040359258,0.11652823810130357
1761336229002760400,8.436760498046874,-0.2781727982580662,-0.14904519082456827,0.03562617078498006
1761336229012826400,8.446826416015625,-0.2532791800200939,-0.14957549830898642,-0.03317147110924124
1761336229022893300,8.456893310546874,-0.17491759096682072,-0.13441197757720946,-0.060830900798738
1761336229032960500,8.46696044921875,-0.07764028904139995,-0.14047566153034566,-0.05284516274183988
1761336229043026400,8.4770263671875,-0.005754033482074737,-0.1349833477243781,-0.055393970441818235
1761336229053093400,8.48709326171875,0.015479893204569816,-0.1485937937952578,-0.060819210360944266
1761336229063159600,8.49715966796875,-0.002465513330698013,-0.12843918677791952,-0.08344020749181509
1761336229073226500,8.5072265625,-0.09230945038497447,-0.09434460947439074,-0.058586482872813934
1761336229083293400,8.51729345703125,-0.125613754093647,-0.04896700613424182,-0.022862989193201063
1761336229093359400,8.527359375,-0.04061491898298263,-0.08196092871949076,-0.056187312776595354
1761336229103426600,8.537426513671875,0.0378016151279211,-0.11597279617562889,-0.06612915333732962
1761336229113492500,8.547492431640626,0.09959434669613837,-0.10008885221481323,-0.06579422229453921
1761336229123559400,8.557559326171875,0.10025485643148421,-0.13206453766822815,-0.09078823216706514
1761336229133625600,8.56762548828125,0.05136427653431892,-0.1378153562799096,-0.0673806147031486
1761336229143692500,8.577692626953125,-0.004790741407871246,-0.15641834994107484,-0.06863236832991242
1761336229153759500,8.587759521484376,-0.08332301085293292,-0.08628127613663673,0.009787088390439748
1761336229163825400,8.597825439453125,-0.1731055731087923,-0.012062632106989622,0.0676418959878385
1761336229173892600,8.607892578125,-0.21986206358671187,0.04269187138751149,0.10348784700334071
1761336229183959600,8.61795947265625,-0.22609540501832961,0.01954597359970212,0.12204948574081062
1761336229194025500,8.628025390625,-0.16540800434350966,-0.0366546370498836,0.06145224756747484
1761336229204092400,8.638092529296875,-0.08279927923977375,-0.07424246329665184,-0.052531274487078186
1761336229214158600,8.64815869140625,0.032609307181835176,-0.1147523144699633,-0.08347644784897565
1761336229224225500,8.6582255859375,0.13940963973402976,-0.116103144557029,-0.06055792907625437
1761336229234291500,8.66829150390625,0.1966594671756029,-0.11202537372410297,-0.0540698822312057
1761336229244358700,8.678358642578125,0.20103519804179668,-0.12360796722918749,-0.006435293744504451
1761336229254425600,8.688425537109374,0.08793255047500133,-0.13011837203651666,0.06133680449426174
1761336229264491300,8.6984912109375,-0.09365969595015049,-0.12022124740034341,0.06438610906228423
1761336229274558500,8.708558349609374,-0.22195114482045172,-0.0661519496910274,0.0860028975866735
1761336229284624400,8.718624267578125,-0.2437415363460779,-0.10549787165150046,0.03522533489912748
1761336229294691300,8.72869140625,-0.1900976244419813,-0.16681261044442652,-0.00038519992530345915
1761336229304758500,8.738758544921875,-0.1427069277137518,-0.1591952673085034,-0.0022774434126913547
1761336229314824400,8.748824462890624,-0.12093699445426463,-0.13764555267095566,-0.01679682102203369
1761336229324891400,8.758891357421875,-0.09474690666496753,-0.17241116110384463,-0.05255553214550018
1761336229334957300,8.768957275390624,-0.1352209558725357,-0.1743329229466617,-0.09314765477478504
1761336229345024500,8.7790244140625,-0.1610410413056612,-0.10396861625760793,-0.033683366154134274
1761336229355091500,8.789091552734375,-0.12883154709637165,-0.1044024776302278,-0.03308101634681224
1761336229365157600,8.79915771484375,-0.09798340436816215,-0.13281111825183034,-0.06965235902741551
1761336229375224600,8.809224609375,-0.07561959686875343,-0.1464618963330984,-0.07322773329615592
1761336229385290500,8.81929052734375,-0.04590191947519779,-0.16209551879465578,-0.04794643091484904
1761336229395357700,8.829357666015625,0.01305412736237049,-0.15537950841262935,-0.03986249318048358
1761336229405424600,8.839424560546876,0.06754618052840232,-0.14801877038627861,-0.0008295826919376849
1761336229415490600,8.849490478515625,0.0978898808658123,-0.14289499763175845,0.07744432807788253
1761336229425557500,8.8595576171875,0.08340659748315811,-0.1251661564566195,0.11850304530560969
1761336229435623700,8.869623779296875,0.05000935479402542,-0.11167670641690491,0.09125833389684557
1761336229445690600,8.879690673828126,-0.002846621602773666,-0.10564444051533937,0.03128536510169506
1761336229455757600,8.889757568359375,-0.05461304919719696,-0.133224813619256,-0.059672232282906766
1761336229465823700,8.89982373046875,-0.07287643564045429,-0.1492567877486348,-0.0883941766373813
1761336229475890700,8.909890625,-0.035817747834324835,-0.13584770946875213,-0.0459985117174685
1761336229485956600,8.91995654296875,-0.0005611410140991211,-0.1572363883256912,-0.01359656367599964
1761336229496023600,8.9300234375,-0.03323416108191013,-0.15303689080923794,-0.020426994217932225
1761336229506089500,8.94008935546875,-0.08669804024398327,-0.1705132185280323,-0.07037497421354055
1761336229516156700,8.95015673828125,-0.13157587736845017,-0.19310294373780487,-0.1086561895519495
1761336229526223600,8.9602236328125,-0.19465338805019855,-0.12674407329782844,-0.016232611268013716
1761336229536289500,8.97028955078125,-0.2145581119596958,-0.05996171674877405,0.04549947615414857
1761336229546356700,8.980356689453124,-0.1836053398132324,-0.0290429930023849,0.05022007493525743
1761336229556422400,8.99042236328125,-0.12334639368355274,-0.059375295162945985,0.03607932137995958
1761336229566489300,9.0004892578125,-0.10976093592345713,-0.13259469902217388,-0.017671850290894506
1761336229576556800,9.010556884765625,-0.11976152093410491,-0.13130655890777707,-0.06144815591424703
1761336229586622500,9.02062255859375,-0.10219546910524367,-0.11175459395870566,-0.0751002491697669
1761336229596689400,9.030689453125,-0.028381460353732107,-0.16767083470895885,-0.10350918205231427
1761336229606755600,9.040755615234374,0.04149403990507126,-0.19203472998440266,-0.0926795988716185
1761336229616822500,9.050822509765625,0.06028700318038463,-0.16750629179701207,-0.05403773352727294
1761336229626889500,9.060889404296875,0.14391513445973395,-0.15726985220387577,-0.058887219385057685
1761336229636955400,9.070955322265625,0.18836042538583278,-0.1637264809973538,-0.006696575029194355
1761336229647022600,9.081022705078125,0.17061141820549963,-0.1791639963649213,0.026045710882544516
1761336229657088500,9.091088623046875,0.07599661348760127,-0.10557429788857697,0.032012218071520326
1761336229667155500,9.101155517578125,-0.05463818363845348,-0.07688947067409753,0.017099311099946498
1761336229677222400,9.111222412109376,-0.11835691483318805,-0.14183043714016674,-0.02298866139948368
1761336229687288600,9.12128857421875,-0.13753157090246676,-0.18831147167757153,-0.04948562318086624
1761336229697355500,9.13135546875,-0.1453466285675764,-0.08887202328220009,-0.0008513561323285102
1761336229707421400,9.14142138671875,-0.13569675669074058,-0.11431260787844658,-0.011152823785692453
1761336229717488600,9.151488525390626,-0.22966741828620432,-0.006116875445097684,-0.004792202712595462
1761336229727555600,9.1615556640625,-0.24606910251080988,0.06530351616814732,0.05013049695566296
1761336229737621500,9.17162158203125,-0.2506833183079958,-0.03443433065190911,-0.08095145941600203
1761336229747688400,9.1816884765625,-0.30009821434020995,-0.09554828617572785,-0.21919410119727253
1761336229757754600,9.191754638671876,-0.2810726113528013,-0.09694383218735456,-0.2212529334232211
1761336229767821600,9.201821533203125,-0.17517185798883436,-0.07975450471639632,-0.22141645342186092
1761336229777888500,9.211888427734374,-0.07641863829195499,-0.0833890618264675,-0.15294263665452598
1761336229787954700,9.22195458984375,0.018286182796955108,-0.11074176365435123,-0.03494637182727456
1761336229798021600,9.232021728515624,0.08165010920464992,-0.11125073608979583,0.043129824413359164
1761336229808087600,9.242087646484375,0.12456219921410083,-0.09311214506998658,0.10103943093791604
1761336229818154500,9.252154541015624,0.1302718090325594,-0.1000987890869379,0.128000941491127
1761336229828220700,9.262220703125,0.0942301893144846,-0.10518033013492822,0.13625263700783252
1761336229838287600,9.27228759765625,0.021845921105146406,-0.11551263131797312,0.12392360904961823
1761336229848354600,9.2823544921875,-0.05813537810444831,-0.10433628052622079,0.08381780863255262
1761336229858420700,9.292420654296874,-0.13172960662543773,-0.14437369188219307,0.018065964175015686
1761336229868487700,9.30248779296875,-0.1326677642583847,-0.18470979392379522,-0.04551993442028761
1761336229878553600,9.3125537109375,-0.06246025556623935,-0.17263605590090156,-0.047566199425607913
1761336229888620500,9.32262060546875,-0.0046259062349796294,-0.14035612680390477,0.0022907412856817246
1761336229898687500,9.3326875,-0.004340659552812576,-0.13676073266044259,0.03891176832690835
1761336229908753700,9.342753662109375,-0.0841822580307722,-0.11071911343112588,0.022268530431389807
1761336229918820600,9.352820556640625,-0.23631284765005112,-0.07837371788248419,-0.025266543203592298
1761336229928886500,9.362886474609375,-0.3274509161680937,-0.09588102526143193,-0.05629413415193557
1761336229938953700,9.37295361328125,-0.33632746558487414,-0.115792617303133,-0.10468509396389127
1761336229949020700,9.383020751953126,-0.26923195143342016,-0.13975494604036212,-0.11414572687894105
1761336229959086600,9.393086669921875,-0.1427314776331186,-0.19007512034922838,-0.09266761617287993
1761336229969153500,9.403153564453126,-0.005985504150390624,-0.1901996235117316,-0.09067644235566258
1761336229979219700,9.4132197265625,0.1298527068376541,-0.151722008818388,-0.08813523344025015
1761336229989286700,9.42328662109375,0.18992285239696502,-0.1637353949561715,-0.06603826018348335
1761336229999353600,9.433353515625,0.20433248602151868,-0.18431641069203614,-0.07005743269696832
1761336230009419800,9.443419677734376,0.17428046210706233,-0.1634796666294336,-0.08998144582882522
1761336230019486700,9.45348681640625,0.0827922649770975,-0.1388806474238634,-0.10610723572149872
1761336230029552400,9.463552490234376,-0.012454407903552055,-0.09869213715940714,-0.05475245766788721
1761336230039619300,9.473619384765625,-0.04070844248533249,-0.11839549327790737,0.0051927463375031945
1761336230049685500,9.483685546875,-0.07595160530209541,-0.145834119823575,-0.0044528877556324
1761336230059752400,9.49375244140625,-0.10932605163753031,-0.17242840449959038,-0.042349779951572415
1761336230069819400,9.5038193359375,-0.13264789051413536,-0.2147410673111677,-0.041888299919664855
1761336230079885600,9.513885498046875,-0.1322889940738678,-0.20257351352497935,0.019814707538485524
1761336230089952500,9.523952392578124,-0.15697393799722192,-0.2040821645222604,0.06134323423504829
1761336230100018400,9.534018310546875,-0.21701661102771758,-0.1648034625791013,0.0657009910531342
1761336230110085400,9.54408544921875,-0.23358663755655287,-0.10309373311921953,0.03991919180378318
1761336230120152600,9.554152587890625,-0.20889234128296374,-0.09021920010745525,0.023281360735744237
1761336230130218500,9.564218505859374,-0.16531214275360107,-0.11801336209252476,-0.05490662531629204
1761336230140285400,9.574285400390625,-0.10623977605998515,-0.16377309661805628,-0.0964769453279674
1761336230150351600,9.5843515625,-0.05304653053283691,-0.2002570532761514,-0.11201368328630923
1761336230160418600,9.59441845703125,0.02648527134358883,-0.24902766005545854,-0.12001491117328404
1761336230170485500,9.604485595703125,0.08699030118882656,-0.23706001275554298,-0.06869082051888108
1761336230180551400,9.614551513671875,0.11315759262442589,-0.24463980036005376,-0.043107612581551075
1761336230190618600,9.62461865234375,0.10865209789872168,-0.324115634265542,-0.10986673438549041
1761336230200684500,9.6346845703125,0.024746903243660925,-0.38088483858332034,-0.14694880306720734
1761336230210751500,9.64475146484375,-0.0451958170324564,-0.2287679852284491,0.09069163992479443
1761336230220818400,9.654818359375,-0.011086626681685446,-0.12010273558720945,0.23061405148655176
1761336230230884600,9.664884521484375,0.00627893413901329,-0.024787965906411406,0.14201602284014225
1761336230240951600,9.67495166015625,-0.028113749328255652,-0.03375423943325877,0.12203092717081308
1761336230251017500,9.685017578125,-0.07605155854523181,-0.05092179346382618,0.05655819191560149
1761336230261084700,9.695084716796876,-0.19806758040785788,-0.0659744011670351,-0.07960296741649509
1761336230271151600,9.705151611328125,-0.34763737962841984,-0.09987900885641575,-0.18104498780593276
1761336230281217500,9.715217529296876,-0.44659810459613797,-0.03499883266687393,-0.17334610386639832
1761336230291284500,9.725284423828125,-0.38588030878305435,0.17313889085650444,-0.08988280775994062
1761336230301350700,9.7353505859375,-0.27381694113612176,0.19254867085590957,-0.028274492847919462
1761336230311417600,9.74541748046875,-0.2126800431281328,0.05389423340335488,-0.13535671108141542
1761336230321484500,9.755484619140624,-0.09467033429741858,-0.0315732421323657,-0.1720963960662484
1761336230331550700,9.76555078125,-0.06373509780764579,-0.020911708994954824,-0.1042810432076454
1761336230341617700,9.77561767578125,-0.10295476303994655,-0.1229025954388082,-0.27261472573950885
1761336230351683600,9.78568359375,0.0385556483656168,-0.09343801602348685,-0.5630949246458709
1761336230361750500,9.79575048828125,0.20848376048207282,-0.11144318992197513,-0.4281555621936917
1761336230371817500,9.8058173828125,0.25084523087143895,-0.18368030474558472,-0.1647818352691829
1761336230381883600,9.815883544921874,0.2978139027953148,-0.15010697483718394,-0.0011688976489007473
1761336230391950600,9.82595068359375,0.3299666983813047,-0.21770444716140627,-0.010344137751311063
1761336230402016500,9.8360166015625,0.28825930798649785,-0.35505364723429084,-0.04509878639876842
