time,seconds_elapsed,z,y,x
1761336220637439500,0.071439453125,-0.09647857397794724,-0.22528401017189026,-0.027639683336019516
1761336220647506400,0.08150634765625,-0.09955081343650818,-0.1752726137638092,0.029076138511300087
1761336220657572600,0.091572509765625,-0.0916404277086258,-0.1499728560447693,0.026763981208205223
1761336220667639600,0.1016396484375,-0.08323371410369873,-0.1036476343870163,-0.01917096972465515
1761336220677705200,0.111705322265625,-0.09724326431751251,-0.0566665455698967,-0.07666835188865662
1761336220687772400,0.1217724609375,-0.1210930347442627,-0.03686174005270004,-0.14483721554279327
1761336220697839600,0.131839599609375,-0.14639705419540405,-0.030377473682165146,-0.2132282555103302
1761336220707905300,0.1419052734375,-0.15734517574310303,-0.033771298825740814,-0.27493324875831604
1761336220717972200,0.15197216796875,-0.16071194410324097,-0.05734426900744438,-0.32186558842658997
1761336220728038400,0.162038330078125,-0.14292274415493011,-0.10413464903831482,-0.3572830855846405
1761336220738105300,0.172105224609375,-0.10602625459432602,-0.16022242605686188,-0.3391014039516449
1761336220748171300,0.182171142578125,-0.06488640606403351,-0.18258163332939148,-0.267122745513916
1761336220758238200,0.19223828125,-0.03648485988378525,-0.2065250277519226,-0.1732681542634964
1761336220768304400,0.202304443359375,-0.013808658346533775,-0.2310110628604889,-0.05688116326928139
1761336220778371300,0.212371337890625,0.0028057387098670006,-0.23270322382450104,0.05249672755599022
1761336220788438300,0.222438232421875,0.02267066016793251,-0.21741391718387604,0.15061311423778534
1761336220798504400,0.23250439453125,0.03872845694422722,-0.14330719411373138,0.23204246163368225
1761336220808571400,0.2425712890625,0.04142933338880539,-0.05081557109951973,0.26706570386886597
1761336220818637300,0.25263720703125,0.057834405452013016,0.017943251878023148,0.2688713073730469
1761336220828704300,0.262704345703125,0.1711774319410324,0.05034942924976349,0.3423116207122803
1761336220838770400,0.2727705078125,0.15621286630630493,0.05558094382286072,0.2876558303833008
1761336220848837400,0.28283740234375,0.12383661419153214,-0.020324576646089554,0.19882333278656006
1761336220858903300,0.2929033203125,0.08505992591381073,-0.11374560743570328,0.10739516466856003
1761336220868970500,0.302970458984375,0.04938870295882225,-0.182521790266037,0.03780223801732063
1761336220879036400,0.313036376953125,0.046521276235580444,-0.19233259558677673,0.027831360697746277
1761336220889103400,0.323103271484375,0.024376148357987404,-0.189453125,0.007287642918527126
1761336220899170300,0.33317041015625,-0.01229052059352398,-0.22123262286186218,-0.032819829881191254
1761336220909236500,0.343236572265625,-0.03289935365319252,-0.20148220658302307,-0.0849994495511055
1761336220919303400,0.353303466796875,-0.05045810714364052,-0.16735167801380157,-0.1334572732448578
1761336220929369300,0.363369384765625,-0.08491446822881699,-0.16564908623695374,-0.16980890929698944
1761336220939436500,0.3734365234375,-0.11996540427207947,-0.18264219164848328,-0.19823922216892242
1761336220949502500,0.38350244140625,-0.1463632434606552,-0.21033018827438354,-0.20014195144176483
1761336220959569400,0.3935693359375,-0.16431587934494019,-0.23957596719264984,-0.15970665216445923
1761336220969635600,0.403635498046875,-0.1908559948205948,-0.30501434206962585,-0.09575485438108444
1761336220979702500,0.41370263671875,-0.24258577823638916,-0.3601897060871124,-0.022100338712334633
1761336220989769500,0.42376953125,-0.33436790108680725,-0.38549643754959106,0.06645026057958603
1761336220999835400,0.43383544921875,-0.48819953203201294,-0.4329094886779785,0.14564149081707
1761336221009902600,0.443902587890625,-0.6350750923156738,-0.485887348651886,0.18411052227020264
1761336221019968500,0.453968505859375,-0.726223886013031,-0.48737844824790955,0.17978209257125854
1761336221030035500,0.464035400390625,-0.7711108922958374,-0.49164843559265137,0.1451854109764099
1761336221040101400,0.474101318359375,-0.7834581136703491,-0.5278317332267761,0.10294608771800995
1761336221050168600,0.48416845703125,-0.7638932466506958,-0.5226289629936218,0.01360984519124031
1761336221060234200,0.494234130859375,-0.733099102973938,-0.4309442937374115,-0.08757536113262177
1761336221070301200,0.50430126953125,-0.6847869753837585,-0.3035274147987366,-0.18797074258327484
1761336221080368400,0.514368408203125,-0.6300172209739685,-0.18014557659626007,-0.2785738706588745
1761336221090434300,0.524434326171875,-0.5801233053207397,-0.09923218190670013,-0.34813636541366577
1761336221100501200,0.534501220703125,-0.5357459783554077,-0.07057657092809677,-0.3947100043296814
1761336221110567400,0.5445673828125,-0.4900664985179901,-0.10762636363506317,-0.43022972345352173
1761336221120634400,0.55463427734375,-0.45504459738731384,-0.2059209793806076,-0.4389941692352295
1761336221130700300,0.5647001953125,-0.4419403076171875,-0.343356192111969,-0.4032639265060425
1761336221140767200,0.574767333984375,-0.44395580887794495,-0.5118162631988525,-0.3397912085056305
1761336221150833400,0.58483349609375,-0.42805805802345276,-0.697070837020874,-0.244221031665802
1761336221160900400,0.594900390625,-0.38221919536590576,-0.8666002154350281,-0.16762080788612366
1761336221170967300,0.60496728515625,-0.3410976529121399,-0.9811685681343079,-0.1259280890226364
1761336221181033500,0.615033447265625,-0.3054264783859253,-1.01520574092865,-0.11955701559782028
1761336221191100400,0.625100341796875,-0.2960587441921234,-0.9921815395355225,-0.16596511006355286
1761336221201166300,0.635166259765625,-0.3070935606956482,-0.9220858216285706,-0.22438901662826538
1761336221211233300,0.6452333984375,-0.3124731183052063,-0.8069968819618225,-0.2739865779876709
1761336221221299500,0.655299560546875,-0.3133176267147064,-0.6703495383262634,-0.3186435103416443
1761336221231366400,0.665366455078125,-0.32638585567474365,-0.5498098731040955,-0.3613831400871277
1761336221241432300,0.675432373046875,-0.34624263644218445,-0.42219409346580505,-0.3911184072494507
1761336221251499500,0.68549951171875,-0.37120628356933594,-0.31350424885749817,-0.4069099426269531
1761336221261566500,0.69556640625,-0.4016946852207184,-0.2710832953453064,-0.42263326048851013
1761336221271632400,0.70563232421875,-0.42551907896995544,-0.25896888971328735,-0.41855761408805847
1761336221281699300,0.71569921875,-0.4343967139720917,-0.26983723044395447,-0.39662328362464905
1761336221291765500,0.725765625,-0.4426721930503845,-0.3056574761867523,-0.3494783341884613
1761336221301832400,0.73583251953125,-0.44419339299201965,-0.3384827971458435,-0.2873201370239258
1761336221311898400,0.7458984375,-0.4429425597190857,-0.3753911852836609,-0.2328944057226181
1761336221321965600,0.755965576171875,-0.43583670258522034,-0.4471609592437744,-0.20035430788993835
1761336221332031500,0.766031494140625,-0.4176877439022064,-0.5150682330131531,-0.2061677724123001
1761336221342098200,0.77609814453125,-0.3784668445587158,-0.5040651559829712,-0.22054430842399597
1761336221352165000,0.7861650390625,-0.3339555263519287,-0.45336973667144775,-0.25494903326034546
1761336221362231300,0.796231201171875,-0.291086882352829,-0.3976595997810364,-0.29185378551483154
1761336221372298200,0.80629833984375,-0.25708526372909546,-0.33041155338287354,-0.31644105911254883
1761336221382364200,0.8163642578125,-0.2342340052127838,-0.2583078145980835,-0.3172770142555237
1761336221392431400,0.826431396484375,-0.21991953253746033,-0.19136561453342438,-0.2999602258205414
1761336221402497300,0.836497314453125,-0.2224138379096985,-0.1438678652048111,-0.27854761481285095
1761336221412564200,0.846564208984375,-0.22520525753498077,-0.0956258699297905,-0.2580944299697876
1761336221422630100,0.856630126953125,-0.22193171083927155,-0.054214246571063995,-0.2325134128332138
1761336221432697300,0.866697265625,-0.21594762802124023,-0.03700728714466095,-0.2028225064277649
1761336221442764300,0.876764404296875,-0.2045370489358902,-0.05367095395922661,-0.1702861487865448
1761336221452830000,0.886829833984375,-0.2000647783279419,-0.10987108200788498,-0.12419857084751129
1761336221462897400,0.8968974609375,-0.20594769716262817,-0.18160413205623627,-0.08174751698970795
1761336221472963000,0.906963134765625,-0.22509053349494934,-0.2805711328983307,-0.05581240355968475
1761336221483030000,0.917030029296875,-0.23643852770328522,-0.3410504460334778,-0.02647901512682438
1761336221493096200,0.92709619140625,-0.2369179129600525,-0.3287365734577179,0.014724815264344215
1761336221503163100,0.9371630859375,-0.2430671602487564,-0.28331688046455383,0.050952598452568054
1761336221513229000,0.94722900390625,-0.2445337325334549,-0.23311415314674377,0.0708238035440445
1761336221523296000,0.9572958984375,-0.23058544099330902,-0.1912979930639267,0.0662093460559845
1761336221533363200,0.96736328125,-0.19940051436424255,-0.17388683557510376,0.0429985448718071
1761336221543429000,0.97742919921875,-0.14049166440963745,-0.1653876155614853,-0.005895757116377354
1761336221553496000,0.98749609375,-0.08420973271131516,-0.1633288711309433,-0.04929763823747635
1761336221563562200,0.997562255859375,-0.04296375811100006,-0.13534784317016602,-0.07551459968090057
1761336221573629200,1.007629150390625,-0.011440331116318703,-0.09010785073041916,-0.08797721564769745
1761336221583695000,1.017695068359375,0.01271027885377407,-0.09846724569797516,-0.09941761940717697
1761336221593762000,1.027761962890625,0.03143248334527016,-0.17497605085372925,-0.09084033221006393
1761336221603828200,1.037828125,0.041107214987277985,-0.23184333741664886,-0.033735502511262894
1761336221613895200,1.047895263671875,0.035093795508146286,-0.26257169246673584,0.05581648647785187
1761336221623962000,1.057962158203125,0.037920475006103516,-0.24348028004169464,0.18538913130760193
1761336221634028300,1.0680283203125,0.04352067783474922,-0.18404248356819153,0.34833505749702454
1761336221644095200,1.07809521484375,0.04302586242556572,-0.11421999335289001,0.4926605522632599
1761336221654161200,1.0881611328125,0.03689977154135704,-0.03217663615942001,0.5893029570579529
1761336221664228000,1.09822802734375,0.0494547113776207,0.02892080694437027,0.6572559475898743
1761336221674294300,1.108294189453125,0.08527928590774536,0.07897935807704926,0.7364877462387085
1761336221684361200,1.118361328125,0.1499062180519104,0.1664104014635086,0.8294805884361267
1761336221694427100,1.12842724609375,0.2229539453983307,0.2131405472755432,0.9162725210189819
1761336221704494300,1.138494384765625,0.28665223717689514,0.19258467853069305,0.9720478653907776
1761336221714561300,1.148561279296875,0.34599173069000244,0.15056611597537994,1.0018309354782104
1761336221724627200,1.158627197265625,0.4031234383583069,0.13123184442520142,1.0150917768478394
1761336221734694100,1.168694091796875,0.4379003643989563,0.09648287296295166,0.9982514381408691
1761336221744760300,1.17876025390625,0.45444074273109436,0.00848297867923975,0.9090057015419006
1761336221754827300,1.1888271484375,0.4565207362174988,-0.1545768827199936,0.745660662651062
1761336221764893200,1.19889306640625,0.44462624192237854,-0.32610708475112915,0.5267107486724854
1761336221774960400,1.20896044921875,0.41300955414772034,-0.47635549306869507,0.3107587397098541
1761336221785026000,1.219026123046875,0.3707033693790436,-0.5525479912757874,0.1253364235162735
1761336221795093200,1.22909326171875,0.34049808979034424,-0.5009461045265198,-0.02573934569954872
1761336221805160200,1.23916015625,0.3352985382080078,-0.30458036065101624,-0.1637536734342575
1761336221815226000,1.24922607421875,0.387359619140625,-0.006341083906590939,-0.3013414442539215
1761336221825293300,1.259293212890625,0.4772420823574066,0.34936055541038513,-0.45037272572517395
1761336221835359000,1.26935888671875,0.5503906011581421,0.6018752455711365,-0.6418214440345764
1761336221845426200,1.27942626953125,0.5760642886161804,0.6736927032470703,-0.8844838738441467
1761336221855492000,1.2894921875,0.5529735684394836,0.534575879573822,-1.1819074153900146
1761336221865559000,1.29955908203125,0.4787538945674896,0.20753224194049835,-1.494801640510559
1761336221875625200,1.309625244140625,0.3660329580307007,-0.18582022190093994,-1.7683898210525513
1761336221885692200,1.319692138671875,0.25555065274238586,-0.5320048332214355,-1.9652810096740723
1761336221895759000,1.329759033203125,0.1894705891609192,-0.7698341012001038,-2.0585060119628906
1761336221905825000,1.339824951171875,0.17419841885566711,-0.8778529763221741,-2.0506069660186768
1761336221915892200,1.349892333984375,0.21413742005825043,-0.8694509267807007,-1.9534348249435425
1761336221925958100,1.359958251953125,0.3327476680278778,-0.7313414812088013,-1.7935023307800293
1761336221936025000,1.370025146484375,0.5363962054252625,-0.4466562569141388,-1.6262904405593872
1761336221946091300,1.38009130859375,0.7573158144950867,-0.17439354956150055,-1.5129998922348022
1761336221956158200,1.390158203125,0.9491294622421265,0.04873894527554512,-1.4507215023040771
1761336221966224100,1.40022412109375,1.1128753423690796,0.1672235131263733,-1.3977110385894775
1761336221976291000,1.410291015625,1.244630217552185,0.15931947529315948,-1.330703616142273
1761336221986358300,1.420358154296875,1.3426891565322876,0.11037323623895645,-1.2008817195892334
1761336221996424200,1.430424072265625,1.3911744356155396,0.034587398171424866,-1.0306094884872437
1761336222006491100,1.4404912109375,1.3993617296218872,-0.02993832901120186,-0.8213886022567749
1761336222016557300,1.450557373046875,1.3823366165161133,-0.10627993196249008,-0.6164120435714722
1761336222026624300,1.460624267578125,1.3916491270065308,-0.19232800602912903,-0.4494129419326782
1761336222036690200,1.470690185546875,1.4526225328445435,-0.30075544118881226,-0.3147459328174591
1761336222046757000,1.480757080078125,1.5389745235443115,-0.3475964367389679,-0.19369035959243774
1761336222056823300,1.4908232421875,1.6601637601852417,-0.31632256507873535,-0.11478736996650696
1761336222066890200,1.50089013671875,1.7571438550949097,-0.24788492918014526,-0.07069127261638641
1761336222076957200,1.510957275390625,1.7811487913131714,-0.25424760580062866,-0.060294754803180695
1761336222087023400,1.5210234375,1.7602602243423462,-0.28324276208877563,-0.06900195777416229
1761336222097090300,1.53109033203125,1.6824296712875366,-0.31174853444099426,-0.09260691702365875
1761336222107156200,1.54115625,1.57369065284729,-0.32282114028930664,-0.07949910312891006
1761336222117223200,1.55122314453125,1.4781291484832764,-0.3155094087123871,-0.01879902370274067
1761336222127289300,1.561289306640625,1.3953425884246826,-0.3230821192264557,0.08254756778478622
1761336222137356300,1.571356201171875,1.3377685546875,-0.2956743836402893,0.1938830465078354
1761336222147422000,1.581421875,1.252217411994934,-0.22134104371070862,0.30413126945495605
1761336222157489400,1.591489501953125,1.1378436088562012,-0.13361653685569763,0.3823741674423218
1761336222167556400,1.601556396484375,1.0217167139053345,0.023499857634305954,0.3809981048107147
1761336222177622000,1.6116220703125,0.8883406519889832,0.3628474771976471,0.20973548293113708
1761336222187689200,1.621689208984375,0.7049684524536133,0.7699881196022034,-0.08817262947559357
1761336222197755100,1.631755126953125,0.45068252086639404,1.0184144973754883,-0.35516366362571716
1761336222207822000,1.641822021484375,0.15591663122177124,1.025099277496338,-0.4868023693561554
1761336222217888000,1.651887939453125,-0.10348618775606155,0.8903613090515137,-0.5443369746208191
1761336222227955200,1.661955078125,-0.28495532274246216,0.8111362457275391,-0.6122579574584961
1761336222238021000,1.672021240234375,-0.406128853559494,0.6776087880134583,-0.6831076145172119
1761336222248088000,1.682088134765625,-0.4472872316837311,0.5528771877288818,-0.7111091017723083
1761336222258155000,1.692155029296875,-0.4227520227432251,0.4539301097393036,-0.6987695097923279
1761336222268221200,1.70222119140625,-0.37676241993904114,0.3389204442501068,-0.6470117568969727
1761336222278288100,1.7122880859375,-0.33892109990119934,0.27178213000297546,-0.552135705947876
1761336222288354000,1.72235400390625,-0.2891783118247986,0.3260810673236847,-0.4711865186691284
1761336222298421200,1.732421142578125,-0.23208677768707275,0.4189935624599457,-0.41665706038475037
1761336222308487200,1.742487060546875,-0.20323941111564636,0.4811117947101593,-0.375249445438385
1761336222318554000,1.75255419921875,-0.2085372507572174,0.48048582673072815,-0.34259846806526184
1761336222328620300,1.762620361328125,-0.22894106805324554,0.495185911655426,-0.3531901240348816
1761336222338687200,1.772687255859375,-0.2517719864845276,0.4491065740585327,-0.3861507177352905
1761336222348754200,1.782754150390625,-0.25212058424949646,0.33741891384124756,-0.42688804864883423
1761336222358820000,1.792820068359375,-0.22207948565483093,0.22073017060756683,-0.43155455589294434
1761336222368887300,1.80288720703125,-0.17961111664772034,0.12975846230983734,-0.39259836077690125
1761336222378953200,1.812953125,-0.14219453930854797,0.06809894740581512,-0.3223409056663513
1761336222389020200,1.823020263671875,-0.12986516952514648,0.011361363343894482,-0.25172534584999084
1761336222399086300,1.83308642578125,-0.12492252141237259,-0.06943066418170929,-0.1852414757013321
1761336222409153300,1.8431533203125,-0.11052707582712173,-0.19790369272232056,-0.08549544215202332
1761336222419219200,1.85321923828125,-0.08553435653448105,-0.3650951385498047,0.06715409457683563
1761336222429286100,1.8632861328125,-0.04689694195985794,-0.5534642934799194,0.2515641450881958
1761336222439353300,1.873353271484375,0.007605483755469322,-0.680718183517456,0.43617257475852966
1761336222449419300,1.883419189453125,0.07327237725257874,-0.7329632639884949,0.5963171720504761
1761336222459486200,1.893486328125,0.12942452728748322,-0.7490158677101135,0.6942110061645508
1761336222469552000,1.90355224609375,0.17471158504486084,-0.7800696492195129,0.7316777110099792
1761336222479619300,1.913619384765625,0.22146576642990112,-0.8240157961845398,0.7116914391517639
1761336222489685000,1.92368505859375,0.286474347114563,-0.7380511164665222,0.6258226037025452
1761336222499752000,1.933751953125,0.3777552843093872,-0.521168053150177,0.44938167929649353
1761336222509818000,1.943818115234375,0.4116426706314087,-0.28724104166030884,0.2559317648410797
1761336222519885000,1.953885009765625,0.3923792541027069,-0.053986676037311554,0.07263852655887604
1761336222529952000,1.963951904296875,0.3351828157901764,0.1523963361978531,-0.036706604063510895
1761336222540018200,1.97401806640625,0.2770315706729889,0.3339066505432129,-0.04437680542469025
1761336222550085000,1.984085205078125,0.23979869484901428,0.4342159330844879,0.044325366616249084
1761336222560151000,1.994151123046875,0.2052590698003769,0.36438241600990295,0.2118915468454361
1761336222570218000,2.004218017578125,0.18509148061275482,0.11235417425632477,0.3405704200267792
1761336222580284200,2.0142841796875,0.20235487818717957,-0.24226288497447968,0.40700599551200867
1761336222590351000,2.02435107421875,0.2609579861164093,-0.5408876538276672,0.3817291259765625
1761336222600417000,2.0344169921875,0.36270859837532043,-0.6430490612983704,0.28408822417259216
1761336222610484200,2.044484130859375,0.4710116386413574,-0.5225266814231873,0.14806489646434784
1761336222620551200,2.05455126953125,0.5512949228286743,-0.2955981492996216,0.04078212380409241
1761336222630617000,2.0646171875,0.5879048705101013,-0.09565411508083344,0.008405277505517006
1761336222640684000,2.07468408203125,0.5879960656166077,-0.021732289344072342,0.06953516602516174
1761336222650750200,2.084750244140625,0.5599952936172485,-0.02989940717816353,0.22814637422561646
1761336222660817200,2.094817138671875,0.5078597068786621,0.028676427900791168,0.425925076007843
1761336222670883000,2.104883056640625,0.4497242867946625,0.05010741576552391,0.6923415660858154
1761336222680950300,2.1149501953125,0.39485833048820496,-0.0800163745880127,0.9323126673698425
1761336222691016200,2.12501611328125,0.3541697561740875,-0.2944354712963104,1.0946667194366455
1761336222701083100,2.135083251953125,0.3334939181804657,-0.498504638671875,1.1264026165008545
1761336222711150000,2.145150146484375,0.3484523594379425,-0.7189643383026123,1.0380014181137085
1761336222721216300,2.15521630859375,0.38289210200309753,-0.8418645262718201,0.8268614411354065
1761336222731283200,2.165283203125,0.42020243406295776,-0.8385850787162781,0.5581234693527222
1761336222741349000,2.17534912109375,0.4366561770439148,-0.7348455190658569,0.3058949112892151
1761336222751416300,2.185416259765625,0.41678526997566223,-0.531755268573761,0.11958735436201096
1761336222761482200,2.195482177734375,0.3764529526233673,-0.3036782145500183,0.028146319091320038
1761336222771549200,2.205549072265625,0.3334306478500366,-0.10337895154953003,0.005909191444516182
1761336222781616000,2.2156162109375,0.2641028165817261,0.019070811569690704,0.03319478780031204
1761336222791682300,2.225682373046875,0.20563308894634247,0.05094379186630249,0.12018321454524994
1761336222801749200,2.235749267578125,0.15267467498779297,-0.025698889046907425,0.23082749545574188
1761336222811815200,2.245815185546875,0.13008280098438263,-0.20569609105587006,0.2936277687549591
1761336222821882400,2.25588232421875,0.12997877597808838,-0.44240784645080566,0.30809763073921204
1761336222831948000,2.265947998046875,0.14664722979068756,-0.656086802482605,0.26490139961242676
1761336222842015000,2.276014892578125,0.17308859527111053,-0.7949092388153076,0.18868792057037354
1761336222852081200,2.2860810546875,0.19047664105892181,-0.8595571517944336,0.09480909258127213
1761336222862148000,2.296148193359375,0.19806937873363495,-0.8011412620544434,-0.04416356235742569
1761336222872215000,2.306215087890625,0.20273150503635406,-0.5998624563217163,-0.19066165387630463
1761336222882281000,2.316281005859375,0.21148793399333954,-0.3375759720802307,-0.3346863389015198
1761336222892348200,2.32634814453125,0.21938979625701904,-0.08408458530902863,-0.4726654887199402
1761336222902414000,2.3364140625,0.20392213761806488,0.1137295812368393,-0.5586026906967163
1761336222912481000,2.34648095703125,0.17114369571208954,0.21448761224746704,-0.5575185418128967
1761336222922547200,2.356547119140625,0.14220857620239258,0.21688269078731537,-0.49145781993865967
1761336222932614100,2.3666142578125,0.13836510479450226,0.11135653406381607,-0.40099048614501953
1761336222942680000,2.37668017578125,0.1495380401611328,-0.0793009027838707,-0.30654582381248474
1761336222952747000,2.3867470703125,0.16481740772724152,-0.25180715322494507,-0.2139759659767151
1761336222962814200,2.396814208984375,0.18153461813926697,-0.39596155285835266,-0.13231685757637024
1761336222972880100,2.406880126953125,0.19979031383991241,-0.5073109865188599,-0.06621347367763519
1761336222982947000,2.416947021484375,0.22354315221309662,-0.5597041845321655,-0.025696419179439545
1761336222993013200,2.42701318359375,0.24553713202476501,-0.5292890071868896,-0.014132708311080933
1761336223003080200,2.437080078125,0.2587510943412781,-0.3514001667499542,-0.043989889323711395
1761336223013146000,2.44714599609375,0.25441014766693115,-0.13795927166938782,-0.1109984815120697
1761336223023213000,2.457213134765625,0.2154051810503006,0.018021274358034134,-0.12425104528665543
1761336223033280300,2.4672802734375,0.13772450387477875,0.14774784445762634,-0.08057999610900879
1761336223043346200,2.47734619140625,0.03628593310713768,0.28031134605407715,-0.026058800518512726
1761336223053413000,2.4874130859375,-0.060561779886484146,0.39907875657081604,0.010007590055465698
1761336223063479300,2.497479248046875,-0.1289674937725067,0.49722403287887573,-0.00003313412889838219
1761336223073546200,2.507546142578125,-0.1764356791973114,0.5328919887542725,-0.029974255710840225
1761336223083612200,2.517612060546875,-0.2093188315629959,0.5105465650558472,-0.06883996725082397
1761336223093679000,2.52767919921875,-0.23268114030361176,0.43440887331962585,-0.08692309260368347
1761336223103745300,2.537745361328125,-0.23993104696273804,0.33153748512268066,-0.08264560997486115
1761336223113812200,2.547812255859375,-0.21498627960681915,0.1608901023864746,-0.05054865777492523
1761336223123879200,2.557879150390625,-0.1541062593460083,-0.01750941202044487,0.0033127237111330032
1761336223133945300,2.5679453125,-0.08247147500514984,-0.16976819932460785,0.06981346011161804
1761336223144012300,2.57801220703125,-0.018942713737487793,-0.29008761048316956,0.1494770348072052
1761336223154078200,2.588078125,0.029923629015684128,-0.3796153664588928,0.2294972985982895
1761336223164145200,2.598145263671875,0.0761432871222496,-0.4680396318435669,0.3209622800350189
1761336223174211300,2.60821142578125,0.1252535730600357,-0.5414275527000427,0.4219972789287567
1761336223184278300,2.6182783203125,0.171489417552948,-0.5666292905807495,0.4952166676521301
1761336223194344000,2.628343994140625,0.2003341168165207,-0.5821778774261475,0.5302149057388306
1761336223204411100,2.6384111328125,0.2082200050354004,-0.5547129511833191,0.532957911491394
1761336223214478300,2.648478271484375,0.20608361065387726,-0.48381346464157104,0.4836724102497101
1761336223224544000,2.6585439453125,0.21061140298843384,-0.3650095760822296,0.3880627751350403
1761336223234611000,2.66861083984375,0.2323491871356964,-0.1891927421092987,0.23191843926906586
1761336223244677000,2.678677001953125,0.24748094379901886,-0.02356772869825363,0.035311996936798096
1761336223254744000,2.688744140625,0.22336868941783905,0.10874370485544205,-0.17791691422462463
1761336223264810000,2.69881005859375,0.17347897589206696,0.2107624113559723,-0.3606252670288086
1761336223274877200,2.708877197265625,0.12909899652004242,0.26383495330810547,-0.48588091135025024
1761336223284944100,2.718944091796875,0.09704400599002838,0.2933118939399719,-0.5659262537956238
1761336223295010000,2.729010009765625,0.05965135991573334,0.3539310395717621,-0.6045836210250854
1761336223305077000,2.739076904296875,-0.007009838707745075,0.40816131234169006,-0.603909969329834
1761336223315143200,2.74914306640625,-0.087326779961586,0.4190315306186676,-0.5643692016601562
1761336223325210000,2.759210205078125,-0.17465755343437195,0.4115106463432312,-0.5070130228996277
1761336223335276000,2.769276123046875,-0.2600472867488861,0.33920449018478394,-0.43554946780204773
1761336223345342700,2.7793427734375,-0.3325624167919159,0.2319534868001938,-0.33874669671058655
1761336223355408600,2.78940869140625,-0.35493403673171997,0.1484958678483963,-0.23739318549633026
1761336223365475600,2.7994755859375,-0.3254338502883911,0.07507538795471191,-0.13021938502788544
1761336223375542500,2.80954248046875,-0.27801841497421265,0.058409057557582855,-0.04669492691755295
1761336223385608700,2.819608642578125,-0.23404322564601898,0.07318605482578278,-0.009510957635939121
1761336223395675600,2.829675537109375,-0.1900603175163269,0.09410997480154037,-0.016654353588819504
1761336223405741600,2.839741455078125,-0.1562080681324005,0.08939582854509354,-0.07278096675872803
1761336223415808800,2.849808837890625,-0.13521383702754974,0.09724842756986618,-0.15159988403320312
1761336223425874700,2.859874755859375,-0.1277981549501419,0.12327069044113159,-0.2300693690776825
1761336223435941600,2.869941650390625,-0.1368241310119629,0.19215920567512512,-0.30259203910827637
1761336223446008600,2.880008544921875,-0.14898136258125305,0.24897664785385132,-0.35043761134147644
1761336223456074800,2.89007470703125,-0.16419467329978943,0.24786663055419922,-0.363099068403244
1761336223466141700,2.9001416015625,-0.16850370168685913,0.2016373872756958,-0.3278847336769104
1761336223476207600,2.91020751953125,-0.16175951063632965,0.13250918686389923,-0.25027304887771606
1761336223486274800,2.92027490234375,-0.14150889217853546,0.09447422623634338,-0.13270150125026703
1761336223496340700,2.9303408203125,-0.1236976683139801,0.08008862286806107,-0.010922606103122234
1761336223506407700,2.94040771484375,-0.10903937369585037,0.07887402176856995,0.09922052919864655
1761336223516474600,2.950474609375,-0.10032204538583755,0.07552109658718109,0.17610839009284973
1761336223526540800,2.960540771484375,-0.09493223577737808,0.07360242307186127,0.21322788298130035
1761336223536607700,2.970607666015625,-0.08985359221696854,0.07780569046735764,0.21706177294254303
1761336223546673700,2.980673583984375,-0.07946450263261795,0.06886515766382217,0.19924095273017883
1761336223556740900,2.990740966796875,-0.07054717093706131,0.04924778640270233,0.15986743569374084
1761336223566806800,3.000806884765625,-0.054784804582595825,0.045382894575595856,0.09475815296173096
1761336223576873700,3.010873779296875,-0.04261016100645065,0.04979974403977394,0.032972551882267
1761336223586939600,3.020939697265625,-0.024945788085460663,0.06836778670549393,-0.01138120237737894
1761336223597006800,3.0310068359375,-0.012663553468883038,0.0855688825249672,-0.040022701025009155
1761336223607073800,3.04107373046875,-0.004115850664675236,0.09762272983789444,-0.07760503888130188
1761336223617139500,3.051139404296875,0.00204084487631917,0.10383215546607971,-0.11047324538230896
1761336223627207000,3.06120703125,-0.003893226385116577,0.11809495091438293,-0.14260566234588623
1761336223637272600,3.0712724609375,-0.023306872695684433,0.14399179816246033,-0.16294661164283752
1761336223647339500,3.081339599609375,-0.04877817630767822,0.1695682406425476,-0.17883364856243134
1761336223657405700,3.09140576171875,-0.06994737684726715,0.18967297673225403,-0.199386864900589
1761336223667472600,3.10147265625,-0.08857830613851547,0.20182213187217712,-0.2173183113336563
1761336223677539600,3.11153955078125,-0.13552159070968628,0.1359083652496338,-0.20373113453388214
1761336223687605500,3.12160546875,-0.1609005481004715,0.05301298946142197,-0.19027522206306458
1761336223697672700,3.131672607421875,-0.1509629637002945,0.016925562173128128,-0.17853495478630066
1761336223707738600,3.141738525390625,-0.12769335508346558,-0.008530139923095703,-0.175816610455513
1761336223717805600,3.1518056640625,-0.08917047083377838,0.017034873366355896,-0.20093899965286255
1761336223727871700,3.161871826171875,-0.06084045395255089,0.059087302535772324,-0.2409946769475937
1761336223737938700,3.171938720703125,-0.042463310062885284,0.06361227482557297,-0.2617329955101013
1761336223748004600,3.182004638671875,-0.013181985355913639,0.08476453274488449,-0.2869741916656494
1761336223758071600,3.192071533203125,0.01831255853176117,0.11776642501354218,-0.31631797552108765
1761336223768138800,3.202138671875,0.016284985467791557,0.08638741821050644,-0.3039834201335907
1761336223778204700,3.21220458984375,-0.002198949921876192,0.028174176812171936,-0.23502621054649353
1761336223788271600,3.222271728515625,-0.015520672313869,0.02023051120340824,-0.1349886953830719
1761336223798337800,3.232337890625,-0.03614446148276329,0.011459123343229294,-0.02149728499352932
1761336223808404700,3.24240478515625,-0.048462167382240295,0.0037846993654966354,0.07550555467605591
1761336223818470700,3.252470703125,-0.05831506848335266,-0.014369269832968712,0.13337311148643494
1761336223828537600,3.26253759765625,-0.06396226584911346,-0.02978057600557804,0.15741822123527527
1761336223838604800,3.272604736328125,-0.06783077120780945,-0.043105434626340866,0.15256540477275848
1761336223848670700,3.282670654296875,-0.06755830347537994,-0.04706890136003494,0.13417592644691467
1761336223858737700,3.292737548828125,-0.0639614388346672,-0.03985146805644035,0.10870972275733948
1761336223868803800,3.302803955078125,-0.04994552955031395,-0.027273233979940414,0.06874743849039078
1761336223878870800,3.312870849609375,-0.03322513774037361,-0.015845077112317085,0.02891905978322029
1761336223888936700,3.322936767578125,-0.015801742672920227,-0.02377082034945488,-0.019538134336471558
1761336223899003600,3.333003662109375,-0.0020901914685964584,-0.039554841816425323,-0.06753495335578918
1761336223909070800,3.34307080078125,0.000939324963837862,-0.0333159863948822,-0.10169781744480133
1761336223919136800,3.35313671875,-0.0040232096798717976,-0.019093908369541168,-0.11505996435880661
1761336223929203700,3.36320361328125,-0.016950294375419617,0.0029200883582234383,-0.11264179646968842
1761336223939270000,3.373269775390625,-0.019088812172412872,0.01890677586197853,-0.11267588287591934
1761336223949336800,3.3833369140625,-0.01775733195245266,0.037030160427093506,-0.1055212914943695
1761336223959402800,3.39340283203125,-0.011602766811847687,0.04697360843420029,-0.08727837353944778
1761336223969469700,3.4034697265625,-0.013102682307362556,0.057310014963150024,-0.06455167382955551
1761336223979537000,3.413536865234375,-0.016938965767621994,0.08253254741430283,-0.04955994337797165
1761336223989602800,3.423602783203125,-0.01475214958190918,0.07820611447095871,-0.046148866415023804
1761336223999669800,3.433669677734375,-0.013039469718933105,0.05996798723936081,-0.05370691418647766
1761336224009735700,3.443735595703125,-0.01311686635017395,0.044423073530197144,-0.07206729054450989
1761336224019802600,3.453802734375,-0.01335601694881916,0.033357106149196625,-0.07843011617660522
1761336224029868500,3.46386865234375,-0.006908679846674204,0.025821713730692863,-0.06923864781856537
1761336224039935500,3.473935546875,-0.005121432710438967,0.032829560339450836,-0.05222105234861374
1761336224050001700,3.484001708984375,-0.0017906767316162586,0.021164916455745697,-0.03813466802239418
1761336224060068600,3.494068603515625,-0.009198525920510292,0.005563586950302124,-0.023711521178483963
1761336224070135600,3.504135498046875,-0.018376683816313744,-0.015584620647132397,-0.00756411487236619
1761336224080201700,3.51420166015625,-0.024325652047991753,-0.03246773034334183,0.021770339459180832
1761336224090268700,3.5242685546875,-0.020433224737644196,-0.03449738398194313,0.04288468509912491
1761336224100334600,3.53433447265625,-0.00459114508703351,-0.03887481987476349,0.056993842124938965
1761336224110401500,3.544401611328125,0.011697595939040184,-0.04814496263861656,0.06540357321500778
1761336224120468700,3.55446875,0.0293120089918375,-0.04530443251132965,0.0726977065205574
1761336224130534700,3.56453466796875,0.031822569668293,-0.04511374980211258,0.08795282244682312
1761336224140601600,3.5746015625,0.017670799046754837,-0.0444631390273571,0.09362801909446716
1761336224150667800,3.584667724609375,0.009438632056117058,-0.04430033266544342,0.091692253947258
1761336224160734700,3.594734619140625,-0.0010880441404879093,-0.042149562388658524,0.08468520641326904
1761336224170800600,3.604800537109375,-0.01693720370531082,-0.03733602538704872,0.07591623812913895
1761336224180867600,3.61486767578125,-0.027927804738283157,-0.020523754879832268,0.057733774185180664
1761336224190933800,3.624933837890625,-0.03246743232011795,-0.0044351546093821526,0.04033811762928963
1761336224201000700,3.635000732421875,-0.033763859421014786,0.025865493342280388,0.025231603533029556
1761336224211067600,3.645067626953125,-0.03365893289446831,0.03576552867889404,0.014231683686375618
1761336224221133800,3.6551337890625,-0.04113628715276718,0.05089734494686127,0.00906541757285595
1761336224231200800,3.66520068359375,-0.04793785512447357,0.08084531873464584,-0.002156251110136509
1761336224241266700,3.6752666015625,-0.05671083927154541,0.10199214518070221,-0.013304775580763817
1761336224251333600,3.685333740234375,-0.06538040190935135,0.12697646021842957,-0.03914106264710426
1761336224261399800,3.69539990234375,-0.060247957706451416,0.1360655575990677,-0.06986435502767563
1761336224271466800,3.705466796875,-0.046711165457963943,0.13969901204109192,-0.09404665231704712
1761336224281533700,3.71553369140625,-0.03126136586070061,0.12949909269809723,-0.1225464716553688
1761336224291600000,3.725599853515625,-0.019507095217704773,0.10178643465042114,-0.13460250198841095
1761336224301666800,3.735666748046875,-0.00536357844248414,0.0862697958946228,-0.15772779285907745
1761336224311732700,3.745732666015625,0.009131165221333504,0.07507762312889099,-0.16616453230381012
1761336224321799700,3.755799560546875,0.018275128677487373,0.06956355273723602,-0.1528540551662445
1761336224331865900,3.765865966796875,0.022753335535526276,0.07245517522096634,-0.12308179587125778
1761336224341932300,3.775932373046875,0.022110715508461,0.07334201037883759,-0.07393155992031097
1761336224351999200,3.785999267578125,0.01623537205159664,0.049511052668094635,-0.032040659338235855
1761336224362065400,3.7960654296875,0.005852238740772009,-0.06723154336214066,0.023259345442056656
1761336224372132400,3.80613232421875,0.010120284743607044,-0.19523869454860687,0.06752963364124298
1761336224382198300,3.8161982421875,0.04754222556948662,-0.22253982722759247,0.07170253992080688
1761336224392265200,3.82626513671875,0.08802960813045502,-0.13056497275829315,0.01787482388317585
1761336224402331400,3.836331298828125,0.11306092143058777,-0.03547414019703865,-0.044797345995903015
1761336224412398300,3.8463984375,0.12114004790782928,0.028449665755033493,-0.07220780104398727
1761336224422465300,3.85646533203125,0.12367936968803406,0.02782675251364708,-0.040087684988975525
1761336224432531500,3.866531494140625,0.11457286030054092,0.0062693040817976,0.013174221850931644
1761336224442598400,3.876598388671875,0.10034491866827011,0.0081992968916893,0.059475142508745193
1761336224452664300,3.886664306640625,0.08198191225528717,0.013144277967512608,0.07141785323619843
1761336224462731300,3.896731201171875,0.06183189898729324,0.012454786337912083,0.07272200286388397
1761336224472797400,3.90679736328125,0.04842989146709442,0.01627209410071373,0.06907236576080322
1761336224482864400,3.916864501953125,0.04392329230904579,0.017369050532579422,0.06948834657669067
1761336224492931300,3.926931396484375,0.040548041462898254,0.01655453070998192,0.05522361397743225
1761336224502997500,3.93699755859375,0.04068359360098839,0.01650872454047203,0.018856287002563477
1761336224513064400,3.947064453125,0.0452628992497921,0.02419247478246689,-0.019196823239326477
1761336224523130400,3.95713037109375,0.041683610528707504,0.02745804190635681,-0.05178193002939224
1761336224533197300,3.967197265625,0.03379354998469353,0.02644864097237587,-0.07610329985618591
1761336224543264500,3.977264404296875,0.02959187887609005,0.03036455437541008,-0.07702049612998962
1761336224553330400,3.987330322265625,0.03064161352813244,0.044520385563373566,-0.0751948431134224
1761336224563397400,3.9973974609375,0.039516862481832504,0.05567742884159088,-0.07009010016918182
1761336224573462500,4.007462646484375,0.04761892929673195,0.06818211078643799,-0.06262635439634323
1761336224583529500,4.017529541015625,0.050486624240875244,0.07730450481176376,-0.06099569797515869
1761336224593595400,4.027595458984375,0.03979072347283363,0.0907922089099884,-0.05645369738340378
1761336224603662600,4.03766259765625,0.022594423964619637,0.08403816819190979,-0.049034662544727325
1761336224613729500,4.0477294921875,0.009783613495528698,0.08140349388122559,-0.04719001427292824
1761336224623795500,4.05779541015625,0.00003910670056939125,0.057070985436439514,-0.04405733942985535
1761336224633862400,4.0678623046875,-0.007286178879439831,-0.039512716233730316,0.0018160268664360046
1761336224643928300,4.07792822265625,-0.0009193597361445427,-0.07384751737117767,0.03380298987030983
1761336224653995500,4.08799560546875,0.025554955005645752,-0.08873818814754486,0.05525032430887222
1761336224664061200,4.098061279296875,0.05970706790685654,-0.05508408695459366,0.05007234215736389
1761336224674128400,4.10812841796875,0.08991527557373047,0.002166035585105419,0.02198565937578678
1761336224684195300,4.1181953125,0.10560262948274612,0.03401264548301697,-0.012170447036623955
1761336224694261200,4.12826123046875,0.1258668601512909,0.05776195973157883,-0.041040368378162384
1761336224704328200,4.138328125,0.13496927917003632,0.06854749470949173,-0.031357377767562866
1761336224714394400,4.148394287109375,0.14709360897541046,0.05810251832008362,-0.005421767942607403
1761336224724461300,4.15846142578125,0.14590290188789368,0.024925388395786285,0.020418882369995117
1761336224734527200,4.16852734375,0.10846830159425735,-0.08517777919769287,0.059069931507110596
1761336224744594400,4.178594482421875,0.09103098511695862,-0.14455296099185944,0.06611638516187668
1761336224754661400,4.188661376953125,0.09422128647565842,-0.1640356183052063,0.056269336491823196
1761336224764727300,4.198727294921875,0.10468272119760513,-0.16716590523719788,0.0452750064432621
1761336224774794200,4.208794189453125,0.11402061581611633,-0.1569889932870865,0.03541891276836395
1761336224784860400,4.2188603515625,0.12438350915908813,-0.1348370909690857,0.03367187827825546
1761336224794927400,4.22892724609375,0.14257362484931946,-0.09020741283893585,0.038805585354566574
1761336224804993300,4.2389931640625,0.15785324573516846,-0.04366893693804741,0.06292024254798889
1761336224815060500,4.249060546875,0.16935664415359497,-0.021634284406900406,0.09188194572925568
1761336224825127400,4.25912744140625,0.1746494174003601,-0.011055940762162209,0.12134316563606262
1761336224835193300,4.269193359375,0.1840275526046753,-0.003215393051505089,0.1340557187795639
1761336224845260300,4.27926025390625,0.18165014684200287,-0.0012278761714696884,0.12367124855518341
1761336224855326500,4.289326416015625,0.16680605709552765,-0.00922405906021595,0.10012330114841461
1761336224865393400,4.299393310546875,0.141266867518425,-0.004800815135240555,0.0718570426106453
1761336224875459300,4.309459228515625,0.11569593101739883,0.00347274262458086,0.040389902889728546
1761336224885526500,4.319526611328125,0.08694657683372498,0.025264590978622437,0.02259519137442112
1761336224895593500,4.329593505859375,0.06476377695798874,0.04892287403345108,0.017475679516792297
1761336224905659400,4.339659423828125,0.048313166946172714,0.06927502155303955,0.007978314533829689
1761336224915726300,4.349726318359375,0.04444326087832451,0.06524521112442017,0.0012547215446829796
1761336224925792500,4.35979248046875,0.04516258090734482,0.06379485130310059,-0.004571476019918919
1761336224935859500,4.369859375,0.04693455249071121,0.06416712701320648,-0.009735562838613987
1761336224945925400,4.37992529296875,0.05607984960079193,0.06820687651634216,-0.014507148414850235
1761336224955992600,4.38999267578125,0.06450548768043518,0.07472105324268341,-0.0028261709958314896
1761336224966059500,4.4000595703125,0.0750071331858635,0.07324007153511047,0.010084833018481731
1761336224976125400,4.41012548828125,0.07953956723213196,0.05936899781227112,0.019104428589344025
1761336224986192400,4.4201923828125,0.08230366557836533,0.0445205457508564,0.025420378893613815
1761336224996259300,4.43025927734375,0.08566603064537048,0.03851838782429695,0.04138726741075516
1761336225006326500,4.440326416015625,0.0917913019657135,0.03868536651134491,0.06669875234365463
1761336225016392400,4.450392333984375,0.08982963860034943,0.04798613488674164,0.07576768100261688
1761336225026459400,4.46045947265625,0.09858051687479019,0.05364934727549553,0.07490934431552887
1761336225036526300,4.4705263671875,0.11036871373653412,0.05269598960876465,0.06275540590286255
1761336225046592500,4.480592529296875,0.12427467107772827,0.04158954322338104,0.0484963096678257
1761336225056659500,4.490659423828125,0.1332779824733734,0.04330927133560181,0.04108930379152298
1761336225066725400,4.500725341796875,0.1353406012058258,0.04554073512554169,0.03700694441795349
1761336225076792600,4.51079248046875,0.14324356615543365,0.053807325661182404,0.03917444869875908
1761336225086859500,4.520859619140625,0.1530706286430359,0.060014620423316956,0.04963667690753937
1761336225096925400,4.530925537109375,0.16930855810642242,0.044074058532714844,0.06542269885540009
1761336225106992400,4.540992431640625,0.17545300722122192,0.02677842415869236,0.08676047623157501
1761336225117058600,4.55105859375,0.16837254166603088,0.027872994542121887,0.10615380108356476
1761336225127125500,4.56112548828125,0.15626022219657898,0.02717205137014389,0.11585675925016403
1761336225137191200,4.571191162109375,0.1442050188779831,0.03367621451616287,0.10816990584135056
1761336225147258400,4.58125830078125,0.1345721036195755,0.042678236961364746,0.10302574187517166
1761336225157325600,4.59132568359375,0.12724772095680237,0.041821449995040894,0.08351808041334152
1761336225167391200,4.60139111328125,0.11823025345802307,0.023195035755634308,0.06371001899242401
1761336225177458200,4.611458251953125,0.11704511195421219,0.014987660571932793,0.059824388474226
1761336225187524400,4.6215244140625,0.10922980308532715,0.010310884565114975,0.06001134589314461
1761336225197591300,4.63159130859375,0.09569045901298523,-0.0013537192717194557,0.07460840791463852
1761336225207657200,4.6416572265625,0.08439438790082932,-0.0037297923117876053,0.09538665413856506
1761336225217724400,4.651724365234375,0.0654466301202774,0.00544812623411417,0.10891987383365631
1761336225227791400,4.661791259765625,0.04261668398976326,0.016746852546930313,0.1160382479429245
1761336225237857300,4.671857177734375,0.009683893993496895,0.03574840724468231,0.10965150594711304
1761336225247924200,4.68192431640625,-0.012599574401974678,0.055383097380399704,0.0954885482788086
1761336225257990400,4.691990478515625,-0.025758013129234314,0.06707895547151566,0.07886343449354172
1761336225268057300,4.702057373046875,-0.02379739284515381,0.05514746159315109,0.0813678652048111
1761336225278124300,4.712124267578125,-0.01896846666932106,0.04318368062376976,0.0901155024766922
1761336225288190500,4.7221904296875,-0.016233133152127266,0.04343268647789955,0.09454886615276337
1761336225298257400,4.73225732421875,-0.01428613718599081,0.04929699748754501,0.07704167068004608
1761336225308323300,4.7423232421875,-0.01248051505535841,0.06328738480806351,0.03900134190917015
1761336225318390300,4.752390380859375,-0.006497184745967388,0.0614810548722744,-0.006784370634704828
1761336225328456400,4.76245654296875,-0.0003375597298145294,0.04717108979821205,-0.05476813763380051
1761336225338524400,4.7725244140625,0.002416984410956502,0.030383463948965073,-0.07272215187549591
1761336225348591400,4.78259130859375,0.005975766573101282,0.03606025502085686,-0.06423278898000717
1761336225358657300,4.7926572265625,0.004395244177430868,0.04465808719396591,-0.04179003834724426
1761336225368724200,4.80272412109375,0.0029747141525149345,0.04939825087785721,-0.02293805405497551
1761336225378790400,4.812790283203125,-0.005724075250327587,0.04689083248376846,-0.0031794002279639244
1761336225388857300,4.822857421875,-0.01978449895977974,0.04439092427492142,0.01119234785437584
1761336225398924300,4.83292431640625,-0.034442126750946045,0.03168623894453049,0.014975995756685734
1761336225408990500,4.842990478515625,-0.03809651732444763,0.022357184439897537,0.013644681312143803
1761336225419057400,4.853057373046875,-0.03951321914792061,0.023920152336359024,0.014346675015985966
1761336225429123000,4.863123046875,-0.04199501872062683,0.020116090774536133,0.015448159538209438
1761336225439190300,4.873190185546875,-0.03280467912554741,0.011442315764725208,0.003847123123705387
1761336225449256200,4.883256103515625,-0.02058449760079384,0.0036629559472203255,0.004592008888721466
1761336225459323100,4.8933232421875,-0.013876670971512794,0.000619836151599884,0.010834098793566227
1761336225469390000,4.90339013671875,-0.011487549170851707,-0.003431631252169609,0.028119876980781555
1761336225479456300,4.913456298828125,-0.016629144549369812,-0.00237235426902771,0.0482759103178978
1761336225489523200,4.923523193359375,-0.025146467611193657,0.00183970108628273,0.06128491461277008
1761336225499589000,4.933589111328125,-0.038228366523981094,0.006977313198149204,0.06565496325492859
1761336225509656000,4.943656005859375,-0.053758054971694946,0.02858620136976242,0.05553654953837395
1761336225519722200,4.95372216796875,-0.0637103021144867,0.036812685430049896,0.036547109484672546
1761336225529789200,4.9637890625,-0.06487517058849335,0.05006936937570572,0.015971792861819267
1761336225539856100,4.973856201171875,-0.05465973913669586,0.055012837052345276,-0.0009125829674303532
1761336225549922300,4.98392236328125,-0.04074366018176079,0.051703326404094696,-0.027562836185097694
1761336225559989200,4.9939892578125,-0.016948675736784935,0.04056159034371376,-0.05562081187963486
1761336225570055200,5.00405517578125,0.004769935738295317,0.030480459332466125,-0.07455801963806152
1761336225580122000,5.0141220703125,0.03402823582291603,0.02509717084467411,-0.0857660174369812
1761336225590189300,5.024189208984375,0.05262322723865509,-0.004985096864402294,-0.07278203964233398
1761336225600255200,5.034255126953125,0.059540387243032455,-0.02286209538578987,-0.0518127866089344
1761336225610322200,5.044322265625,0.05464496463537216,-0.022687392309308052,-0.027685876935720444
1761336225620388400,5.054388427734375,0.050494059920310974,-0.01868872158229351,-0.002328310627490282
1761336225630455300,5.064455322265625,0.05159500986337662,-0.018160616979002953,0.011503881774842739
1761336225640521200,5.074521240234375,0.06490229815244675,-0.012278024107217789,0.018624261021614075
1761336225650588200,5.084588134765625,0.09348414838314056,0.0016162199899554253,0.0338229201734066
1761336225660655400,5.0946552734375,0.12207923829555511,0.014310626313090324,0.062179695814847946
1761336225670721300,5.10472119140625,0.14280477166175842,0.01884652115404606,0.09089123457670212
1761336225680788200,5.114788330078125,0.15186890959739685,0.026960842311382294,0.10447464138269424
1761336225690854400,5.1248544921875,0.1571853905916214,0.03674982488155365,0.09326832741498947
1761336225700921300,5.13492138671875,0.16266603767871857,0.04156367853283882,0.06835108250379562
1761336225710987300,5.1449873046875,0.16806507110595703,0.041653428226709366,0.035676226019859314
1761336225721054200,5.15505419921875,0.17621377110481262,0.03717375546693802,0.0034452127292752266
1761336225731121400,5.165121337890625,0.17946629226207733,0.031317196786403656,-0.023030336946249008
1761336225741187300,5.175187255859375,0.17766252160072327,0.025481849908828735,-0.04105449467897415
1761336225751254300,5.185254150390625,0.16776461899280548,0.029681388288736343,-0.052201688289642334
1761336225761320400,5.195320556640625,0.13604699075222015,0.018407633528113365,-0.042817823588848114
1761336225771387400,5.205387451171875,0.10559267550706863,-0.006360829807817936,-0.023496855050325394
1761336225781454300,5.215454345703125,0.10679343342781067,-0.010048232972621918,0.005242234095931053
1761336225791520300,5.225520263671875,0.11450621485710144,0.0031724963337183,0.02490142360329628
1761336225801587500,5.23558740234375,0.12062666565179825,0.0014015482738614082,0.028310731053352356
1761336225811653400,5.2456533203125,0.12051588296890259,-0.0007383022457361221,0.028555743396282196
1761336225821720300,5.25572021484375,0.13136833906173706,-0.0030311020091176033,0.020029276609420776
1761336225831786200,5.2657861328125,0.16096217930316925,-0.006585356779396534,0.01620311476290226
1761336225841853400,5.275853515625,0.191114604473114,-0.006069238763302565,0.023117810487747192
1761336225851920400,5.28592041015625,0.21601437032222748,-0.012030724436044693,0.031783200800418854
1761336225861986000,5.295986083984375,0.212492436170578,-0.021953457966446877,0.040028296411037445
1761336225872053500,5.306053466796875,0.1974242627620697,-0.021879155188798904,0.04182539880275726
1761336225882119200,5.316119140625,0.17337839305400848,-0.019630828872323036,0.042625438421964645
1761336225892186000,5.32618603515625,0.14320529997348785,0.008475640788674355,0.05570102855563164
1761336225902253300,5.33625341796875,0.12335098534822464,0.021626435220241547,0.06855164468288422
1761336225912319200,5.3463193359375,0.1059299111366272,0.013968248851597309,0.07625111192464828
1761336225922386200,5.35638623046875,0.09158512204885483,0.003831712529063225,0.07059229910373688
1761336225932452000,5.3664521484375,0.07846292853355408,0.008004887029528618,0.05532520264387131
1761336225942519300,5.376519287109375,0.07412683218717575,0.02904830127954483,0.03824412450194359
1761336225952585200,5.386585205078125,0.07902146130800247,0.05175255239009857,0.027889490127563477
1761336225962652200,5.396652099609375,0.09171833097934723,0.06306953728199005,0.009327869862318039
1761336225972719000,5.406718994140625,0.10446181893348694,0.053753532469272614,-0.01346985436975956
1761336225982785300,5.416785400390625,0.11477982252836227,0.039087578654289246,-0.030213242396712303
1761336225992852200,5.426852294921875,0.12648256123065948,0.023014336824417114,-0.038533490151166916
1761336226002918100,5.436918212890625,0.14334090054035187,-0.00440281443297863,-0.040925126522779465
1761336226012985300,5.4469853515625,0.1503085345029831,-0.014567834325134754,-0.02710678055882454
1761336226023051300,5.45705126953125,0.14827321469783783,-0.009200666099786758,-0.01992029696702957
1761336226033118200,5.4671181640625,0.143159419298172,-0.008223552256822586,-0.016106117516756058
1761336226043185200,5.47718505859375,0.14172668755054474,0.0016341283917427063,-0.024389732629060745
1761336226053251300,5.487251220703125,0.14214906096458435,0.008908553048968315,-0.02219688706099987
1761336226063318300,5.497318359375,0.13465887308120728,0.0035044755786657333,-0.01407306082546711
1761336226073384200,5.50738427734375,0.12304109334945679,-0.005425902083516121,-0.008219433017075062
1761336226083451400,5.517451416015625,0.10357023775577545,-0.0054331254214048386,-0.00019388878718018532
1761336226093518300,5.527518310546875,0.07664434611797333,0.013054805807769299,-0.0009353128261864185
1761336226103584300,5.537584228515625,0.058745987713336945,0.03603089600801468,-0.015429822728037834
1761336226113651200,5.547651123046875,0.054057225584983826,0.041543640196323395,-0.02665291726589203
1761336226123717400,5.55771728515625,0.05500666797161102,0.04571250081062317,-0.017714746296405792
1761336226133784300,5.567784423828125,0.062054723501205444,0.046467773616313934,-0.007079679984599352
1761336226143850200,5.577850341796875,0.06904681026935577,0.040240705013275146,-0.014596972614526749
1761336226153917400,5.58791748046875,0.07193047553300858,0.03183816373348236,-0.029121853411197662
1761336226163984400,5.597984375,0.06936999410390854,0.028487931936979294,-0.05564376711845398
1761336226174050300,5.60805029296875,0.06416857987642288,0.018797751516103745,-0.07434289157390594
1761336226184117200,5.6181171875,0.05778423696756363,0.015560838393867016,-0.0808764174580574
1761336226194183400,5.628183349609375,0.05446753650903702,0.013075842522084713,-0.07973445951938629
1761336226204250400,5.63825048828125,0.05668189749121666,0.005609150044620037,-0.07111554592847824
1761336226214317300,5.6483173828125,0.057925060391426086,-0.0023813974112272263,-0.05745699256658554
1761336226224383200,5.65838330078125,0.057619158178567886,-0.019543219357728958,-0.04214809834957123
1761336226234450400,5.668450439453125,0.05425984412431717,-0.03639090806245804,-0.03175058215856552
1761336226244516400,5.678516357421875,0.04615981504321098,-0.03919142857193947,-0.014452626928687096
1761336226254583300,5.688583251953125,0.03983933478593826,-0.03439933806657791,0.01097257249057293
1761336226264649200,5.698649169921875,0.03442100062966347,-0.03482837602496147,0.03716801851987839
1761336226274716400,5.70871630859375,0.024676229804754257,-0.03196867182850838,0.04995065927505493
1761336226284783400,5.718783447265625,0.02393185906112194,-0.011935328133404255,0.04886884242296219
1761336226294849300,5.728849365234375,0.022454338148236275,0.005041792057454586,0.0290266964584589
1761336226304916500,5.73891650390625,0.02355944737792015,0.007471702992916107,0.010394171811640263
1761336226314982100,5.748982177734375,0.011765372939407825,0.0040905531495809555,-0.00564338406547904
1761336226325049000,5.759049072265625,-0.004388062749058008,-0.013574241660535336,-0.0294870063662529
1761336226335115300,5.769115234375,-0.024047251790761948,-0.014126048423349857,-0.06076370179653168
1761336226345182200,5.77918212890625,-0.03813993185758591,-0.0005764560773968697,-0.08600588887929916
1761336226355249200,5.789249267578125,-0.05164402350783348,0.005323777906596661,-0.09774883836507797
1761336226365315000,5.799315185546875,-0.05926424637436867,0.014483111910521984,-0.08911877125501633
1761336226375382300,5.80938232421875,-0.05628150701522827,0.028467372059822083,-0.07175789028406143
1761336226385448200,5.8194482421875,-0.05443809553980827,0.04200933128595352,-0.05532358959317207
1761336226395515100,5.82951513671875,-0.048316553235054016,0.04254009574651718,-0.055450890213251114
1761336226405582000,5.83958203125,-0.04296040162444115,0.041359513998031616,-0.05224417522549629
1761336226415648300,5.849648193359375,-0.03348221257328987,0.03957067430019379,-0.04115637019276619
1761336226425715200,5.859715087890625,-0.02632088214159012,0.0410466343164444,-0.021513067185878754
1761336226435781000,5.869781005859375,-0.023235876113176346,0.04604911804199219,0.0034780353307724
1761336226445848300,5.879848388671875,-0.02115185186266899,0.0414295494556427,0.019106782972812653
1761336226455914200,5.889914306640625,-0.018099604174494743,0.03089728206396103,0.022070348262786865
1761336226465981200,5.899981201171875,-0.023215429857373238,0.00750759057700634,0.016919929534196854
1761336226476048100,5.910048095703125,-0.032639291137456894,-0.004674773663282394,-0.009709285572171211
1761336226486114300,5.9201142578125,-0.03096742182970047,-0.021999254822731018,-0.03908770531415939
1761336226496181200,5.93018115234375,-0.0265180803835392,-0.03404233232140541,-0.047636453062295914
1761336226506247200,5.9402470703125,-0.028661269694566727,-0.03988629952073097,-0.03695008158683777
1761336226516314000,5.950314208984375,-0.04677502438426018,-0.05340796709060669,0.007845886051654816
1761336226526381300,5.96038134765625,-0.060019560158252716,-0.03237960487604141,0.05574817955493927
1761336226536447000,5.970447021484375,-0.0679512545466423,-0.003292027860879898,0.08556786179542542
1761336226546514000,5.980513916015625,-0.0684286579489708,0.021095560863614082,0.09886180609464645
1761336226556580000,5.990580078125,-0.06253641098737717,0.04137606918811798,0.08591032773256302
1761336226566647000,6.00064697265625,-0.04795946180820465,0.04106350243091583,0.06310056149959564
1761336226576713000,6.010712890625,-0.03320448473095894,0.022630702704191208,0.03265344351530075
1761336226586780200,6.0207802734375,-0.03194627910852432,0.005803957581520081,-0.005051802843809128
1761336226596847000,6.03084716796875,-0.04139330983161926,-0.00558744790032506,-0.041202083230018616
1761336226606913000,6.0409130859375,-0.0575801245868206,-0.005069272592663765,-0.06749298423528671
1761336226616980000,6.05097998046875,-0.07001149654388428,0.012514782138168812,-0.08549408614635468
1761336226627046100,6.061046142578125,-0.0858440026640892,0.02753046154975891,-0.08159472048282623
1761336226637113000,6.071113037109375,-0.09929563105106354,0.03674473240971565,-0.06675133109092712
1761336226647180000,6.081179931640625,-0.10701839625835419,0.06325819343328476,-0.03858073428273201
1761336226657246200,6.09124609375,-0.11241768300533295,0.08012718707323074,-0.028307057917118073
1761336226667313200,6.101313232421875,-0.11356204748153687,0.08133865892887115,-0.024580229073762894
1761336226677379000,6.111379150390625,-0.11091726273298264,0.08061641454696655,-0.02617626264691353
1761336226687446000,6.121446044921875,-0.11800526082515717,0.07349351793527603,-0.03269222006201744
1761336226697512200,6.13151220703125,-0.12817853689193726,0.06423690170049667,-0.042222872376441956
1761336226707579100,6.1415791015625,-0.1361631453037262,0.061940036714076996,-0.05252205207943916
1761336226717646000,6.15164599609375,-0.14217257499694824,0.05871254950761795,-0.055062975734472275
1761336226727712300,6.161712158203125,-0.1474834382534027,0.05293270945549011,-0.05907977744936943
1761336226737779200,6.171779296875,-0.14779555797576904,0.06373555958271027,-0.045640669763088226
1761336226747845000,6.18184521484375,-0.14710155129432678,0.06093742325901985,-0.02526768110692501
1761336226757912000,6.191912109375,-0.14662858843803406,0.04798407852649689,-0.010476217605173588
1761336226767979300,6.201979248046875,-0.14725661277770996,0.043982766568660736,-0.0001529180444777012
1761336226778045200,6.212045166015625,-0.15527939796447754,0.05056636780500412,-0.002856825478374958
1761336226788112100,6.222112060546875,-0.16062712669372559,0.0391131266951561,-0.00957797933369875
1761336226798178300,6.23217822265625,-0.1583903431892395,0.037170082330703735,-0.016187945380806923
1761336226808245200,6.242245361328125,-0.15238767862319946,0.045877594500780106,-0.021766189485788345
1761336226818311200,6.252311279296875,-0.14483948051929474,0.05064705014228821,-0.02751462161540985
1761336226828378000,6.262378173828125,-0.13278694450855255,0.0319686084985733,-0.02171872928738594
1761336226838445300,6.2724453125,-0.12220248579978943,0.011798357591032982,-0.014067468233406544
1761336226848511200,6.28251123046875,-0.11998630315065384,-0.0016980618238449097,-0.008343138732016087
1761336226858578200,6.292578125,-0.11638011783361435,-0.009096058085560799,-0.01104598119854927
1761336226868644400,6.302644287109375,-0.12070216983556747,-0.006636627949774265,-0.013360267505049706
1761336226878711300,6.312711181640625,-0.12087792903184891,-0.003578254021704197,-0.020379826426506042
1761336226888778200,6.3227783203125,-0.11883749812841415,-0.011017367243766785,-0.034884534776210785
1761336226898844200,6.33284423828125,-0.10928580909967422,-0.007599466014653444,-0.049143631011247635
1761336226908911000,6.3429111328125,-0.09463252872228622,-0.008401207625865936,-0.06569734960794449
1761336226918977300,6.352977294921875,-0.0804101824760437,-0.006996123120188713,-0.080612912774086
1761336226929044200,6.363044189453125,-0.06391642987728119,-0.00354732945561409,-0.09399209916591644
1761336226939110100,6.373110107421875,-0.04765276610851288,-0.0025467798113822937,-0.08374478667974472
1761336226949177300,6.38317724609375,-0.03435267135500908,0.01092561986297369,-0.056572288274765015
1761336226959244300,6.393244384765625,-0.02715068683028221,0.020712468773126602,-0.030003797262907028
1761336226969310000,6.40331005859375,-0.02646496146917343,0.0184976477175951,-0.01769675686955452
1761336226979377200,6.413377197265625,-0.026549383997917175,0.019649198278784752,-0.030347570776939392
1761336226989443000,6.423443115234375,-0.029747571796178818,0.019084608182311058,-0.0626130998134613
1761336226999510000,6.433510009765625,-0.0221751406788826,0.01651306077837944,-0.10368277132511139
1761336227009577000,6.443576904296875,-0.010677246376872063,-0.0019787391647696495,-0.13131728768348694
1761336227019643100,6.45364306640625,-0.0031322441063821316,-0.008727189153432846,-0.14857536554336548
1761336227029710000,6.4637099609375,0.013031886890530586,-0.015665510669350624,-0.155443474650383
1761336227039776000,6.47377587890625,0.024648860096931458,-0.03338059410452843,-0.1481570601463318
1761336227049843200,6.48384326171875,0.0372331440448761,-0.04784868285059929,-0.14067865908145905
1761336227059910100,6.49391015625,0.03778308629989624,-0.060286976397037506,-0.12931734323501587
1761336227069976000,6.50397607421875,0.04194144532084465,-0.06400372833013535,-0.1213798075914383
1761336227080043000,6.51404296875,0.04120508208870888,-0.06434967368841171,-0.10677290707826614
1761336227090109200,6.524109130859375,0.03470638394355774,-0.058936964720487595,-0.08800654113292694
1761336227100176100,6.534176025390625,0.0229895431548357,-0.06922901421785355,-0.05965772271156311
1761336227110242000,6.544241943359375,0.01731961779296398,-0.06807176023721695,-0.026720281690359116
1761336227120309000,6.55430908203125,0.02213115058839321,-0.05933019891381264,0.006145789287984371
1761336227130376200,6.564376220703125,0.03222912177443504,-0.05384533479809761,0.032505519688129425
1761336227140442000,6.574442138671875,0.03473435714840889,-0.051939576864242554,0.035758305341005325
1761336227150509000,6.584509033203125,0.030124790966510773,-0.05719945952296257,0.02449776604771614
1761336227160575200,6.5945751953125,0.015628937631845474,-0.052180733531713486,-0.0020624720491468906
1761336227170642200,6.60464208984375,0.007786545902490616,-0.05013655126094818,-0.03179272264242172
1761336227180709000,6.614709228515625,0.008048334158957005,-0.04977249726653099,-0.043602779507637024
1761336227190775000,6.624775146484375,0.010512024164199829,-0.053651392459869385,-0.054547570645809174
1761336227200842200,6.63484228515625,0.01440316904336214,-0.0549616664648056,-0.0644097849726677
1761336227210908200,6.644908203125,0.00832479726523161,-0.05615641549229622,-0.07531589269638062
1761336227220975000,6.65497509765625,0.0025161767844110727,-0.050775498151779175,-0.08831717818975449
1761336227231042000,6.6650419921875,-0.000689986627548933,-0.050177864730358124,-0.09301549196243286
1761336227241108200,6.675108154296875,-0.0012865345925092697,-0.05904139578342438,-0.0951731875538826
1761336227251175200,6.685175048828125,0.0018031792715191841,-0.06820819526910782,-0.07309233397245407
1761336227261241000,6.695240966796875,-0.0020006136037409306,-0.05252324789762497,-0.038157518953084946
1761336227271308300,6.705308349609375,-0.012643340975046158,-0.04043373838067055,-0.005300210788846016
1761336227281374200,6.715374267578125,-0.023137260228395462,-0.02901304140686989,0.012673196382820606
1761336227291441200,6.725441162109375,-0.03657862916588783,-0.018366161733865738,0.02534766122698784
1761336227301508000,6.735508056640625,-0.032708790153265,-0.010838736779987812,0.02793225646018982
1761336227311574300,6.74557421875,-0.02167855203151703,-0.011592380702495575,0.019278742372989655
1761336227321641200,6.75564111328125,-0.013403045013546944,-0.0076445103622972965,0.0019516833126544952
1761336227331707100,6.76570703125,-0.014129118993878365,0.002936369739472866,-0.011366092599928379
1761336227341774000,6.775774169921875,-0.0162053182721138,0.009412911720573902,-0.020929237827658653
1761336227351841000,6.785841064453125,-0.020514238625764847,0.01997261866927147,-0.027685225009918213
1761336227361907000,6.795906982421875,-0.026203548535704613,0.0225691981613636,-0.03940925747156143
1761336227371974000,6.805973876953125,-0.022411175072193146,0.03285117819905281,-0.04447304457426071
1761336227382040000,6.8160400390625,-0.016280047595500946,0.0443512424826622,-0.04489542171359062
1761336227392107000,6.82610693359375,-0.006357182282954454,0.050694338977336884,-0.03798377513885498
1761336227402173000,6.8361728515625,0.0045663053169846535,0.04458051919937134,-0.03732171282172203
1761336227412240100,6.846240234375,0.007037792820483446,0.03816045820713043,-0.04434974119067192
1761336227422307000,6.85630712890625,0.009437300264835358,0.02513706684112549,-0.05397120863199234
1761336227432373000,6.866373046875,0.006653897929936647,0.025342660024762154,-0.06509676575660706
1761336227442440000,6.87643994140625,0.009675786830484867,0.021030468866229057,-0.07375523447990417
1761336227452506000,6.886506103515625,0.009071393869817257,0.0195374246686697,-0.07629366219043732
1761336227462573000,6.896572998046875,0.00579517288133502,0.014111502096056938,-0.06055571511387825
1761336227472640000,6.906639892578125,0.0036798289511352777,0.00850591342896223,-0.04165937751531601
1761336227482706200,6.9167060546875,0.01054705586284399,0.0070371804758906364,-0.02012265846133232
1761336227492773000,6.926773193359375,0.020389363169670105,0.014533266425132751,0.0038309041410684586
1761336227502839000,6.936839111328125,0.0246320478618145,0.009242098778486252,0.017127003520727158
1761336227512906000,6.946906005859375,0.02885616011917591,-0.006465485319495201,0.02313847467303276
1761336227522973200,6.95697314453125,0.03120107389986515,-0.004450271837413311,0.027861855924129486
1761336227533039000,6.9670390625,0.027847345918416977,0.0077566709369421005,0.038421131670475006
1761336227543106000,6.97710595703125,0.028959214687347412,0.011228101328015327,0.04800665006041527
1761336227553172200,6.987172119140625,0.02743411809206009,0.005156755447387695,0.04966164007782936
1761336227563239200,6.9972392578125,0.025537416338920593,0.010389067232608795,0.048251762986183167
1761336227573305000,7.00730517578125,0.01890270784497261,0.01877237856388092,0.036931268870830536
1761336227583372000,7.0173720703125,0.016995085403323174,0.024077128618955612,0.019465191289782524
1761336227593439000,7.02743896484375,0.022930344566702843,0.019045978784561157,0.005827355198562145
1761336227603505200,7.037505126953125,0.025346098467707634,0.020121630281209946,0.004693914204835892
1761336227613572000,7.047572021484375,0.018228475004434586,0.023163771256804466,0.004343030042946339
1761336227623638000,7.057637939453125,0.005796040408313274,0.026876220479607582,-0.007825219072401524
1761336227633705200,7.067705322265625,-0.0032638520933687687,0.02931280806660652,-0.020206201821565628
1761336227643772200,7.077772216796875,-0.012909555807709694,0.030011620372533798,-0.02497699111700058
1761336227653837800,7.087837890625,-0.024862483143806458,0.04254774749279022,-0.02318074181675911
1761336227663905000,7.097905029296875,-0.03498063236474991,0.04796355217695236,-0.02167898416519165
1761336227673971000,7.107970947265625,-0.03936762362718582,0.042083870619535446,-0.02493607997894287
1761336227684038000,7.118037841796875,-0.05158194527029991,0.029328126460313797,-0.031875479966402054
1761336227694104800,7.128104736328125,-0.06342954188585281,0.023335404694080353,-0.030761055648326874
1761336227704171000,7.1381708984375,-0.0723428726196289,0.018248766660690308,-0.021546252071857452
1761336227714238000,7.148238037109375,-0.08300278335809708,0.011795290745794773,-0.0163467638194561
1761336227724304000,7.158303955078125,-0.08579005300998688,0.008966214023530483,-0.006501056253910065
1761336227734371000,7.16837109375,-0.09193126857280731,0.01726226694881916,0.005351293832063675
1761336227744437000,7.17843701171875,-0.0896793007850647,-0.036027319729328156,0.03810231387615204
1761336227754504000,7.18850390625,-0.06605713814496994,-0.08012298494577408,0.07051011919975281
1761336227764571000,7.19857080078125,-0.04393532872200012,-0.14100605249404907,0.08697990328073502
1761336227774637000,7.208636962890625,-0.022235535085201263,-0.20430773496627808,0.0679546445608139
1761336227784704000,7.2187041015625,-0.001609619241207838,-0.23393674194812775,0.011532378382980824
1761336227794770000,7.22877001953125,0.012758256867527962,-0.2957119047641754,-0.03418779745697975
1761336227804836900,7.2388369140625,0.014780661091208458,-0.29553478956222534,-0.057610832154750824
1761336227814904000,7.248904052734375,-0.0006963885389268398,-0.28823214769363403,-0.06305842101573944
1761336227824970000,7.258969970703125,-0.018513202667236328,-0.2842464745044708,-0.05816353112459183
1761336227835037000,7.269036865234375,-0.04080861434340477,-0.2687325179576874,-0.06438323855400085
1761336227845103000,7.27910302734375,-0.06568359583616257,-0.2614261507987976,-0.06992314010858536
1761336227855170000,7.289170166015625,-0.08759437501430511,-0.19669875502586365,-0.09601662307977676
1761336227865237000,7.299237060546875,-0.12125486880540848,-0.14983510971069336,-0.12267246842384338
1761336227875303000,7.309302978515625,-0.15361414849758148,-0.06031642109155655,-0.15498757362365723
1761336227885370000,7.3193701171875,-0.19082888960838318,0.08976655453443527,-0.1894446164369583
1761336227895436000,7.32943603515625,-0.21462787687778473,0.13043509423732758,-0.18273723125457764
1761336227905503000,7.3395029296875,-0.2318742424249649,0.08313655108213425,-0.1491081714630127
1761336227915569200,7.349569091796875,-0.24066682159900665,0.027049917727708817,-0.13220544159412384
1761336227925636000,7.359635986328125,-0.2473801225423813,0.002157086506485939,-0.16715064644813538
1761336227935703000,7.369703125,-0.2571397125720978,-0.006941516418009996,-0.21952113509178162
1761336227945769000,7.37976904296875,-0.26413238048553467,-0.02181793376803398,-0.2537675201892853
1761336227955836200,7.389836181640625,-0.2718443274497986,-0.05165988206863403,-0.26097026467323303
1761336227965902000,7.399902099609375,-0.2733287215232849,-0.0645919218659401,-0.2355985939502716
1761336227975969000,7.409968994140625,-0.2676819860935211,-0.06556200981140137,-0.2117115557193756
1761336227986036000,7.420035888671875,-0.25256773829460144,-0.06297128647565842,-0.20081017911434174
1761336227996102100,7.43010205078125,-0.24642246961593628,-0.06174826622009277,-0.1889837384223938
1761336228006169000,7.440169189453125,-0.2566136121749878,-0.06387799233198166,-0.1724228709936142
1761336228016235000,7.450235107421875,-0.27096498012542725,-0.03566864877939224,-0.15194857120513916
1761336228026302200,7.46030224609375,-0.275016188621521,0.007263103500008583,-0.1350337713956833
1761336228036368100,7.4703681640625,-0.2711797058582306,0.03241059556603432,-0.13400466740131378
1761336228046435000,7.48043505859375,-0.2549844980239868,0.04879569262266159,-0.16520440578460693
1761336228056502000,7.490501953125,-0.2314615398645401,0.03721972182393074,-0.19810788333415985
1761336228066568200,7.500568115234375,-0.20538146793842316,0.030923474580049515,-0.22190909087657928
1761336228076635100,7.51063525390625,-0.1881171315908432,0.01318166870623827,-0.24104437232017517
1761336228086700800,7.52070068359375,-0.1873386949300766,-0.02120320312678814,-0.2667126953601837
1761336228096768300,7.530768310546875,-0.1898011565208435,-0.038896869868040085,-0.3075387179851532
1761336228106835200,7.540835205078125,-0.1905580312013626,-0.048635780811309814,-0.34678253531455994
1761336228116900900,7.55090087890625,-0.19686950743198395,-0.06559441238641739,-0.36930862069129944
1761336228126967800,7.5609677734375,-0.19841600954532623,-0.07468032091856003,-0.3696673512458801
1761336228137034000,7.571033935546875,-0.18417638540267944,-0.06329171359539032,-0.34814444184303284
1761336228147101000,7.581100830078125,-0.15785318613052368,-0.03910036012530327,-0.30054256319999695
1761336228157167900,7.59116796875,-0.14016300439834595,0.03935430943965912,-0.2227431982755661
1761336228167234000,7.601234130859375,-0.13716349005699158,0.09991858899593353,-0.14884740114212036
1761336228177301000,7.611301025390625,-0.14089173078536987,0.12917721271514893,-0.0962754413485527
1761336228187367000,7.621366943359375,-0.12713435292243958,0.14216704666614532,-0.08053535968065262
1761336228197433900,7.631433837890625,-0.0935295894742012,0.13756513595581055,-0.07368852198123932
1761336228207501000,7.6415009765625,-0.06023848056793213,0.11205657571554184,-0.07085225731134415
1761336228217567000,7.65156689453125,-0.04143285006284714,0.1018243208527565,-0.08175995200872421
1761336228227634000,7.661634033203125,-0.041835520416498184,0.09919685125350952,-0.10032990574836731
1761336228237700000,7.6717001953125,-0.05124608427286148,0.08499791473150253,-0.1275530457496643
1761336228247767000,7.68176708984375,-0.05353613570332527,0.09070081263780594,-0.14026883244514465
1761336228257833000,7.6918330078125,-0.056220442056655884,0.11903839558362961,-0.14335691928863525
1761336228267900000,7.70189990234375,-0.06924329698085785,0.12536579370498657,-0.1382678747177124
1761336228277967000,7.711967041015625,-0.08086215704679489,0.09807582944631577,-0.12611350417137146
1761336228288033000,7.722032958984375,-0.0703570544719696,0.06181982159614563,-0.12213422358036041
1761336228298100000,7.732099853515625,-0.0453760027885437,0.04114498570561409,-0.11157741397619247
1761336228308166100,7.742166259765625,-0.02967240661382675,0.019105199724435806,-0.08342407643795013
1761336228318233000,7.752233154296875,-0.02001253142952919,0.008077573031187057,-0.054666317999362946
1761336228328300000,7.762300048828125,-0.022556383162736893,-0.004709862172603607,-0.03743806481361389
1761336228338366000,7.772365966796875,-0.03209449350833893,-0.029971275478601456,-0.028043232858181
1761336228348432600,7.7824326171875,-0.04450375586748123,-0.05335675925016403,-0.010972902178764343
1761336228358498300,7.792498291015625,-0.05524636059999466,-0.05603218451142311,0.0014269212260842323
1761336228368565200,7.802565185546875,-0.054814662784338,-0.03720709681510925,0.01756833866238594
1761336228378632400,7.812632568359375,-0.04988085851073265,-0.010697158984839916,0.012242100201547146
1761336228388698400,7.822698486328125,-0.03710753843188286,0.014802341349422932,0.007802876643836498
1761336228398765300,7.832765380859375,-0.01261531189084053,0.017958015203475952,0.008749057538807392
1761336228408831200,7.842831298828125,0.012189103290438652,0.01292011421173811,0.003013140521943569
1761336228418898400,7.8528984375,0.037076279520988464,-0.001478618010878563,0.005764957517385483
1761336228428964400,7.86296435546875,0.05911393463611603,0.0024466151371598244,0.02746332809329033
1761336228439031300,7.87303125,0.06691378355026245,-0.008571969345211983,0.0412755087018013
1761336228449098200,7.88309814453125,0.06775587797164917,-0.015874888747930527,0.05083838850259781
1761336228459164400,7.893164306640625,0.059616439044475555,-0.04218277707695961,0.04684505611658096
1761336228469231400,7.9032314453125,0.04700770229101181,-0.06330244243144989,0.023222019895911217
1761336228479297300,7.91329736328125,0.0331263542175293,-0.07177940756082535,0.006425874307751656
1761336228489364500,7.923364501953125,0.023171722888946533,-0.05987614393234253,-0.0038613842334598303
1761336228499431400,7.933431396484375,0.015522081404924393,-0.04602625221014023,-0.014956725761294365
1761336228509497300,7.943497314453125,0.005076896864920855,-0.03185344487428665,-0.01624596118927002
1761336228519564300,7.953564208984375,-0.0038765696808695793,-0.01659156195819378,-0.017138445749878883
1761336228529630500,7.96363037109375,-0.004804149270057678,-0.01461150124669075,-0.0169440358877182
1761336228539697400,7.973697509765625,0.00503570307046175,-0.012937870807945728,-0.011673634871840477
1761336228549764400,7.983764404296875,0.006440787110477686,-0.015162941999733448,-0.02059202827513218
1761336228559830500,7.99383056640625,0.0026996578089892864,-0.016797484830021858,-0.03402973711490631
1761336228569896400,8.003896484375,-0.00972026027739048,-0.014875748194754124,-0.045007288455963135
1761336228579962400,8.01396240234375,-0.02724536880850792,0.0038031665608286858,-0.048375293612480164
1761336228590029600,8.024029541015626,-0.043519679456949234,0.022643163800239563,-0.04781123623251915
1761336228600096500,8.034096435546875,-0.05761012062430382,0.02998923882842064,-0.058874089270830154
1761336228610162400,8.044162353515626,-0.060182999819517136,0.0325610525906086,-0.07784245163202286
1761336228620229400,8.0542294921875,-0.058855339884757996,0.029015691950917244,-0.10113625973463058
1761336228630295600,8.064295654296876,-0.054989226162433624,0.04080071300268173,-0.11445312947034836
1761336228640362500,8.074362548828125,-0.05857248231768608,0.06363806873559952,-0.12263349443674088
1761336228650428400,8.084428466796876,-0.06744746118783951,0.0851241871714592,-0.13599351048469543
1761336228660495600,8.09449560546875,-0.0724230632185936,0.08086124062538147,-0.16027997434139252
1761336228670562600,8.1045625,-0.06791327148675919,0.04926016926765442,-0.20971649885177612
1761336228680628500,8.11462841796875,-0.06577369570732117,0.02248801849782467,-0.2630753517150879
1761336228690695400,8.1246953125,-0.0656631737947464,0.04317758232355118,-0.30071836709976196
1761336228700761600,8.13476171875,-0.07279759645462036,0.018161972984671593,-0.32817330956459045
1761336228710828500,8.14482861328125,-0.054331764578819275,-0.008263509720563889,-0.29423025250434875
1761336228720895500,8.1548955078125,-0.019624002277851105,-0.016075119376182556,-0.17567004263401031
1761336228730961400,8.16496142578125,-0.00033525843173265457,0.005257067270576954,-0.028538115322589874
1761336228741028600,8.175028564453125,-0.003809794783592224,0.01959875598549843,0.07600383460521698
1761336228751094300,8.18509423828125,-0.013178796507418156,0.01768447645008564,0.1364234983921051
1761336228761161200,8.1951611328125,-0.02482975274324417,0.030946804210543633,0.1808408945798874
1761336228771228700,8.205228759765625,-0.03842199593782425,0.05573870241641998,0.21511125564575195
1761336228781294300,8.21529443359375,-0.05273366719484329,0.05246579647064209,0.23031416535377502
1761336228791361300,8.225361328125,-0.06719116866588593,0.030424144119024277,0.2067909985780716
1761336228801427500,8.235427490234375,-0.07860133051872253,0.00604194775223732,0.14790129661560059
1761336228811494400,8.245494384765625,-0.07939175516366959,0.004073072224855423,0.0884060189127922
1761336228821561300,8.255561279296876,-0.08393387496471405,-0.019998930394649506,0.041375935077667236
1761336228831627300,8.265627197265625,-0.07753802835941315,-0.04770459234714508,-0.0010990854352712631
1761336228841694500,8.275694580078126,-0.07696077227592468,-0.0530729666352272,-0.020358826965093613
1761336228851760400,8.285760498046875,-0.07915708422660828,-0.04196332395076752,-0.021344728767871857
1761336228861827300,8.295827392578126,-0.09041045606136322,-0.023102711886167526,-0.01838402822613716
1761336228871893500,8.3058935546875,-0.09055906534194946,-0.0036254171282052994,-0.019310275092720985
1761336228881960400,8.31596044921875,-0.09339143335819244,0.011608175002038479,-0.030773572623729706
1761336228892027400,8.32602734375,-0.09286706149578094,0.006688251160085201,-0.05731596797704697
1761336228902093300,8.33609326171875,-0.08461020886898041,0.011635052971541882,-0.06759580969810486
1761336228912160500,8.346160400390625,-0.07402067631483078,0.016133666038513184,-0.07417940348386765
1761336228922226400,8.356226318359376,-0.07492255419492722,0.009558680467307568,-0.07248196005821228
1761336228932293400,8.36629345703125,-0.06911180168390274,0.0027215471491217613,-0.06586773693561554
1761336228942360300,8.3763603515625,-0.05182764306664467,0.004755284637212753,-0.05256596580147743
1761336228952426500,8.386426513671875,-0.042830418795347214,0.003753935918211937,-0.03814920783042908
1761336228962493400,8.396493408203124,-0.03142615035176277,0.0017172545194625854,-0.016430798918008804
1761336228972560400,8.406560302734375,-0.01901688612997532,-0.005149173550307751,-0.0011184215545654297
1761336228982627300,8.41662744140625,-0.00939059816300869,-0.010386060923337936,0.015424670651555061
1761336228992693500,8.426693603515625,-0.004892519675195217,-0.01937582716345787,0.03413790464401245
1761336229002760400,8.436760498046874,-0.008152819238603115,-0.016959263011813164,0.05121128261089325
1761336229012826400,8.446826416015625,-0.012996576726436615,-0.007114089094102383,0.060402121394872665
1761336229022893300,8.456893310546874,-0.014300428330898285,-0.008607554249465466,0.06259690970182419
1761336229032960500,8.46696044921875,-0.012201590463519096,-0.003650878556072712,0.059984348714351654
1761336229043026400,8.4770263671875,-0.019306393340229988,-0.013696440495550632,0.051707588136196136
1761336229053093400,8.48709326171875,-0.021981805562973022,-0.030586209148168564,0.03789563849568367
1761336229063159600,8.49715966796875,-0.024819418787956238,-0.03817969560623169,0.03814966231584549
1761336229073226500,8.5072265625,-0.02175305411219597,-0.028943587094545364,0.05163271352648735
1761336229083293400,8.51729345703125,-0.02727450802922249,-0.019427740946412086,0.05533537268638611
1761336229093359400,8.527359375,-0.030521169304847717,-0.007513291202485561,0.047012727707624435
1761336229103426600,8.537426513671875,-0.036027275025844574,0.003610348328948021,0.033137738704681396
1761336229113492500,8.547492431640626,-0.039878472685813904,0.022355275228619576,0.02220386639237404
1761336229123559400,8.557559326171875,-0.049297187477350235,0.013743347488343716,0.010168987326323986
1761336229133625600,8.56762548828125,-0.05364346504211426,-0.022407464683055878,-0.00782785564661026
1761336229143692500,8.577692626953125,-0.04839973524212837,-0.031048132106661797,-0.00758452108129859
1761336229153759500,8.587759521484376,-0.046009279787540436,-0.023335352540016174,0.007669532671570778
1761336229163825400,8.597825439453125,-0.034521475434303284,-0.019891446456313133,0.022978298366069794
1761336229173892600,8.607892578125,-0.022091170772910118,-0.029355790466070175,0.034180618822574615
1761336229183959600,8.61795947265625,-0.01944269984960556,-0.02785506471991539,0.04725450277328491
1761336229194025500,8.628025390625,-0.019103679805994034,-0.021761488169431686,0.05434783548116684
1761336229204092400,8.638092529296875,-0.020463552325963974,-0.012350229546427727,0.04261205345392227
1761336229214158600,8.64815869140625,-0.01581234112381935,-0.003518388606607914,0.03197725489735603
1761336229224225500,8.6582255859375,-0.0118226557970047,-0.0007808255031704903,0.011360540054738522
1761336229234291500,8.66829150390625,-0.012463677674531937,-0.01242842711508274,-0.018128642812371254
1761336229244358700,8.678358642578125,-0.009018037468194962,-0.03591780737042427,-0.04329780489206314
1761336229254425600,8.688425537109374,-0.006636639125645161,-0.03514495864510536,-0.0353890135884285
1761336229264491300,8.6984912109375,0.00439178803935647,-0.01146900188177824,-0.015564018860459328
1761336229274558500,8.708558349609374,0.008617158979177475,-0.0008973171934485435,0.0038490938022732735
1761336229284624400,8.718624267578125,0.007394592743366957,-0.0032254159450531006,0.019209235906600952
1761336229294691300,8.72869140625,0.014212285168468952,-0.016772117465734482,0.02172539010643959
1761336229304758500,8.738758544921875,0.01781238429248333,-0.03147129714488983,0.02349528670310974
1761336229314824400,8.748824462890624,0.010517985559999943,-0.047620706260204315,0.022930428385734558
1761336229324891400,8.758891357421875,0.0010326891206204891,-0.06527726352214813,0.02581324800848961
1761336229334957300,8.768957275390624,0.0052234395407140255,-0.07180413603782654,0.02557702735066414
1761336229345024500,8.7790244140625,0.006917994003742933,-0.0688837543129921,0.03757200017571449
1761336229355091500,8.789091552734375,-0.0037029581144452095,-0.057801809161901474,0.04158138856291771
1761336229365157600,8.79915771484375,-0.006972787901759148,-0.04828793182969093,0.04265490919351578
1761336229375224600,8.809224609375,-0.011270426213741302,-0.029387060552835464,0.047780051827430725
1761336229385290500,8.81929052734375,-0.009591874666512012,-0.00156488548964262,0.0479915477335453
1761336229395357700,8.829357666015625,-0.009204383939504623,0.02102990821003914,0.045710284262895584
1761336229405424600,8.839424560546876,-0.0014324015937745571,0.030287424102425575,0.033306144177913666
1761336229415490600,8.849490478515625,0.005391416139900684,0.015487972646951675,0.010777132585644722
1761336229425557500,8.8595576171875,0.013494046404957771,-0.0039668213576078415,-0.010779517702758312
1761336229435623700,8.869623779296875,0.024464672431349754,-0.012213565409183502,-0.02133176103234291
1761336229445690600,8.879690673828126,0.024948345497250557,-0.0014546923339366913,-0.011907259933650494
1761336229455757600,8.889757568359375,0.019220683723688126,0.014316282235085964,-0.0030000517144799232
1761336229465823700,8.89982373046875,0.01850142329931259,0.019977618008852005,-0.00787561945617199
1761336229475890700,8.909890625,0.02281814068555832,0.01808437705039978,-0.01396040990948677
1761336229485956600,8.91995654296875,0.02783423289656639,0.01638176664710045,-0.014622138813138008
1761336229496023600,8.9300234375,0.018831947818398476,0.014844058081507683,-0.01559419184923172
1761336229506089500,8.94008935546875,0.009867454878985882,-0.002117565833032131,-0.008799203671514988
1761336229516156700,8.95015673828125,0.010490101762115955,-0.006955198012292385,0.0014124205335974693
1761336229526223600,8.9602236328125,0.01687854528427124,0.0004999376833438873,0.023389361798763275
1761336229536289500,8.97028955078125,0.029161576181650162,0.010062283836305141,0.03513976186513901
1761336229546356700,8.980356689453124,0.03210003674030304,0.008167711086571217,0.041752997785806656
1761336229556422400,8.99042236328125,0.03536294028162956,0.0020951712504029274,0.04725562036037445
1761336229566489300,9.0004892578125,0.03708842769265175,0.006855787709355354,0.058266531676054
1761336229576556800,9.010556884765625,0.03516083210706711,0.019991299137473106,0.06844939291477203
1761336229586622500,9.02062255859375,0.024078549817204475,0.012612823396921158,0.07159920036792755
1761336229596689400,9.030689453125,0.02489294484257698,0.0008166180923581123,0.07015390694141388
1761336229606755600,9.040755615234374,0.02155381627380848,0.008144584484398365,0.06761203706264496
1761336229616822500,9.050822509765625,0.01951143704354763,0.01094170194119215,0.050993647426366806
1761336229626889500,9.060889404296875,0.018221445381641388,0.009363483637571335,0.027010656893253326
1761336229636955400,9.070955322265625,0.023506222292780876,-0.0004127137362957001,-0.005092416889965534
1761336229647022600,9.081022705078125,0.030696405097842216,-0.018995923921465874,-0.024744626134634018
1761336229657088500,9.091088623046875,0.02848598174750805,-0.01999061554670334,-0.027258917689323425
1761336229667155500,9.101155517578125,0.012361936271190643,-0.020405182614922523,-0.017729835584759712
1761336229677222400,9.111222412109376,0.005651303566992283,-0.015766222029924393,-0.0027527501806616783
1761336229687288600,9.12128857421875,0.01592501625418663,-0.012811842374503613,-0.0028143092058598995
1761336229697355500,9.13135546875,0.003772214287891984,-0.021328099071979523,0.008414110168814659
1761336229707421400,9.14142138671875,0.014410087838768959,-0.008159108459949493,0.00494756642729044
1761336229717488600,9.151488525390626,0.028818055987358093,0.007158063352108002,0.013005226850509644
1761336229727555600,9.1615556640625,0.024493344128131866,0.0010643796995282173,0.021074460819363594
1761336229737621500,9.17162158203125,0.009965001605451107,-0.015929782763123512,0.04568100720643997
1761336229747688400,9.1816884765625,-0.0011057374067604542,-0.008711964823305607,0.0686325803399086
1761336229757754600,9.191754638671876,-0.01640639826655388,0.01476859301328659,0.0900619700551033
1761336229767821600,9.201821533203125,-0.023240888491272926,0.020457519218325615,0.09223306179046631
1761336229777888500,9.211888427734374,-0.023107996210455894,0.018532587215304375,0.08647317439317703
1761336229787954700,9.22195458984375,-0.011987904086709023,0.01590413600206375,0.0730695128440857
1761336229798021600,9.232021728515624,-0.007286359090358019,0.01601652055978775,0.052137330174446106
1761336229808087600,9.242087646484375,0.0040266262367367744,0.002649242989718914,0.02705790102481842
1761336229818154500,9.252154541015624,0.01522388681769371,-0.01564880460500717,0.0072256093844771385
1761336229828220700,9.262220703125,0.028862206265330315,-0.01267661526799202,0.00136653333902359
1761336229838287600,9.27228759765625,0.0389699712395668,0.0018088510259985924,0.0022586919367313385
1761336229848354600,9.2823544921875,0.04139775410294533,0.018759403377771378,0.014467943459749222
1761336229858420700,9.292420654296874,0.0397212952375412,0.0408516563475132,0.026391979306936264
1761336229868487700,9.30248779296875,0.04014744237065315,0.057307541370391846,0.03718708083033562
1761336229878553600,9.3125537109375,0.05163658410310745,0.05143154412508011,0.027542177587747574
1761336229888620500,9.32262060546875,0.05893873795866966,0.025021038949489594,0.015282790176570415
1761336229898687500,9.3326875,0.0635521337389946,-0.0031160591170191765,0.004194186069071293
1761336229908753700,9.342753662109375,0.059744589030742645,-0.03952238708734512,0.011706508696079254
1761336229918820600,9.352820556640625,0.058897703886032104,-0.04561969265341759,0.03882920742034912
1761336229928886500,9.362886474609375,0.052745550870895386,-0.0376746729016304,0.07092220336198807
1761336229938953700,9.37295361328125,0.04351583495736122,-0.028659071773290634,0.09537056088447571
1761336229949020700,9.383020751953126,0.037035223096609116,-0.017370734363794327,0.10191935300827026
1761336229959086600,9.393086669921875,0.026004143059253693,-0.004004593938589096,0.09877628833055496
1761336229969153500,9.403153564453126,0.019965017214417458,0.006007103249430656,0.08520285785198212
1761336229979219700,9.4132197265625,0.014576643705368042,0.00614718534052372,0.06771814078092575
1761336229989286700,9.42328662109375,0.01061803475022316,-0.0028806040063500404,0.04390314221382141
1761336229999353600,9.433353515625,0.007548741530627012,-0.013201684691011906,0.013742043636739254
1761336230009419800,9.443419677734376,0.00040749693289399147,-0.017386991530656815,-0.006324156187474728
1761336230019486700,9.45348681640625,-0.002540888264775276,-0.025458499789237976,-0.012071790173649788
1761336230029552400,9.463552490234376,-0.0015531391836702824,-0.015703892335295677,-0.01338423602283001
1761336230039619300,9.473619384765625,0.0016746120527386665,-0.0032440274953842163,-0.012892616912722588
1761336230049685500,9.483685546875,-0.00159849738702178,0.006369248032569885,-0.0007842355407774448
1761336230059752400,9.49375244140625,0.005028779152780771,0.019257880747318268,0.004983372054994106
1761336230069819400,9.5038193359375,0.016675394028425217,0.03131544962525368,0.019817247986793518
1761336230079885600,9.513885498046875,0.01622185856103897,0.02459975704550743,0.030916504561901093
1761336230089952500,9.523952392578124,0.02612750604748726,0.007782810367643833,0.038299236446619034
1761336230100018400,9.534018310546875,0.03680518642067909,-0.00016033463180065155,0.04687727987766266
1761336230110085400,9.54408544921875,0.038251183927059174,-0.010971393436193466,0.06165570393204689
1761336230120152600,9.554152587890625,0.0386463925242424,-0.030537903308868408,0.06651544570922852
1761336230130218500,9.564218505859374,0.04006572812795639,-0.037421923130750656,0.06763803213834763
1761336230140285400,9.574285400390625,0.03356468304991722,-0.04099268838763237,0.07163757085800171
1761336230150351600,9.5843515625,0.022680306807160378,-0.0363093838095665,0.07247117161750793
1761336230160418600,9.59441845703125,0.01859901286661625,-0.025335563346743584,0.06961919367313385
1761336230170485500,9.604485595703125,0.020278140902519226,-0.01909461058676243,0.052214253693819046
1761336230180551400,9.614551513671875,-0.007572398521006107,-0.0041795773431658745,0.026160284876823425
1761336230190618600,9.62461865234375,-0.03138202428817749,0.03101964481174946,0.0005212202668190002
1761336230200684500,9.6346845703125,-0.016133561730384827,0.01845751516520977,0.01116986945271492
1761336230210751500,9.64475146484375,0.003921377472579479,0.025234293192625046,0.014561019837856293
1761336230220818400,9.654818359375,0.014098914340138435,0.031489524990320206,0.011791598051786423
1761336230230884600,9.664884521484375,0.03350905328989029,0.04834283888339996,0.008302218280732632
1761336230240951600,9.67495166015625,0.05084143951535225,0.06836581230163574,0.005971419624984264
1761336230251017500,9.685017578125,0.05444098636507988,0.09079471230506897,0.01293429359793663
1761336230261084700,9.695084716796876,0.05547775328159332,0.10716702789068222,0.025585908442735672
1761336230271151600,9.705151611328125,0.07232274860143661,0.14868077635765076,0.05783895403146744
1761336230281217500,9.715217529296876,0.09627841413021088,0.22579899430274963,0.12370052933692932
1761336230291284500,9.725284423828125,0.08534977585077286,0.3827945291996002,0.31822770833969116
1761336230301350700,9.7353505859375,-0.0033041941933333874,0.3444119989871979,0.4366196393966675
1761336230311417600,9.74541748046875,-0.0398588627576828,0.1358344703912735,0.3253680169582367
1761336230321484500,9.755484619140624,0.011091135442256927,0.03078715316951275,0.21329979598522186
1761336230331550700,9.76555078125,0.013612210750579834,-0.06265926361083984,0.1561255156993866
1761336230341617700,9.77561767578125,-0.010651849210262299,-0.10079147666692734,0.11660660058259964
1761336230351683600,9.78568359375,-0.023104337975382805,-0.1411949247121811,0.06001622602343559
1761336230361750500,9.79575048828125,-0.010209312662482262,-0.1759587675333023,-0.013071832247078419
1761336230371817500,9.8058173828125,0.014480477198958397,-0.13670845329761505,-0.10640525072813034
1761336230381883600,9.815883544921874,0.012916934676468372,-0.08452515304088593,-0.1585475504398346
1761336230391950600,9.82595068359375,-0.00814127642661333,-0.086830735206604,-0.14071878790855408
1761336230402016500,9.8360166015625,-0.037383850663900375,-0.0820825845003128,-0.056628670543432236
