time,seconds_elapsed,z,y,x
1761336249730127000,0.075127197265625,1.524782047870755,1.1460694387599826,-0.8599169668596237
1761336249740193000,0.085193115234375,1.3348609490394592,1.2869625950500367,-0.7684682249572128
1761336249750260200,0.09526025390625,1.2251923675745724,1.3668635224997996,-0.6855363323137164
1761336249760327200,0.1053271484375,1.152571952521801,1.4014295167073607,-0.6312684432923793
1761336249770393000,0.11539306640625,1.094760399544239,1.39522014067322,-0.6246345582358539
1761336249780460000,0.1254599609375,0.9760755679309367,1.3159329612076283,-0.5764169091641903
1761336249790526200,0.135526123046875,0.8380296177655457,1.2431035795792937,-0.4932476275682449
1761336249800593200,0.14559326171875,0.7529144627988338,1.1782242801725864,-0.3863904502622783
1761336249810660000,0.15566015625,0.7045680727809667,1.130180672493577,-0.32758316424563527
1761336249820726300,0.165726318359375,0.677088529703021,1.0940962365470825,-0.2854772760525346
1761336249830793200,0.175793212890625,0.7174561959266662,1.1518819244310259,-0.21667086632996796
1761336249840859100,0.185859130859375,0.8136474561810493,1.2477490672975777,-0.12019918169900774
1761336249850926000,0.195926025390625,0.8691437179535627,1.324101946876943,0.02558525376394391
1761336249860993000,0.205992919921875,0.8471201021939515,1.358340462695807,0.11700973800793289
1761336249871059200,0.21605908203125,0.7432733587503433,1.3875082511216401,0.11893661441728472
1761336249881126100,0.226126220703125,0.6099094289213418,1.3228241820260882,0.12082827338278293
1761336249891192300,0.2361923828125,0.40207916391193865,1.2226032278642058,0.1916084673963487
1761336249901259300,0.24625927734375,0.06493629029095173,1.1925868597850202,0.25770693333446976
1761336249911325200,0.2563251953125,-0.23886253213286399,1.2296392639808356,0.38688510191142556
1761336249921392000,0.26639208984375,-0.43884033007621764,1.2592368221260606,0.511886277064681
1761336249931459000,0.276458984375,-0.5983487549871206,1.2234573604755103,0.5649784003049135
1761336249941525200,0.286525146484375,-0.6152087043732405,1.1971803250551223,0.5020554956629872
1761336249951592200,0.29659228515625,-0.4891629886031151,1.0460760097436606,0.41910979368984697
1761336249961658000,0.306658203125,-0.3822948515117168,0.7210248481936752,0.47241848229020833
1761336249971725300,0.316725341796875,-0.45799861953258514,0.383442414111644,0.5847139051273464
1761336249981792300,0.326792236328125,-0.6909259163975715,0.1552042979761958,0.6985387294888497
1761336249991858200,0.336858154296875,-0.8802636623829603,-0.003030453737080097,0.7811401480689645
1761336250001925000,0.346925048828125,-0.945533714672923,-0.09445413426347077,0.8410363983660936
1761336250011991300,0.3569912109375,-0.9478601117938756,-0.14095555400177837,0.7852753481775522
1761336250022058200,0.367058349609375,-0.9721078333437442,-0.24598880381621419,0.5987161269947886
1761336250032125200,0.377125244140625,-1.1018576643288134,-0.4702355122279375,0.4215159780487418
1761336250042191000,0.387191162109375,-1.26719669508934,-0.7117485588695853,0.34375030906200404
1761336250052258300,0.39725830078125,-1.4298843345582484,-0.8548141638278961,0.43154900402426716
1761336250062324000,0.407323974609375,-1.5431535708636044,-0.9181813781712204,0.6179132871568203
1761336250072391000,0.417390869140625,-1.6609224566757679,-0.911689604999125,0.8318509291306138
1761336250082458400,0.427458251953125,-1.8277514337331056,-0.8271646710105239,1.0487857070937752
1761336250092524000,0.43752392578125,-1.9948931300014257,-0.7307808107934892,1.1227765337169169
1761336250102591000,0.447591064453125,-2.177578432360291,-0.7088198850065469,1.054030622009933
1761336250112657200,0.4576572265625,-2.3427286625504493,-0.8445817428227513,0.9137579357057809
1761336250122724000,0.46772412109375,-2.469849314075708,-1.0733870643869041,0.7647212204486131
1761336250132791000,0.477791015625,-2.436370822843909,-1.2730902831725774,0.6533838289886713
1761336250142857000,0.48785693359375,-2.2904145379453897,-1.3751651946380734,0.5870695283427834
1761336250152924200,0.497924072265625,-2.1006676266372204,-1.3902739164426923,0.5725713396519422
1761336250162990000,0.507989990234375,-1.8926076445251703,-1.40779992852211,0.5343634818106889
1761336250173057000,0.51805712890625,-1.6391829185545443,-1.44070281182304,0.4699401094779372
1761336250183124000,0.5281240234375,-1.3501841903775929,-1.434849848011136,0.41197219689488407
1761336250193190100,0.538190185546875,-1.1115525443911551,-1.369289580602944,0.34750556994229553
1761336250203257000,0.548257080078125,-1.018655064985156,-1.2520673688881099,0.41814036413580175
1761336250213323000,0.558322998046875,-1.1651076089680195,-1.1749809874024242,0.5398980273231864
1761336250223390200,0.56839013671875,-1.2966431543260812,-1.0467485752429813,0.6276300867900252
1761336250233457200,0.57845703125,-1.2186328629285097,-0.7959105778299271,0.6970891152024269
1761336250243523000,0.588523193359375,-1.0296779787808656,-0.611818039021641,0.7307111065581441
1761336250253590000,0.598590087890625,-0.9132686908841132,-0.595999488447234,0.7232245501950383
1761336250263656200,0.60865625,-0.9142331520020961,-0.6508501457925886,0.6314543212532997
1761336250273723100,0.61872314453125,-0.9251713101238012,-0.688082801926136,0.41158933505713935
1761336250283789000,0.6287890625,-0.7990794171243906,-0.7418273977257311,0.23109803561121223
1761336250293856300,0.638856201171875,-0.5454962857216596,-0.8468276220533997,0.1518549875482917
1761336250303923200,0.648923095703125,-0.26898995937108994,-0.980637907410413,0.13028320720940828
1761336250313989000,0.658989013671875,-0.11579963156580925,-1.0361027511313556,0.1749324962750077
1761336250324056000,0.66905615234375,-0.20554303085505962,-0.9553443300694227,0.18887655821442603
1761336250334122200,0.679122314453125,-0.2726040582150221,-0.7635415091447532,0.21361060197651385
1761336250344189200,0.689189208984375,-0.3756540983229875,-0.5979947539176792,0.2140241512134671
1761336250354256100,0.699256103515625,-0.4979799167871475,-0.5121915436215698,0.2102227131038904
1761336250364322300,0.709322265625,-0.5971545767664909,-0.5613602828729898,0.17606939135044813
1761336250374389200,0.71938916015625,-0.6637561699211597,-0.605623056839034,0.07657967407256365
1761336250384455200,0.729455078125,-0.6861392666429281,-0.5897665123417973,-0.004968436062335968
1761336250394522000,0.739522216796875,-0.7143091300725937,-0.6092931236539035,-0.03588321428596973
1761336250404589000,0.749589111328125,-0.7684288427948951,-0.6672567984532565,-0.011375088234245776
1761336250414655200,0.7596552734375,-0.7824205432683229,-0.6741903240434824,0.0001765256106853485
1761336250424722200,0.76972216796875,-0.8413660687118768,-0.6119654116030782,0.03434066101908684
1761336250434788400,0.779788330078125,-1.0525947439879177,-0.520525583659485,0.09763824419230221
1761336250444855300,0.789855224609375,-1.3057383149296045,-0.4276835607677698,0.14230039273947476
1761336250454922200,0.799922119140625,-1.505343187907338,-0.33752544319778677,0.13186813831329344
1761336250464988200,0.80998828125,-1.6069471208602188,-0.2510635497972369,0.05100976400822401
1761336250475055000,0.82005517578125,-1.5501906298935413,-0.2064063696861267,-0.08674100260287523
1761336250485121300,0.830121337890625,-1.3927607648223637,-0.19511713310442863,-0.1979819479510188
1761336250495188200,0.840188232421875,-1.2065285836368798,-0.23381131315790116,-0.2539832366362214
1761336250505255200,0.850255126953125,-1.047159859457612,-0.3060655983120203,-0.2786091438487172
1761336250515321300,0.8603212890625,-0.9276841697275638,-0.4089363363303244,-0.31917554751485583
1761336250525388300,0.87038818359375,-0.7396078219801188,-0.4995112910728901,-0.38635084890425203
1761336250535454200,0.8804541015625,-0.5535889912843703,-0.4971743725579232,-0.45324616430848835
1761336250545521200,0.890521240234375,-0.3864320974469185,-0.40284079593420025,-0.48695729525238274
1761336250555588400,0.90058837890625,-0.15410627360641954,-0.33617643974162636,-0.4601762558326125
1761336250565654300,0.910654296875,0.06303133345246315,-0.30061683138683437,-0.3415557216271758
1761336250575721200,0.92072119140625,0.2206014837771654,-0.2630187029417604,-0.1837044162735343
1761336250585787400,0.930787353515625,0.32242402791678904,-0.2481234046921134,-0.06150894619077444
1761336250595854300,0.940854248046875,0.44481765092015263,-0.23295856878608465,-0.04503215090334415
1761336250605921300,0.95092138671875,0.5713233854174614,-0.26050145942382513,-0.12430033340752124
1761336250615987200,0.9609873046875,0.6933113502293825,-0.3515860441889614,-0.23331162000745534
1761336250626054400,0.971054443359375,0.8048761207044124,-0.4541659825671464,-0.2708218509733677
1761336250636120300,0.981120361328125,0.8879407728821038,-0.5051848797298968,-0.29860037699788805
1761336250646187300,0.991187255859375,0.9230600170582532,-0.4874081808250397,-0.3482312538683414
1761336250656253400,1.00125341796875,0.9124199651002883,-0.47654089598245913,-0.3996937300801277
1761336250666320400,1.0113203125,0.8125053004086017,-0.43813393537253137,-0.4062847989082336
1761336250676387300,1.02138720703125,0.5426631081223487,-0.35922260348200796,-0.35900019290298224
1761336250686453200,1.031453369140625,0.1664876162737608,-0.28505057507306336,-0.3230252086803317
1761336250696520400,1.0415205078125,-0.1724959167778492,-0.2427200112786144,-0.273566473506391
1761336250706586000,1.051586181640625,-0.39007776047289366,-0.20441658410839736,-0.23010522518157958
1761336250716653000,1.061653076171875,-0.47016252005696296,-0.17982691725306213,-0.20975188072174786
1761336250726720300,1.07172021484375,-0.4435644359886646,-0.1888499624684453,-0.1487146436959505
1761336250736786200,1.0817861328125,-0.42640521139502524,-0.16541852573752402,-0.09159253428727387
1761336250746853000,1.09185302734375,-0.47066579340398307,-0.08604147603139281,-0.07748802108913659
1761336250756919000,1.1019189453125,-0.49537879437804216,0.04455547330230474,-0.042747547097504134
1761336250766986200,1.111986328125,-0.5465875880897045,0.14752141532339155,0.015733867965638637
1761336250777053200,1.12205322265625,-0.5591898800313473,0.19673903521783648,0.1140387593731284
1761336250787119000,1.132119140625,-0.5329559531003236,0.23245982548370955,0.2001502319008112
1761336250797186000,1.14218603515625,-0.49875849994421,0.23262020367719233,0.25537001481950283
1761336250807252200,1.152252197265625,-0.5182493823558092,0.15130378340631723,0.22642858249545095
1761336250817319200,1.162319091796875,-0.5798305169999599,0.07832775984890758,0.10738631574660538
1761336250827386000,1.17238623046875,-0.601266688260436,0.040101051176711915,-0.05767302128970623
1761336250837452300,1.182452392578125,-0.5779302363365888,0.032904271540418265,-0.19776713615655897
1761336250847519200,1.192519287109375,-0.49176878718733785,0.038844584842212496,-0.22210808894783257
1761336250857585200,1.202585205078125,-0.3279857536971569,0.015688750182278454,-0.18687690882980823
1761336250867652000,1.212652099609375,-0.12624620677828788,-0.028011238801851867,-0.08543167356997727
1761336250877719000,1.222718994140625,0.06185527541041374,-0.04971723997965455,-0.011589607767760753
1761336250887785200,1.23278515625,0.20207506248354912,-0.03936820685751736,0.07021715330332517
1761336250897852200,1.24285205078125,0.2584597975283861,-0.004643040032871067,0.16229016458392143
1761336250907918300,1.25291845703125,0.2310971588283777,-0.01582381127141416,0.18808745366334914
1761336250917985300,1.2629853515625,0.21557634909152984,-0.03364164590425789,0.16266250502765178
1761336250928052200,1.27305224609375,0.21964169883430004,-0.022685586799681186,0.0905456555828452
1761336250938118100,1.2831181640625,0.22350948017835615,-0.026237105268798768,0.06537322040349244
1761336250948185000,1.29318505859375,0.18733575851321219,-0.015234649739228188,0.09172785110473632
1761336250958251300,1.303251220703125,0.07133972759246826,0.006727554689347744,0.07645575543195009
1761336250968318200,1.313318115234375,0.011675240224599837,-0.03995393432360142,0.03604425006657839
1761336250978385200,1.32338525390625,0.04006897553801536,-0.08105897491108625,-0.022945699040591714
1761336250988451300,1.333451416015625,0.10185995354056358,-0.08042831232473253,-0.06120616385191679
1761336250998518300,1.343518310546875,0.09763619836568832,-0.06105210580136627,0.020874445724487302
1761336251008584200,1.353584228515625,0.05251169300377369,-0.02924903696849942,0.1168403727903962
1761336251018651100,1.363651123046875,-0.02411152794957161,0.02664122909028083,0.17566840933412312
1761336251028717300,1.37371728515625,-0.1314215635895729,0.08009849584847688,0.19533610961735248
1761336251038784300,1.3837841796875,-0.23437924923896788,0.1202448109390214,0.1977113143160939
1761336251048851200,1.393851318359375,-0.25388766730725765,0.1970914653846994,0.25368454595059153
1761336251058917400,1.40391748046875,-0.2277560317069292,0.29385625121071934,0.32842151476591824
1761336251068984300,1.413984375,-0.15438918220102787,0.35258111964091654,0.4149386454850435
1761336251079050200,1.42405029296875,-0.04935469027757644,0.3535057236725464,0.5037134920030832
1761336251089117200,1.4341171875,0.0414092842310667,0.25325269387196747,0.5210692620821297
1761336251099184400,1.444184326171875,0.11694237186014651,0.12869166370164603,0.4901325642876327
1761336251109250300,1.454250244140625,0.16540975790917872,0.01683879700023681,0.41737478659078475
1761336251119317200,1.464317138671875,0.20873393585085867,-0.0198989152232185,0.36822877062782644
1761336251129383400,1.474383544921875,0.16434534354805946,-0.014730280413664877,0.392172540795058
1761336251139450400,1.484450439453125,0.05983049158453941,-0.0027422113802284,0.43200946114286776
1761336251149517300,1.494517333984375,-0.04000818526148796,0.0790879670990631,0.43130496613532304
1761336251159583200,1.504583251953125,-0.1228513036429882,0.18028638799097388,0.354286754515022
1761336251169650400,1.514650390625,-0.12179390354454517,0.22421759191509336,0.32360636956915256
1761336251179716000,1.524716064453125,-0.06562836420834064,0.23256562394574284,0.30646833389401434
1761336251189783300,1.534783203125,0.06318330914378166,0.2239129464127123,0.38502179225757716
1761336251199849200,1.54484912109375,0.25126725567579267,0.19772220103628932,0.4984849436998367
1761336251209916200,1.554916259765625,0.4051338753074407,0.10856566172428428,0.5295829695358872
1761336251219983400,1.5649833984375,0.39648938108086584,0.013176950024440883,0.4538816857330501
1761336251230049000,1.575049072265625,0.25756314094960686,-0.10816639674101024,0.3094244072206318
1761336251240116200,1.5851162109375,0.18168635444939135,-0.23246778959445655,0.23179610087797045
1761336251250182100,1.59518212890625,0.1478869607001543,-0.31159287383351475,0.1803723492413759
1761336251260249000,1.6052490234375,0.1332476099729538,-0.3252938111994415,0.1404211548641324
1761336251270316000,1.61531591796875,0.1450286486595869,-0.35851639144141223,0.0782232034958899
1761336251280382200,1.62538232421875,0.17960311843454838,-0.38940446432121095,-0.039463703121244906
1761336251290449200,1.63544921875,0.12745733613371849,-0.31038126955404877,-0.1823171996988356
1761336251300515000,1.64551513671875,0.08157178327143191,-0.1631101391972974,-0.22066271244511007
1761336251310582300,1.655582275390625,0.058657940673828124,-0.09359890567362308,-0.16256635117679832
1761336251320649200,1.665649169921875,0.04462824627757072,-0.09930804056804626,-0.13717282059267163
1761336251330715100,1.675715087890625,-0.015424948146939278,-0.18138138015344737,-0.3139223031617701
1761336251340782000,1.685781982421875,-0.15406184994280336,-0.25900760413687673,-0.6670490739867091
1761336251350848300,1.69584814453125,-0.30888708547353744,-0.2932128387406468,-1.0019206416748463
1761336251360915200,1.705915283203125,-0.4310907388627529,-0.2792010453272611,-1.151780071491748
1761336251370981600,1.715981689453125,-0.5251829810112715,-0.28036928538903594,-1.2846543181076646
1761336251381047800,1.7260478515625,-0.6666296795308589,-0.3029157194463536,-1.3812483139440417
1761336251391114800,1.73611474609375,-0.7859574852228164,-0.3225316530097276,-1.4588289817526936
1761336251401180700,1.7461806640625,-0.7479355053424834,-0.22007464689146727,-1.418533942373842
1761336251411247600,1.75624755859375,-0.6716536451727152,-0.22229473409373313,-1.1976454583488405
1761336251421313800,1.766313720703125,-0.5172849212378263,-0.17717402812410146,-0.8629869488894939
1761336251431380700,1.776380615234375,-0.2991454436600208,-0.06760930889248848,-0.4764196807555854
1761336251441447700,1.78644775390625,-0.09708616326749324,-0.04679627449903637,-0.13358210262432693
1761336251451513900,1.796513916015625,0.01400222186744213,0.015092026398144661,0.15254896116182207
1761336251461580800,1.806580810546875,0.06872633022367954,0.14214907463528215,0.3551348957769572
1761336251471646700,1.816646728515625,0.11578560304045676,0.4035344407541677,0.5233984356820583
1761336251481713700,1.826713623046875,0.16878478730022906,0.5976101385142654,0.6639492082752287
1761336251491780900,1.83678076171875,0.19770459231436252,0.6584587941654026,0.7898957014545798
1761336251501846800,1.8468466796875,0.21525836918354033,0.5361429491059855,0.8857040998712181
1761336251511913700,1.856913818359375,0.2891682395249605,0.27348842156780884,0.8964822451256215
1761336251521980000,1.86697998046875,0.3554822479099035,0.07239910045228898,0.7368770818419754
1761336251532046800,1.877046875,0.37448914619684215,0.004011135337501764,0.5324709460623562
1761336251542113800,1.88711376953125,0.3625637306034565,0.004124039393756538,0.3711060796298086
1761336251552179700,1.8971796875,0.3137327719390392,-0.04633013655832037,0.29656770212650296
1761336251562247000,1.907246826171875,0.3137204969793558,-0.14807842815164476,0.28451515302211045
1761336251572312800,1.917312744140625,0.33525603696107864,-0.16359078058740123,0.24918591935709117
1761336251582379800,1.9273798828125,0.34758418813645836,-0.0811483336949721,0.19984613438770174
1761336251592445700,1.93744580078125,0.4405944802671671,-0.054111967807263135,0.11710706090256572
1761336251602513000,1.947512939453125,0.5462859747946262,-0.11482676794566213,-0.052380613970011466
1761336251612579800,1.957579833984375,0.5743295814961195,-0.1817379750387743,-0.31858123488351703
1761336251622645500,1.9676455078125,0.5477396807342767,-0.24615875355564057,-0.6484601088508963
1761336251632713000,1.977712890625,0.46365269977152346,-0.35689901937264945,-0.9476061370328068
1761336251642778600,1.987778564453125,0.32520401402413845,-0.4028257810281589,-1.0328135003276169
1761336251652845600,1.997845458984375,0.15706863054335116,-0.4080229112798348,-0.9436987543307245
1761336251662912800,2.007912841796875,-0.18530980564355848,-0.5125537279974669,-0.8859311866253614
1761336251672978700,2.017978759765625,-0.6339063905805349,-0.5412151378037408,-0.848517986293137
1761336251683045600,2.028045654296875,-1.0201578707635401,-0.27316571068577467,-0.6146675832338631
1761336251693111600,2.038111572265625,-1.1975713701993227,-0.0608848960082978,-0.5105617504626512
1761336251703178800,2.0481787109375,-1.206146306321025,-0.012746595783159136,-0.50239751403369
1761336251713245700,2.05824560546875,-0.9413707497745751,-0.049448140714690086,-0.3380711674470454
1761336251723311600,2.0683115234375,-0.5011135386377573,-0.0583330926336348,-0.17975531332157552
1761336251733378600,2.078378662109375,-0.18055238198339937,-0.006219422504119575,-0.17833609417341648
1761336251743444700,2.08844482421875,-0.05795476084053516,0.09842077287212013,-0.14242533429339527
1761336251753511700,2.09851171875,0.11647475434839724,0.18980569229070096,-0.21162308142110703
1761336251763577600,2.10857763671875,0.2885971616387367,0.6722297645602375,0.11329100974574685
1761336251773644800,2.118644775390625,0.30168519127070903,0.7385244837228209,0.5337811518780887
1761336251783711700,2.128711669921875,0.2743435953587293,0.6426454312227666,0.7659540501791984
1761336251793777700,2.138777587890625,0.3800473648458719,0.7015563968095928,0.8273490146014839
1761336251803844600,2.1488447265625,0.3706640349507332,0.639104324549809,0.779749205167219
1761336251813910800,2.158910888671875,0.2140525005251169,0.5305458962839097,0.7076921961508691
1761336251823977700,2.168977783203125,0.04283025694489479,0.4746171613782644,0.5130594855625182
1761336251834044700,2.179044677734375,-0.11687573636472225,0.5866089981589466,0.3357216817114502
1761336251844110800,2.18911083984375,-0.2094827083915472,0.6044806088056415,0.1903541564863175
1761336251854177800,2.199177734375,-0.24937340475320816,0.45076128869019444,0.06660524641647934
1761336251864243700,2.20924365234375,-0.3007505407691002,0.28254261084012683,-0.06807889916561544
1761336251874310700,2.219310546875,-0.5489993254065513,0.3118134212490171,0.17897921438254416
1761336251884377600,2.229377685546875,-0.704515465810895,0.6342587111495435,0.37984373203255234
1761336251894443800,2.23944384765625,-0.6071048928946257,0.5716592663083225,0.38317821021750564
1761336251904510700,2.2495107421875,-0.5061240602761506,0.27812472133263944,0.62860492317155
1761336251914577000,2.259576904296875,-0.05435644408762454,0.13470420198943464,0.8137467518370598
1761336251924643800,2.269643798828125,0.6903180136322975,-0.03858410727512091,0.8371759966108947
1761336251934709800,2.279709716796875,1.1630237884312868,-0.4687917796930298,0.7468181917503476
1761336251944776700,2.289776611328125,1.1593033066034317,-0.8060179842159152,0.7670753823593258
1761336251954843600,2.29984375,0.9377812008500098,-0.818140968208015,0.5924691954292357
1761336251964909800,2.309909912109375,0.7545984703630209,-0.6674002255119383,0.2647176888793707
1761336251974976800,2.319976806640625,0.5536638100862503,-0.7928389883648603,-0.44989787679389115
1761336251985042700,2.330042724609375,0.32864509438872336,-1.2819450591489672,-1.74264753081277
1761336251995110000,2.34010986328125,0.007781155395507812,-1.9377733586803076,-3.446125665275752
1761336252005176800,2.3501767578125,-0.3078606650352478,-2.323301200763881,-4.197744535306096
1761336252015242800,2.36024267578125,-0.7683481787741184,-1.8322607278510927,-3.387801486600935
1761336252025309700,2.370309814453125,-0.8673620952337979,-0.14529380240179599,-0.7992783006973564
1761336252035375900,2.3803759765625,-0.7764759556502103,-0.21990323584731666,0.5966986131599172
1761336252045442800,2.39044287109375,-0.7838900312989949,-0.04815400925092399,0.7297553402032703
1761336252055509800,2.400509765625,-0.8581202196359634,0.5139558133477344,0.4449454785509035
1761336252065576000,2.410575927734375,-1.1570511437624693,0.5040774299446493,0.15189053378570824
1761336252075643000,2.420642822265625,-1.059867949861288,0.0003698927583172917,-0.07709116725865751
1761336252085708500,2.43070849609375,-0.6420090330153704,-0.09042012950703501,0.040856837980076666
1761336252095775700,2.440775634765625,-0.15337971289753913,-0.1491447056762874,0.049104514908790586
1761336252105841700,2.450841552734375,0.13912439305186272,-0.15939754841495304,0.013560286786220966
1761336252115908600,2.46090869140625,0.22142682868540287,-0.10955160402171313,-0.03216532627400011
1761336252125975600,2.4709755859375,0.22125790185928343,-0.05898103514835238,0.02019636379983276
1761336252136041700,2.481041748046875,0.16849427992105484,0.021975648432038725,0.15472393058072775
1761336252146108700,2.491108642578125,0.1690104127496481,-0.017276238569431005,0.2114269377944991
1761336252156174600,2.501174560546875,0.1545353126734495,-0.05417966274861246,0.15365874903462826
1761336252166241500,2.511241455078125,0.040973230901360506,-0.037431064782477916,-0.023884879586845636
1761336252176308700,2.521308837890625,-0.11909575050175189,-0.04735533315390348,-0.18945837669037283
1761336252186374700,2.531374755859375,-0.228728091609478,-0.07669701684191822,-0.28019809354059394
1761336252196441600,2.541441650390625,-0.1691495289593935,-0.09551270340569316,-0.26290581715181466
1761336252206507800,2.5515078125,-0.06399287196099758,-0.119030978169851,-0.20822127362098544
1761336252216574700,2.56157470703125,0.017528057906031607,-0.11322368013057857,-0.12881759163625536
1761336252226641700,2.5716416015625,0.03263736423254013,-0.06160151984505355,-0.08732899509128182
1761336252236707600,2.58170751953125,0.01379179398715496,-0.03638849692698568,-0.06366948522552847
1761336252246774800,2.59177490234375,-0.049773792472481725,-0.04291786216311157,-0.0230880301207304
1761336252256840700,2.6018408203125,-0.10454349353611468,-0.04902465460561216,0.006696465431340039
1761336252266907600,2.61190771484375,-0.15154840581715107,-0.08299019870199263,-0.019037512620911003
1761336252276973800,2.621973876953125,-0.14752631069421768,-0.10408774912524968,-0.02338620934970677
1761336252287040800,2.632040771484375,-0.06421615932285785,-0.11641345261521636,0.007406988320872187
1761336252297107700,2.642107666015625,-0.010599135425686836,-0.12685951637104154,0.046148039723373946
1761336252307173600,2.652173583984375,0.014466332247853278,-0.13805336628686635,0.09483166233897208
1761336252317240800,2.66224072265625,-0.07960077545940876,-0.15918748586084694,0.159466850791499
1761336252327306800,2.672306640625,0.02376023029386997,-0.24649558429457247,0.08614055249169468
1761336252337373700,2.682373779296875,-0.11542846016585827,-0.08684840850010514,0.14953458177670836
1761336252347440600,2.692440673828125,-0.40615211243927474,-0.047524990632385015,0.10335289551205933
1761336252357506800,2.7025068359375,-0.40394086613059044,-0.08170421401206404,0.0012558087473735213
1761336252367573500,2.712573486328125,-0.15715221717357636,-0.1146814046582207,0.0078084452612325545
1761336252377639400,2.722639404296875,0.04897241296172142,-0.13905483494699,-0.022306049430184063
1761336252387706600,2.73270654296875,0.08715162923038006,-0.10583400827068835,-0.02374112373460084
1761336252397772500,2.7427724609375,0.04409691587984561,-0.06108330465722829,0.033261670143343504
1761336252407839500,2.752839599609375,-0.08569090902805328,-0.08434807958435267,0.07064758060984314
1761336252417906400,2.762906494140625,-0.14900748916268347,-0.1005363037213683,0.1323694023663178
1761336252427972600,2.77297265625,-0.13169511983394622,-0.06371113241016864,0.09429076039530336
1761336252438039600,2.78303955078125,-0.07028641914725303,-0.04867836191859096,0.03354556511864066
1761336252448105500,2.79310546875,-0.06593699176609516,-0.04501538243163377,0.016815708385594187
1761336252458172700,2.803172607421875,-0.08789689463973045,-0.07223572658412158,0.02018441763371229
1761336252468239600,2.813239501953125,-0.08405658582448959,-0.07486757292505353,-0.014003135182894765
1761336252478305500,2.823305419921875,-0.008515314888954162,-0.08354797871522605,-0.019325206988491116
1761336252488372500,2.83337255859375,0.08105214331150054,-0.08513049866631626,0.03568202915806323
1761336252498438700,2.843438720703125,0.12668868984878062,-0.10594809963703154,0.07502583222668617
1761336252508505600,2.853505615234375,0.05195172103345394,-0.11253504027929156,0.106019995829463
1761336252518572500,2.863572509765625,-0.08322773378491401,-0.09394293333832174,0.10105159629974514
1761336252528638700,2.873638671875,-0.15937983009517193,-0.06952529858164488,0.03592387508992106
1761336252538705700,2.88370556640625,-0.18235913914442062,-0.021543540625087915,-0.017900946339033542
1761336252548771600,2.893771484375,-0.17577099292576312,-0.02142535760551691,-0.09113076199442148
1761336252558838500,2.903838623046875,-0.11159107396006583,-0.042063145029917356,-0.1690090245101601
1761336252568904700,2.91390478515625,-0.0072141691625118255,-0.04319182026628405,-0.19791765054315327
1761336252578971600,2.9239716796875,0.09747487032413482,-0.050661133233644066,-0.1404407363474369
1761336252589038600,2.93403857421875,0.1357832659304142,-0.0770877331925556,-0.0589724134504795
1761336252599104800,2.944104736328125,0.07787935849428176,-0.08967292786892503,-0.015688019529916344
1761336252609171700,2.954171630859375,-0.01551847164928913,-0.06629552288018167,-0.025696020662039517
1761336252619237600,2.964237548828125,-0.08407879765629768,-0.019541772348619996,-0.05865403168369084
1761336252629304600,2.9743046875,-0.04652735789716243,-0.042858240930363535,-0.09400083753801881
1761336252639371500,2.98437158203125,-0.048585459470748896,-0.07854129300173372,-0.0803126500558108
1761336252649437700,2.994437744140625,-0.18199498200714587,-0.06280764423180371,-0.05999123510420322
1761336252659504600,3.004504638671875,-0.31397008782625196,-0.04745280217900872,-0.0683507018443197
1761336252669570600,3.014570556640625,-0.32474925599396226,-0.03415869204830378,-0.10542509867623448
1761336252679637800,3.0246376953125,-0.21352350821495056,-0.00562646157965064,-0.2045573442859575
1761336252689704700,3.03470458984375,-0.018769582399725912,0.01645414506420493,-0.2167529185902327
1761336252699770600,3.0447705078125,0.1537386093378067,0.016199878042191265,-0.14153755514081567
1761336252709837600,3.054837646484375,0.18794833745360373,0.014458222006633877,-0.030374022410437462
1761336252719903700,3.06490380859375,0.07775076367855072,-0.03255195097140968,0.008832819872908293
1761336252729970700,3.074970703125,-0.11831366021335124,-0.04789817132633179,0.012912928793393074
1761336252740036600,3.08503662109375,-0.24946049851477145,-0.048255314200930294,-0.0034960619548335668
1761336252750103800,3.095103759765625,-0.2419201661378145,-0.05714618440400809,-0.014134944869019091
1761336252760170800,3.105170654296875,-0.1193348199546337,-0.07239643357116729,-0.03162902744021266
1761336252770236400,3.115236328125,-0.03502455163002014,-0.10817512803673744,-0.030192163037508723
1761336252780303600,3.1253037109375,0.0061859951585531234,-0.11397365824766456,-0.038710290938057
1761336252790369500,3.13536962890625,0.026264322069287298,-0.08483695907983928,-0.06828804840426891
1761336252800436500,3.1454365234375,0.06962240228056907,-0.05242489150315523,-0.06899130130279808
1761336252810503700,3.155503662109375,0.08595920457541942,-0.03703983697518706,-0.02000792855564505
1761336252820569600,3.165569580078125,0.012005495092272759,-0.03084357615094632,0.025120778057351707
1761336252830636500,3.175636474609375,-0.06194061560630798,-0.043888314630463714,0.01693601029701531
1761336252840702500,3.185702392578125,-0.07672551228404044,-0.06728343793898821,-0.027423684704862533
1761336252850769400,3.195769287109375,-0.0503805261939764,-0.055500718751922244,-0.010919782214798033
1761336252860835600,3.205835693359375,-0.06281798296272754,-0.04793883213028311,-0.011874050732329488
1761336252870902500,3.215902587890625,-0.12096212889552116,-0.0508456594876945,0.0029711247652769086
1761336252880969500,3.225969482421875,-0.18102350662648678,-0.04905950672328472,0.01793123187944293
1761336252891035600,3.23603564453125,-0.16251111385822295,-0.04581928269304335,0.022134492255561054
1761336252901102600,3.2461025390625,-0.0491343255251646,-0.05814516884610057,-0.002242225968837738
1761336252911168500,3.25616845703125,0.06137070676386356,-0.03153020670823753,-0.037729536272399125
1761336252921235500,3.2662353515625,0.010897826111316681,-0.014416063365340232,-0.06467427835389972
1761336252931302700,3.276302734375,-0.05135843131542205,-0.007175663783028721,-0.04696275363974273
1761336252941368600,3.28636865234375,-0.09673720369935035,-0.020394334057345986,-0.022459815219789743
1761336252951435500,3.296435546875,-0.17999942427575588,-0.047461204681172965,-0.03970960417371243
1761336252961501700,3.306501708984375,-0.19278291800320146,-0.04411313636228442,-0.06187712191604077
1761336252971568600,3.316568603515625,-0.12792378460168838,-0.04768306727092713,-0.12409936747532337
1761336252981634600,3.326634521484375,-0.08750760306119919,-0.05310691895056516,-0.1462675428047776
1761336252991701500,3.336701416015625,-0.05294365468025207,-0.05728756563607603,-0.14001673878170548
1761336253001768700,3.346768798828125,-0.006613865181803703,-0.04838416474498808,-0.11994900633022189
1761336253011834600,3.356834716796875,0.025439561682939527,-0.0412060898091644,-0.1080945370811969
1761336253021901600,3.366901611328125,-0.009883680632710456,-0.0480636275537312,-0.05542933401614427
1761336253031967700,3.3769677734375,-0.07293956400454044,-0.07082432541623711,0.0366552946370095
1761336253042034700,3.38703466796875,-0.16487784298956393,-0.08262384960763156,0.07773611409869044
1761336253052101600,3.3971015625,-0.20817162579298018,-0.06667714260891079,0.05691489639878273
1761336253062167600,3.40716748046875,-0.16634090127944945,-0.040700259178876874,-0.003678323186561465
1761336253072234800,3.41723486328125,-0.10676701480448246,-0.014059614610485731,-0.06238419465534389
1761336253082300700,3.42730078125,-0.07674830863773822,-0.01833320027645677,-0.1293888521855697
1761336253092367600,3.43736767578125,-0.08309913896918296,-0.01518463658504188,-0.14947623918559402
1761336253102434600,3.4474345703125,-0.12559797200262546,0.0019630802338942883,-0.17502645816877482
1761336253112500700,3.457500732421875,-0.10664426520764828,-0.007074979887530208,-0.14614833687189965
1761336253122567700,3.467567626953125,0.008522913673520087,-0.015420198906585574,-0.03949420785736293
1761336253132633600,3.477633544921875,0.10510814168155193,-0.008269340771250426,0.008813274922221899
1761336253142700800,3.48770068359375,0.11281506279706954,-0.01553487479481846,0.024317791111394763
1761336253152766700,3.4977666015625,0.018635142365097997,-0.021819581087492407,0.0022860651105642317
1761336253162833700,3.507833740234375,-0.08281915298402309,-0.05702526143807918,-0.04260463149547577
1761336253172900600,3.517900634765625,-0.14039631268382072,-0.05726652284804731,-0.04490125453267246
1761336253182966800,3.527966796875,-0.16459434987306593,-0.06698441845979541,-0.03533712471053004
1761336253193033700,3.53803369140625,-0.13046177864670752,-0.06329714478179813,-0.020482012340798973
1761336253203099400,3.548099365234375,-0.08995733430087566,-0.03918400939702987,-0.016813954819925127
1761336253213166600,3.55816650390625,-0.09999942036569118,-0.03064250062089413,-0.06861706116292625
1761336253223233800,3.56823388671875,-0.04999591079056263,-0.017323913636058567,-0.07392258369252085
1761336253233299500,3.578299560546875,0.00718085141479969,-0.029680194927379486,-0.05772434961814433
1761336253243366700,3.58836669921875,0.04111994589567184,-0.03961779770441353,-0.021539814298041162
1761336253253432600,3.5984326171875,-0.025997780087590214,-0.053426433228515084,0.0556522925844416
1761336253263499500,3.60849951171875,-0.11619126123189925,-0.10778422902300953,0.055332339915074406
1761336253273565400,3.6185654296875,-0.11079670871198177,-0.12508596735987812,-0.012243797360174356
1761336253283632600,3.628632568359375,-0.072261518612504,-0.11115984293594956,-0.05407872312478721
1761336253293699600,3.638699462890625,-0.036406361377239224,-0.11132431278266013,-0.03463818266093731
1761336253303765500,3.648765625,-0.01780687484741211,-0.09496431227531284,0.011643566444702446
1761336253313832400,3.65883251953125,-0.01650748268663883,-0.08361910772267729,-0.012656177553348243
1761336253323898600,3.668898681640625,-0.05399579408168793,-0.06888287249226123,-0.0315671777177602
1761336253333965600,3.678965576171875,-0.15454583406746386,-0.058394869290851054,-0.04056096030604094
1761336253344032500,3.689032470703125,-0.1770171935945749,-0.0690541374059394,-0.058921706176549196
1761336253354098400,3.699098388671875,-0.048531683456897734,-0.06997085039205848,-0.03591631283797324
1761336253364165600,3.70916552734375,0.11623510037362575,-0.05255140395965427,-0.019637962732091545
1761336253374232300,3.719232421875,0.1893091044127941,-0.06168978265039622,0.0001486512230709195
1761336253384299300,3.72929931640625,0.15915478916764259,-0.08028097627591341,0.007633344422653317
1761336253394366500,3.739366455078125,0.06727554689347744,-0.08862685288209468,0.03526709168162197
1761336253404432400,3.749432373046875,0.05292787258923053,-0.1348111329626292,0.0482810331640765
1761336253414499300,3.759499267578125,0.3225783416956663,-0.24855733912996947,0.01103358132019639
1761336253424565200,3.769565185546875,0.22378245190083978,-0.08959960690438747,0.05893277555983513
1761336253434632200,3.779632080078125,0.030558804392814633,-0.09710881349071859,-0.01625646706763655
1761336253444698400,3.789698486328125,-0.15062544575333595,-0.13613039886765183,-0.03399053240716457
1761336253454765300,3.799765380859375,-0.2805219917327165,-0.13894516402743756,0.016928082718886434
1761336253464832300,3.809832275390625,-0.349265273091197,-0.12321750660687684,0.0245408227449283
1761336253474898400,3.8198984375,-0.34274668497741223,-0.13195209026969967,0.022220161245018244
1761336253484965400,3.82996533203125,-0.3181646169066429,-0.1110433769494295,0.022293628340028224
1761336253495031300,3.84003125,-0.3090361385554075,-0.10146255172081291,-0.013535371540673077
1761336253505098200,3.85009814453125,-0.24753449888825416,-0.11969627367816865,-0.015374898460134862
1761336253515165400,3.86016552734375,-0.15941957758367062,-0.12061901454627513,0.032573760944418606
1761336253525231400,3.8702314453125,-0.13783435324132443,-0.0964290145330131,0.0019957769270986317
1761336253535298300,3.88029833984375,-0.12243980023264885,-0.05360781767740845,-0.07322985218800604
1761336253545364500,3.890364501953125,-0.03252572055160999,-0.046342941240966315,-0.07903996323887258
1761336253555431400,3.900431396484375,0.009269348126649856,-0.08137976783066987,-0.07834277475494891
1761336253565497300,3.910497314453125,-0.02482522917687893,-0.08074417334087193,-0.039350013613700864
1761336253575564300,3.920564208984375,-0.09362637820243835,-0.0642374213065952,0.009856683027930557
1761336253585631500,3.930631591796875,-0.1647615231335163,-0.07430069628991186,0.02162964800596237
1761336253595697400,3.940697509765625,-0.13155425005853175,-0.08488339203745127,0.02412592180110514
1761336253605764400,3.950764404296875,-0.028302549898624418,-0.08314239358901977,0.04662303682398051
1761336253615830500,3.96083056640625,0.06577098754942416,-0.0873551159132272,0.057740716231055554
1761336253625897500,3.9708974609375,0.08918401184082031,-0.07801723259501159,0.06192585642859339
1761336253635964400,3.98096435546875,0.04732990645170212,-0.04106375872902572,0.04424509217888117
1761336253646030300,3.9910302734375,-0.07203998481631278,-0.03940393575802445,0.0003928717751055956
1761336253656097500,4.00109765625,-0.182272629904747,-0.06507058419510722,-0.03382478391882032
1761336253666163500,4.01116357421875,-0.23773089775443076,-0.07278627313897013,0.00011405483372509478
1761336253676229400,4.0212294921875,-0.19325287360250948,-0.07206658056229352,0.006482238158769906
1761336253686295600,4.031295654296875,-0.09074526980817317,-0.0705696930680424,0.000100135906226933
1761336253696362500,4.041362548828125,-0.02088672068417072,-0.0648719928830862,0.013213080783747135
1761336253706429400,4.051429443359375,0.025317396607995032,-0.051734790347144004,0.02356492691747844
1761336253716495400,4.061495361328125,0.03263970232009888,-0.038383506669104096,-0.0071313862498849625
1761336253726562600,4.0715625,0.02982522942125797,-0.01803410773202777,-0.05111110549084842
1761336253736628200,4.081628173828125,0.04631225384175777,-0.021000556322187183,-0.05887808623053133
1761336253746695200,4.091695068359375,0.030267712491750715,-0.03795132579691708,-0.0639437355896458
1761336253756762600,4.1017626953125,-0.012345102310180663,-0.03168357063904404,-0.036008192372508345
1761336253766828300,4.111828369140625,-0.10792436814606189,-0.016368293411657214,-0.027487068797275423
1761336253776895200,4.121895263671875,-0.09638006082475185,-0.1031670906163752,-0.10610146356783806
1761336253786961400,4.13196142578125,0.09848960032463074,-0.15202647165767846,-0.1565394921027124
1761336253797028400,4.1420283203125,-0.1062555581510067,0.12127521343268453,0.015068426326848565
1761336253807094300,4.15209423828125,-0.3256587720543146,0.024334157724305985,0.042818895300664
1761336253817161200,4.1621611328125,-0.332508199557662,-0.10949965463876724,0.0647882966550067
1761336253827228400,4.172228515625,-0.20190730470120904,-0.10923917707167566,0.06143237382322549
1761336253837294300,4.18229443359375,-0.09578443301916122,-0.0818983848772943,-0.028501944928243754
1761336253847361300,4.192361328125,-0.07622048537135123,-0.05295695255324244,-0.08566241358593106
1761336253857427500,4.202427490234375,-0.05879705688357353,-0.04114274224936962,-0.10786781565323471
1761336253867494400,4.212494384765625,-0.047559039032459255,-0.046946533157303925,-0.12247848827522247
1761336253877561300,4.222561279296875,-0.062222355157136915,-0.04956190328747034,-0.11683825389854609
1761336253887627300,4.232627197265625,-0.06266366918385029,-0.035934213820844885,-0.07847462097369134
1761336253897694500,4.242694580078125,-0.07362871531248093,-0.02075615310706198,-0.03227382814977318
1761336253907760400,4.252760498046875,-0.11284896506667136,-0.04040777903832495,-0.05498725280445069
1761336253917827300,4.262827392578125,-0.053170449173450464,-0.04654825455471873,-0.05681717164535075
1761336253927894300,4.272894287109375,0.059353521722555154,-0.04390555802620947,-0.03368197791464626
1761336253937960400,4.28296044921875,0.1354693776756525,-0.06520100564174354,0.012500658198073505
1761336253948027400,4.29302734375,0.11143266852796077,-0.10179653291553259,0.07773549304418266
1761336253958093300,4.30309326171875,0.055797875067591665,-0.1233981969360262,0.04981876412536949
1761336253968160500,4.313160400390625,0.029152444726228712,-0.11267865000106393,-0.01415675484202802
1761336253978226400,4.323226318359375,0.10630641155540943,-0.11294015048146247,0.010585508759133517
1761336253988293400,4.33329345703125,0.12240005274415015,-0.10013276442177593,0.04047474332731217
1761336253998360300,4.3433603515625,-0.06282441270351409,-0.07572729502692818,0.005543167210370302
1761336254008426500,4.353426513671875,-0.1934130326002836,-0.10156213963776826,-0.04540540466252714
1761336254018493400,4.363493408203125,-0.43018122280240056,-0.10794555706456303,-0.052095330755226314
1761336254028559400,4.373559326171875,-0.430301634311676,-0.13317622523717582,-0.08218450834229588
1761336254038626600,4.38362646484375,-0.213918060490489,-0.11962678863853216,-0.09044131842553615
1761336254048692500,4.3936923828125,0.02750993821620941,-0.12718655636832119,-0.04287128307502717
1761336254058759400,4.403759521484375,0.12936638462543487,-0.12211714414954185,0.014557225401699542
1761336254068826400,4.413826416015625,0.09363573055267334,-0.07945493724793196,0.032000271905399856
1761336254078893300,4.423893310546875,-0.02301788749396801,-0.05860467611663043,0.015424838549084961
1761336254088959500,4.43395947265625,-0.1298795948445797,-0.040249958128109574,-0.008887837995775043
1761336254099026400,4.4440263671875,-0.1487239960461855,-0.036160496857389805,-0.049432322091050446
1761336254109092400,4.45409228515625,-0.08693477160930634,-0.03204370918832719,-0.12633885349780322
1761336254119159600,4.46415966796875,-0.07442483412623405,-0.051446328794583676,-0.127926086156629
1761336254129226500,4.4742265625,-0.11276187130510806,-0.062038596088066694,-0.060326641071029
1761336254139292400,4.48429248046875,-0.11563830352425575,-0.07664455600231886,-0.02340403726734221
1761336254149359400,4.494359375,-0.08880173452496529,-0.04960939569100737,-0.011046038942970335
1761336254159425500,4.504425537109375,-0.10974223122298717,-0.02122019042223692,-0.01973298407178372
1761336254169492500,4.514492431640625,-0.10137246228456497,0.005577800132334232,-0.0983969170724973
1761336254179558400,4.524558349609375,-0.07180149988532065,0.0044329409461468456,-0.1514110797056928
1761336254189625600,4.53462548828125,-0.055770402538776395,-0.009138853614777327,-0.10143153552804142
1761336254199692500,4.544692626953125,-0.09062018212378024,-0.018650339934229848,-0.021677944127097726
1761336254209758200,4.55475830078125,-0.11674831059277056,-0.0378556103374809,-0.005895633909851312
1761336254219825400,4.564825439453125,-0.12682839058041573,-0.050853988924622534,0.006457761304639279
1761336254229891300,4.574891357421875,-0.08497837684452533,-0.039070173759013414,-0.00226768920365721
1761336254239958300,4.584958251953125,-0.048966567742824554,-0.0049099108081310985,-0.03517586973421275
1761336254250025500,4.595025390625,-0.09688158060610294,0.03749050335213542,-0.043649537438526745
1761336254260091400,4.60509130859375,-0.1448112065166235,0.04817797464840114,-0.09101882605254649
1761336254270158300,4.615158447265625,-0.17286065843701362,0.002957096239924431,-0.12679010439664123
1761336254280224300,4.625224365234375,-0.21227555398046968,-0.05728774829916656,-0.07491630743760615
1761336254290291200,4.635291259765625,-0.18393968633413313,-0.09700703361667692,-0.051301184702850874
1761336254300357400,4.645357421875,-0.18204641993343829,-0.07321370477080345,-0.08366879208330065
1761336254310424300,4.65542431640625,-0.24351707994043825,-0.060665334973484274,-0.08274137504007667
1761336254320491300,4.6654912109375,-0.32419629828631874,-0.05311638089865446,-0.0506100606335327
1761336254330557400,4.675557373046875,-0.3398889574587345,-0.025298984168469905,-0.04153667347040027
1761336254340624400,4.685624267578125,-0.4181225362181663,0.15494805819280444,0.05897248651571572
1761336254350690300,4.695690185546875,-0.5994488251835107,0.4722528433997184,0.3552375524338335
1761336254360757200,4.70575732421875,-0.78509297734797,0.426002768073976,0.5133826165696606
1761336254370824400,4.715824462890625,-1.0029530534625053,0.23436237116940317,0.5056907834254205
1761336254380890400,4.725890380859375,-1.1196201155126093,0.0069358636777848,0.33917299120910466
1761336254390957300,4.735957275390625,-1.113026124075055,-0.18622772420607506,0.05666881268322468
1761336254401023500,4.7460234375,-1.0393237590044737,-0.29648828021474183,-0.20565211725272237
1761336254411090400,4.75609033203125,-1.006495256114006,-0.4425516056843102,-0.4291696711396798
1761336254421156400,4.76615625,-1.119026241272688,-0.5701202567053958,-0.5983906213674693
1761336254431223300,4.776223388671875,-1.3607663746684788,-0.48937827532161027,-0.6678701811112463
1761336254441290500,4.78629052734375,-1.514470497214794,-0.399696616156958,-0.6164619193047285
1761336254451356400,4.7963564453125,-1.573030238211155,-0.42197588717807083,-0.519672656624578
1761336254461423400,4.80642333984375,-1.5296324105113743,-0.39635877697113897,-0.3373963369254023
1761336254471489500,4.816489501953125,-1.3435323312729597,-0.3646822205947712,-0.1907254009515047
1761336254481556500,4.826556396484375,-1.1120043798118828,-0.39254769425038244,-0.15251012698877603
1761336254491623400,4.83662353515625,-0.8192021676987409,-0.28399127527847884,-0.24417000915752723
1761336254501689300,4.846689453125,-0.5104752412229776,-0.12687734428867697,-0.219374133939296
1761336254511756500,4.856756591796875,-0.027634441378712654,-0.011395327304676175,-0.04652838081046939
1761336254521822500,4.866822509765625,0.5326064090102911,0.018411252215038983,0.2031524459240958
1761336254531889400,4.876889404296875,0.9781506206393241,0.014599146580975502,0.4570304686201736
1761336254541955600,4.88695556640625,1.3245114044606685,0.0306667491461616,0.5731439884407445
1761336254552022500,4.8970224609375,1.5570622692286968,0.10675766245424746,0.5926594573043287
1761336254562089500,4.90708935546875,1.5852321326583623,0.13027667700392193,0.6099788408957422
1761336254572155100,4.917155029296875,1.4739964480072258,0.14723175732758825,0.5843255999295041
1761336254582222300,4.927222412109375,1.3765391133397817,0.2619687189647928,0.495406120776385
1761336254592288300,4.937288330078125,1.256469549369812,0.41088279422298074,0.408364016335085
1761336254602355200,4.947355224609375,1.0670675059765578,0.571615792492777,0.39161114405263214
1761336254612422400,4.95742236328125,0.8396417291373014,0.6436104768626392,0.38064419822786
1761336254622488300,4.96748828125,0.4027086939871311,0.5253087993480264,0.35623993440940976
1761336254632555300,4.97755517578125,-0.08129471989572047,0.3258851646887138,0.19976799111757426
1761336254642621200,4.98762109375,-0.343905207362771,0.1778386295126751,-0.09303425752818584
1761336254652688400,4.9976884765625,-0.4051642704457044,0.03727864156658761,-0.4213446766024455
1761336254662754300,5.00775439453125,-0.3241419377505779,-0.03942016537361778,-0.6398842228811233
1761336254672821200,5.0178212890625,-0.21178397107124328,-0.04480000438159332,-0.6608277152538299
1761336254682888200,5.02788818359375,-0.24527824439406393,-0.08258228462138213,-0.5390596768029033
1761336254692954400,5.037954345703125,-0.3381622797966003,-0.014492165375431068,-0.35555962399505076
1761336254703021300,5.048021240234375,-0.3118938660740852,0.05937949184745084,-0.24414275582442058
1761336254713087200,5.058087158203125,-0.13635492833852766,0.017937378492439166,-0.17771692109545692
1761336254723154400,5.068154541015625,0.14499240830242632,-0.09146805852423422,-0.1923685650486499
1761336254733221400,5.078221435546875,0.5279103601485491,-0.17404257996426895,-0.26604040711680427
1761336254743287300,5.088287353515625,0.865795576569438,-0.23662439781725406,-0.3565393557474017
1761336254753354200,5.098354248046875,1.166738425040245,-0.24830515446718782,-0.4202428893730044
1761336254763420400,5.10842041015625,1.4501327573388814,-0.13059066572338343,-0.39387174592837687
1761336254773487400,5.1184873046875,1.5650784024238587,0.15129692440726794,-0.1466912572427187
1761336254783553300,5.12855322265625,1.2933634020030498,0.2492080763899721,-0.04147403829665854
1761336254793620200,5.1386201171875,1.1324568007320166,0.11271248833858408,-0.1101574700935278
1761336254803687400,5.1486875,0.8353624443829059,-0.033879062256170434,-0.040205479665566236
1761336254813753300,5.15875341796875,0.3735656016111374,-0.07444930641378741,0.025229882721323517
1761336254823820300,5.1688203125,-0.04590016590952873,0.001925177642609924,-0.00017223302805796265
1761336254833886500,5.178886474609375,-0.25093816985189915,0.049890505054173986,-0.08808677292233333
1761336254843953400,5.188953369140625,-0.26543781984746456,0.05174644425231963,-0.24720479200985282
1761336254854020400,5.199020263671875,-0.13646014227867126,0.0016952801601612009,-0.3560912466537207
1761336254864086300,5.209086181640625,0.11155424908101558,-0.03629193208417855,-0.4160261849934235
1761336254874153500,5.219153564453125,0.345244347012043,-0.04799444390819408,-0.4173754076452926
1761336254884219400,5.229219482421875,0.4025537956863641,-0.026438728788122534,-0.3301540376469493
1761336254894286300,5.239286376953125,0.4393769211709499,-0.04690179896643385,-0.19726397240739316
1761336254904352500,5.2493525390625,0.5382850391685963,-0.024931093854282514,-0.10264697573240845
1761336254914419500,5.25941943359375,0.6397796665281057,-0.040262351818801834,-0.055000285815959796
1761336254924486400,5.269486328125,0.6958943524599075,-0.07134162272203247,-0.02940156978224404
1761336254934552300,5.27955224609375,0.5884855326205491,-0.030821183939336333,0.019938475482049398
1761336254944619500,5.28961962890625,0.4487392082780599,0.017094997967721428,0.08033017657934688
1761336254954685400,5.299685546875,0.3864706758916378,0.0336468723519356,0.12019019467495382
1761336254964752400,5.30975244140625,0.35542847189605237,0.0012115791632910258,0.06180559104979038
1761336254974818600,5.319818603515625,0.40424832464456556,0.01401730070556514,-0.036932796404138206
1761336254984885500,5.329885498046875,0.49312020179629323,0.03408032273260178,-0.13914161818129941
1761336254994952400,5.339952392578125,0.6268243233650922,-0.013311960881226695,-0.13645384040204808
1761336255005018000,5.35001806640625,0.7649994528681039,0.01532861619957257,-0.05395500541357323
1761336255015085600,5.36008544921875,0.9135597827851771,0.0864576373505406,0.04109448266085237
1761336255025151200,5.370151123046875,1.1308750844985247,0.14729701371667905,0.11356441985964774
1761336255035218200,5.38021826171875,1.3347089733481405,0.24366516490792856,0.1433524590756744
1761336255045285400,5.390285400390625,1.4423533555090426,0.36455410070307553,0.19186035979818553
1761336255055351300,5.400351318359375,1.3549609032601118,0.36177754866182804,0.3711138610774651
1761336255065418200,5.410418212890625,0.9769353996306657,0.24914215328060088,0.49858372789919375
1761336255075484200,5.420484130859375,0.6186340026468038,0.1896189375469461,0.4759394960232079
1761336255085551400,5.43055126953125,0.43353287131786344,0.19287488886928184,0.294184350653924
1761336255095617300,5.4406171875,0.336381826120615,0.11528444858528673,0.10254135993346572
1761336255105684200,5.450684326171875,0.1906903296381235,0.005716240488644689,-0.031259609605930744
1761336255115751200,5.460751220703125,-0.016329203510284423,-0.021655878425762057,-0.09757204708829521
1761336255125817300,5.4708173828125,-0.360867448079586,-0.06707593266814947,0.007653583493083715
1761336255135884300,5.48088427734375,-0.7427268307834863,-0.06706139268614351,0.16166848902162165
1761336255145950200,5.4909501953125,-0.9972639019101858,-0.023920060498081146,0.15698285195603967
1761336255156017400,5.501017333984375,-1.7880460308104753,-0.13983937292080373,-0.37561109943147747
1761336255166084400,5.51108447265625,-3.6984511978328225,-0.5725239933788776,-1.7099276028633117
1761336255176150300,5.521150390625,-3.1404373758435247,-0.95784842184484,-1.3447881765529512
1761336255186217200,5.53121728515625,-2.82712545966506,-1.6295175568476319,-0.07795945625947788
1761336255196283400,5.541283447265625,-3.132320704883337,-0.7961928288374096,0.9245259979575872
1761336255206350300,5.551350341796875,-2.970665331071615,0.1547189256120473,0.762865290383622
1761336255216416300,5.561416259765625,-2.366358544462919,0.2903811955112964,0.2866869075706228
1761336255226483500,5.5714833984375,-1.5831477275997399,0.03128529203645885,0.007279946141410618
1761336255236550400,5.58155029296875,-0.7088058564811944,-0.07283705347813665,0.021830056815734133
1761336255246616300,5.5916162109375,-0.02567395496070385,-0.16465601693242787,0.18452515807189046
1761336255256683300,5.601683349609375,0.366844768923521,-0.12867241101190446,0.2094949102859944
1761336255266749400,5.61174951171875,0.49730245591700073,-0.013450433203577994,0.07959688473558053
1761336255276816400,5.62181640625,0.500313912692666,0.039134617297351355,-0.13647574170660226
1761336255286882300,5.63188232421875,0.49159401514232154,0.024536256167665124,-0.3421239865018055
1761336255296949500,5.641949462890625,0.4701432308346033,0.02383300326913595,-0.3593829816754907
1761336255307016400,5.652016357421875,0.3619353695720434,-0.011313055848702788,-0.20786520845862105
1761336255317082400,5.662082275390625,0.2321960599809885,-0.02244249875880778,-0.01728624850679189
1761336255327149300,5.6721494140625,0.10643208376169204,-0.02372114039249718,0.07891441889675334
1761336255337215500,5.682215576171875,-0.034492636710405346,-0.03136054922975599,0.11579301916193216
1761336255347282400,5.692282470703125,-0.20854396623671054,0.00014554595053195953,0.09800167067721485
1761336255357349400,5.702349365234375,-0.3384469419568777,-0.0002107201412320137,0.07026528502767905
1761336255367415600,5.71241552734375,-0.34662148058414455,-0.011120894277468324,0.09314418417606503
1761336255377482000,5.72248193359375,-0.2445996144801378,-0.024577172699943185,0.08986819471269845
1761336255387548000,5.7325478515625,-0.11277005461156367,-0.050992009155824775,0.0596940422559157
1761336255397614800,5.74261474609375,-0.011035773277282715,-0.062477937353402374,0.07362109826160594
1761336255407680800,5.7526806640625,0.00841653068959713,-0.06205781224519014,0.09096344260349869
1761336255417747700,5.762747802734375,-0.042103696236014364,-0.03802826349064708,0.0835963113689795
1761336255427815000,5.77281494140625,-0.07170330020785332,-0.006782061355561018,0.06506325940517708
1761336255437880800,5.782880859375,-0.051073184633255005,-0.031333880418539045,0.05566288704369217
1761336255447947800,5.79294775390625,-0.04323416157066822,-0.07396693429090082,0.06349515157192945
1761336255458013700,5.803013671875,-0.0767237587183714,-0.11193996046297251,0.07068268845584243
1761336255468080600,5.81308056640625,-0.1647451565206051,-0.1278928780067712,0.04941571801612153
1761336255478147800,5.82314794921875,-0.21233225260376928,-0.1155124121222645,0.01120937627851963
1761336255488213800,5.8332138671875,-0.20557985573410986,-0.06901274594962596,-0.029498116358742117
1761336255498280700,5.84328076171875,-0.0920598595380783,-0.024265622532740234,-0.06492986055016517
1761336255508347000,5.853346923828125,0.0981248586654663,-0.007635536379739642,-0.12441544768717139
1761336255518413800,5.863413818359375,0.23494681999385356,-0.0007248802084475755,-0.1385811712869443
1761336255528479700,5.873479736328125,0.2207195571988821,-0.012372794034704565,-0.09064886022899299
1761336255538546700,5.883546630859375,0.10900807172954081,-0.08407046821936964,-0.08000201320406049
1761336255548614000,5.89361376953125,-0.0427425786614418,-0.10647197738066315,-0.11103627135520801
1761336255558679800,5.9036796875,-0.1503098039329052,-0.09335318728424608,-0.13795832668086513
1761336255568746800,5.913746826171875,-0.19048399341106415,-0.09209814572185278,-0.08352507276367396
1761336255578813000,5.92381298828125,-0.18118015849292277,-0.09523439792096615,0.020331735416222362
1761336255588880000,5.9338798828125,-0.12933423592150212,-0.0876488381627947,0.06351979282284155
1761336255598946800,5.94394677734375,-0.06105214233398437,-0.08612652396634221,0.015839776025526223
1761336255609012700,5.9540126953125,-0.05335749617815017,-0.06126154730096459,-0.030916257794667033
1761336255619080000,5.964079833984375,0.005846387940645218,-0.06344217927567661,-0.06561921278750524
1761336255629145900,5.974145751953125,0.06798164933621884,-0.06906060367934405,-0.08850729988934472
1761336255639212800,5.984212890625,0.05205576592981815,-0.0954494289111346,-0.033694910461455584
1761336255649279000,5.994279052734375,0.007270867785811424,-0.11521167561002076,0.040231509155966336
1761336255659346000,6.004345947265625,-0.042564884006977076,-0.16224267218038438,0.034537096906639635
1761336255669412900,6.014412841796875,-0.1486234582811594,-0.08516644676253199,0.04603906292356551
1761336255679478800,6.024478759765625,-0.22225860333442687,-0.0777560974407941,0.009631386372074485
1761336255689546000,6.0345458984375,-0.26587387317717076,-0.0414342725418508,-0.00947250601593405
1761336255699612000,6.04461181640625,-0.23565993669927118,-0.055682358929142355,-0.0014327727494761347
1761336255709678800,6.054678955078125,-0.13837678955495356,-0.055659635640680785,0.004277750384435057
1761336255719745000,6.0647451171875,-0.06414367860853672,-0.03289784179963171,-0.03475603688694536
1761336255729812000,6.07481201171875,-0.026074352455139158,-0.007414002583548426,-0.07589634971721097
1761336255739879000,6.08487890625,0.010352467188239097,-0.03963642933964729,-0.11550205512503162
1761336255749944800,6.09494482421875,0.07481704831421375,-0.044035321885719896,-0.0550818357527256
1761336255760012000,6.105011962890625,0.051098319074511525,-0.05818469713889062,0.012005586423818021
1761336255770078000,6.115077880859375,0.05748071358799934,-0.04553637409843504,-0.038153058914095164
1761336255780145000,6.125144775390625,-0.02024900730252266,-0.11087737273275852,-0.05603853368936106
1761336255790211000,6.135211181640625,-0.06071604224741459,-0.18090879420563577,-0.030621202104538676
1761336255800278000,6.145278076171875,-0.0729717127084732,-0.0808108088362962,-0.036100747760478405
1761336255810345000,6.155344970703125,-0.15052899964153765,-0.08562792679443955,-0.07135089744045399
1761336255820411000,6.165410888671875,-0.2545510996520519,-0.07833937722146511,-0.04380082814325578
1761336255830478000,6.17547802734375,-0.32940789545476434,-0.08336714225560427,-0.023676369669009
1761336255840543700,6.185543701171875,-0.2468611296713352,-0.10153495936989784,0.017997374184522776
1761336255850611000,6.19561083984375,-0.1177010812729597,-0.1023130310703069,0.06642511320975608
1761336255860678000,6.205677978515625,-0.023790040910243986,-0.12623393181860446,0.06988986671087331
1761336255870743800,6.215743896484375,-0.006242693781852722,-0.14933248333334923,0.04851368200932629
1761336255880810800,6.225810791015625,-0.030113983234763143,-0.1257940790966153,-0.043797412343462926
1761336255890876700,6.235876708984375,-0.07683364883363246,-0.12955591584816575,-0.22651545706130563
1761336255900944000,6.24594384765625,-0.0786620333045721,-0.1551706149023026,-0.4575064886340871
1761336255911009800,6.256009765625,-0.035707857719063756,-0.11935272093750536,-0.5001746138198301
1761336255921076700,6.26607666015625,0.09498305350840092,-0.13673296787068248,-0.32858894375469533
1761336255931143700,6.276143798828125,0.10140870264172554,-0.050162937920540565,-0.027567413157643748
1761336255941209900,6.2862099609375,-0.08027940537333488,-0.07474602890461683,0.15852242781454695
1761336255951276800,6.29627685546875,-0.26579846985340116,-0.08416428398266435,0.22123108691759405
1761336255961342700,6.3063427734375,-0.31249417005479335,-0.03207622321844101,0.22096123873395843
1761336255971410000,6.316409912109375,-0.21626374683380126,0.0011811726085841656,0.21286398486029356
1761336255981475800,6.326475830078125,-0.0980553005605936,0.01397292270772159,0.22236940676514058
1761336255991542800,6.336542724609375,-0.019352350723743438,-0.014273440024256706,0.2112485672865994
1761336256001609700,6.346609619140625,-0.05076163446605205,-0.06208747673109173,0.19439371420070528
1761336256011676000,6.356676025390625,-0.15440437977015972,-0.058557183713093396,0.13347331762076356
1761336256021742800,6.366742919921875,-0.22675123857855795,0.033902854123711586,0.05855628866394982
1761336256031808800,6.376808837890625,-0.23428163408339023,0.0019521569810807705,-0.006593827040772885
1761336256041875700,6.386875732421875,-0.14635551334917543,-0.03907390008606016,-0.03426881962558254
1761336256051943000,6.39694287109375,-0.027460838377475736,-0.019895736885443327,-0.0584481886469759
1761336256062008800,6.4070087890625,0.09508592936098575,-0.0258302415009588,-0.1013538306493312
1761336256072075800,6.41707568359375,0.23665479295551775,-0.05051576994620263,-0.1661773995471187
1761336256082142000,6.427141845703125,0.27629005325138567,-0.09260076148174702,-0.210187568725273
1761336256092209000,6.437208984375,0.23715280560553073,-0.08433496437445283,-0.12665593835664912
1761336256102274800,6.44727490234375,0.16624094803631304,-0.09106558780372143,-0.02036972933905199
1761336256112341800,6.457341796875,0.03855857097506523,-0.08897935611419379,0.05347699437197297
1761336256122409000,6.467408935546875,-0.1351286014139652,-0.05407229338400066,0.046049721314897755
1761336256132475000,6.477474853515625,-0.2751087345123291,-0.03228774707727134,-0.0066026405348908156
1761336256142541800,6.487541748046875,-0.30820611747205257,-0.048957069262117146,-0.05279430933743715
1761336256152608000,6.49760791015625,-0.22733985212147234,-0.05848521445542573,-0.027119066601945085
1761336256162675000,6.507675048828125,-0.12180384041666983,-0.03414923010021448,-0.011169062534440308
1761336256172740900,6.517740966796875,-0.02663841607868671,-0.011789075862616299,-0.011693753128824754
1761336256182807800,6.527807861328125,0.006797989577054977,-0.004878638887032866,-0.030126979713654144
1761336256192875000,6.537875,0.01637771882712841,-0.02638780231848359,-0.05415941454502753
1761336256202941000,6.54794091796875,-0.026158523607254028,-0.07340586634203791,-0.01228250366905704
1761336256213008000,6.5580078125,-0.1436608674377203,-0.09033449705019593,-0.0064731141373980785
1761336256223074000,6.568073974609375,-0.22925299226641654,-0.10870404728166759,-0.040643542289268225
1761336256233141000,6.57814111328125,-0.24489245994687078,-0.11074651289470493,-0.07078587483568116
1761336256243208000,6.5882080078125,-0.1904594434916973,-0.10804952889569103,-0.09793717233994975
1761336256253273900,6.59827392578125,-0.08955985941588879,-0.07898293582201003,-0.09170609593065455
1761336256263341000,6.608341064453125,0.002505260819196701,-0.058422451417520636,-0.12506335366927088
1761336256273406700,6.61840673828125,0.0063338791966438285,-0.038675475353002545,-0.08874297180874273
1761336256283474000,6.628473876953125,-0.004551671954989433,-0.03723872054815292,-0.09691502621797844
1761336256293539800,6.638539794921875,0.003683656948804855,-0.040894612707197665,-0.1523094167849049
1761336256303606800,6.648606689453125,0.03326397169828415,-0.05995316811613738,-0.1880221150758676
1761336256313673700,6.658673828125,0.08161445336937904,-0.04632379814907908,-0.15556354147633536
1761336256323739600,6.66873974609375,0.1395703832536936,-0.038919805502891536,-0.08342663562418892
1761336256333806800,6.678806884765625,0.12963409565091133,-0.033746348387748,-0.07029737893268466
1761336256343872800,6.688872802734375,0.0033212533771991726,-0.04699197973422706,-0.04856134794279933
1761336256353939700,6.698939697265625,-0.18587270022332666,-0.06818287099674343,0.006187036338169127
1761336256364006000,6.709005859375,-0.2762532283723354,-0.06728248809091747,-0.03723837348828092
1761336256374073300,6.7190732421875,-0.2836252184450626,-0.048016135150194164,-0.029666294266190378
1761336256384140300,6.729140380859375,-0.16398235545456408,-0.028731881226599216,0.015630718118418006
1761336256394206200,6.739206298828125,-0.02807809349298477,-0.02612520585954189,0.029932215193379668
1761336256404273200,6.749273193359375,0.05986380933225154,-0.0027921149365603922,-0.05806795715773478
1761336256414339300,6.75933935546875,-0.00785831228494644,0.017621873669326306,-0.1791959441394545
1761336256424406300,6.76940625,-0.09027180707752704,0.024901655413955448,-0.244309253231436
1761336256434473200,6.77947314453125,-0.08005845609903335,0.0026722148839384316,-0.1721128540107049
1761336256444539400,6.789539306640625,-0.05367547608613968,-0.018613661185652018,-0.06715975676039233
1761336256454606300,6.7996064453125,-0.03838613701760769,-0.018876476840302348,0.006822174170240759
1761336256464672300,6.80967236328125,0.006979775884747505,-0.018069617436826228,0.018278127354662863
1761336256474739200,6.8197392578125,0.05678688610494136,-0.04429382669143379,0.006635894350521266
1761336256484805400,6.829805419921875,0.07263561262190342,-0.061819619575142856,-0.026194015045743434
1761336256494872300,6.839872314453125,0.07587035675942898,-0.08998100743740796,-0.003127411305531859
1761336256504939300,6.849939208984375,0.0007668927192687987,-0.08216266183666884,0.02743270826153457
1761336256515005400,6.86000537109375,-0.14069967954456805,-0.11567432468570768,-0.005342128212936222
1761336256525072400,6.870072265625,-0.23651509222388267,-0.13957761671207844,-0.08082072744211181
1761336256535138300,6.88013818359375,-0.2667483179241419,-0.15715521284826098,-0.08687894976884127
1761336256545205200,6.890205322265625,-0.26155951710939407,-0.1330065677586943,-0.03666159651363268
1761336256555271400,6.900271484375,-0.16529869875013828,-0.13032675409018993,-0.015223434225469826
1761336256565338400,6.91033837890625,-0.027478374034166333,-0.10533734732754528,-0.010460201879031955
1761336256575405300,6.9204052734375,0.04935702836513519,-0.10891228320486843,0.01870305650215596
1761336256585471500,6.930471435546875,0.06236848562955856,-0.10913389006629585,0.06709036305230111
1761336256595538400,6.940538330078125,0.008328267884254455,-0.10265760672427714,0.12716180551955475
1761336256605604400,6.950604248046875,-0.08242693879604339,-0.08540244747549294,0.16708419392742216
1761336256615671300,6.96067138671875,-0.14358254150450228,-0.08248619470261037,0.15264949892684818
1761336256625737500,6.970737548828125,-0.23442016577124594,-0.09389153194464743,0.10548826357293874
1761336256635804400,6.980804443359375,-0.2843710683763027,-0.13989968827329574,0.016155198650248347
1761336256645871400,6.990871337890625,-0.18771102156639097,-0.15441935814358293,-0.04922503601592034
1761336256655937500,7.0009375,-0.03520692245960235,-0.14664222133606672,-0.11082352365367114
1761336256666004500,7.01100439453125,0.10915186411440372,-0.15726298407167194,-0.1493154956659302
1761336256676070400,7.0210703125,0.14072656755149363,-0.15476466444991527,-0.10953257052768021
1761336256686137300,7.031137451171875,0.09464987603127956,-0.15319076619669794,-0.09441354652475566
1761336256696203500,7.04120361328125,0.010106383472681045,-0.11611768453903495,-0.17680548707265406
1761336256706270500,7.0512705078125,-0.03293137874305248,-0.09994798243939876,-0.25841208592914044
1761336256716337400,7.06133740234375,-0.10124269842505454,-0.08496237555779516,-0.20659502412602304
1761336256726403300,7.0714033203125,-0.18144611595273016,-0.05366612373590469,-0.11952983107008039
1761336256736470500,7.081470458984375,-0.1217272680491209,-0.024744345960393547,-0.00575337589494884
1761336256746536200,7.0915361328125,-0.012436872246861456,-0.020054507643729447,0.08074589037392288
1761336256756603100,7.10160302734375,0.030815994024276733,-0.051328182307630775,0.09545706422831862
1761336256766670600,7.111670654296875,-0.01923603086769581,-0.06053798226676881,0.09619100452605635
1761336256776736300,7.121736328125,-0.11163958927690983,-0.050543388605490326,0.12463840625546872
1761336256786803200,7.13180322265625,-0.2228413716584444,-0.01279306527338922,0.12282960326783358
1761336256796869400,7.141869384765625,-0.2648363468229771,0.00007883738987147808,0.07139982374925166
1761336256806936300,7.151936279296875,-0.2381073298513889,0.006491700106859207,0.02167447352837771
1761336256817002200,7.162002197265625,-0.2276554939419031,0.03147022014930844,-0.06752879100218415
1761336256827069200,7.172069091796875,-0.14834113420844078,0.08332366844005883,-0.14834223018698395
1761336256837136400,7.182136474609375,0.05344225185215473,0.09981580742709338,-0.07354553054105491
1761336256847202300,7.192202392578125,0.24176643688082694,0.09367365141026675,0.027271270622126757
1761336256857269200,7.202269287109375,0.3324386414527893,0.0681509414885193,0.10463763809297233
1761336256867335400,7.21233544921875,0.2866425204396248,0.04275054277218878,0.12426781937740743
1761336256877402400,7.22240234375,0.07414543266296386,0.009279358064010739,0.08782240463141351
1761336256887468300,7.23246826171875,-0.13667232372462748,-0.022784297933802006,0.04957300920337438
1761336256897535200,7.24253515625,-0.23460195207893847,-0.05054689573682844,0.01164217820521444
1761336256907602400,7.2526025390625,-0.1938847417652607,-0.07266366967260837,-0.01332571084536612
1761336256917668400,7.26266845703125,-0.14469897831380366,-0.09234298732839524,-0.02296637650243938
1761336256927735300,7.2727353515625,-0.07912497464120388,-0.09496018408946692,-0.047759603105857966
1761336256937801500,7.282801513671875,-0.010187047493457793,-0.10152611847631633,-0.09200940799247473
1761336256947868400,7.292868408203125,-0.034490883144736285,-0.0828800163257867,-0.12157817843463271
1761336256957934300,7.302934326171875,-0.09863514627516269,-0.0651844928983599,-0.11177030298449099
1761336256968001300,7.313001220703125,-0.0902870046466589,-0.06616502836830913,-0.07265800711680204
1761336256978068200,7.323068115234375,-0.055310383811593054,-0.074814710226655,-0.038970293581113216
1761336256988134400,7.333134521484375,0.0056231005787849425,-0.08913345069736242,-0.053541584040783345
1761336256998201300,7.343201416015625,0.024373978278040883,-0.09934219856597483,-0.09814626677967607
1761336257008267500,7.353267578125,-0.06927636532187462,-0.1254943654976785,-0.15712748459111897
1761336257018334500,7.36333447265625,-0.16419453690052033,-0.11818952237702905,-0.15858581190695986
1761336257028401400,7.3734013671875,-0.2641810977846384,-0.07943016813285649,-0.11909960469296202
1761336257038467300,7.38346728515625,-0.27518413783609863,-0.061177887605503196,-0.09097725193314253
1761336257048534300,7.3935341796875,-0.3012672581195831,-0.024583456310257313,-0.065938325206656
1761336257058600400,7.403600341796875,-0.32675358155369755,-0.010051365349814295,-0.09280174568025394
1761336257068667400,7.41366748046875,-0.28856033675968645,-0.055737011725828046,-0.07924165982343256
1761336257078733600,7.423733642578125,-0.1979401546359062,-0.06705941992476581,-0.10922156834974885
1761336257088800500,7.433800537109375,-0.08029051128923892,-0.06578866933658718,-0.12343750603310763
1761336257098867500,7.443867431640625,0.02283259405493736,-0.054104369022697205,-0.06476089719142765
1761336257108933400,7.453933349609375,0.13552081560194493,-0.07293949093930423,-0.023191015571169555
1761336257119000300,7.464000244140625,0.21903204250335692,-0.08621471370644868,0.02963288518693298
1761336257129066500,7.47406640625,0.2547428228318691,-0.08984247574955224,0.07526270972248167
1761336257139133400,7.484133544921875,0.1998275758177042,-0.10458258343748748,0.09954986823359503
1761336257149199400,7.494199462890625,0.026075521498918532,-0.09129946962483226,0.0892204348610714
1761336257159266300,7.504266357421875,-0.19684183800518512,-0.05980214227288961,0.027818364844564347
1761336257169333500,7.51433349609375,-0.3042027270495891,-0.048198067588359116,0.006018219109904021
1761336257179399200,7.524399169921875,-0.20450024380385876,-0.045829731021821495,0.020510361652448773
1761336257189466000,7.534466064453125,-0.0699696082830429,-0.06709938660897315,0.008318020484875887
1761336257199532300,7.5445322265625,-0.01958849756717682,-0.097428839225322,0.001052322064526379
1761336257209599200,7.55459912109375,-0.01679506745636463,-0.10766286766566335,-0.03264978532269597
1761336257219665400,7.56466552734375,-0.05311199698448181,-0.10108151651397347,-0.057434700755495574
1761336257229732400,7.574732421875,-0.08768471319377422,-0.08850823147110641,-0.021382870170660314
1761336257239799300,7.58479931640625,-0.12254793678224087,-0.10067841560579836,-0.0026481398886069652
1761336257249865200,7.594865234375,-0.20062544819712638,-0.09913235520757734,-0.02966258620545268
1761336257259932200,7.60493212890625,-0.2393669745236635,-0.08373239537142217,-0.11512220722828059
1761336257269998300,7.614998291015625,-0.11044541105628013,-0.05116356633044779,-0.16084577446188777
1761336257280065300,7.625065185546875,0.032353871116042134,-0.02558189276307821,-0.0992272304167971
1761336257290132200,7.63513232421875,0.04848842883706093,-0.037721170302852984,-0.012991291259229182
1761336257300198400,7.645198486328125,-0.056502223944664,-0.06826126999519765,0.021195238644070923
1761336257310265300,7.655265380859375,-0.19747312164604663,-0.06848587253130972,-0.00040204146225005384
1761336257320331300,7.665331298828125,-0.2874649427384138,-0.07874057843349874,-0.020358020634949205
1761336257330398200,7.675398193359375,-0.27898119203150273,-0.09677234807796775,-0.017137853012047708
1761336257340464400,7.68546435546875,-0.15532207913696766,-0.09180172005854546,-0.018800233266316354
1761336257350531300,7.69553125,-0.004922843354940414,-0.05156980904377997,-0.03859590731076896
1761336257360598300,7.705598388671875,0.10485855083465576,-0.04893894908353686,-0.09594013503752648
1761336257370664400,7.71566455078125,0.14216390687823294,-0.08384776537939906,-0.09583240034673363
1761336257380731000,7.72573095703125,0.11094050109684467,-0.09554134497828781,-0.036306590797193346
1761336257390796800,7.735796875,0.06872282309234141,-0.09480316689684987,0.04681359096001833
1761336257400864000,7.745864013671875,0.03563596152663231,-0.0981316537324339,0.13830876582004129
1761336257410930000,7.755929931640625,-0.017678280031681058,-0.09301292247921228,0.25813889501094817
1761336257420996900,7.765996826171875,-0.08683832549750804,-0.09524199670553207,0.27049017133358866
1761336257431063800,7.776063720703125,-0.1261281333565712,-0.07095737721137702,0.17930307604204862
1761336257441130000,7.7861298828125,-0.16099895572960377,-0.047151554210111496,0.054444122371077534
1761336257451197000,7.796197021484375,-0.17710779448747635,-0.04832205929420888,-0.028747371056675908
1761336257461262800,7.806262939453125,-0.08467384093999862,-0.037778672643750906,-0.05249349975995719
1761336257471330000,7.816330078125,0.010481062003970145,-0.03283281373940408,-0.093737510426715
1761336257481396000,7.82639599609375,0.0384726462572813,-0.03711319447234273,-0.12240922243129461
1761336257491463000,7.836462890625,-0.001644260075688362,-0.043032209257781506,-0.09697397159729153
1761336257501529900,7.84652978515625,-0.06898702698647975,-0.06209902103841304,-0.0705737847212702
1761336257511596000,7.856595947265625,-0.1266419280976057,-0.05777626246847212,-0.03698923929911107
1761336257521663000,7.8666630859375,-0.13912965374886987,-0.05907112458460033,0.0028107100391760466
1761336257531728600,7.876728759765625,-0.11018296072781085,-0.06807159264199435,0.004966609431430697
1761336257541796000,7.886796142578125,-0.10249240622520446,-0.0729048580173403,-0.0018287497971206902
1761336257551861800,7.89686181640625,-0.09096037386357783,-0.051534956926107406,0.017057956176251172
1761336257561928700,7.9069287109375,-0.08154080361127852,-0.017568828307837247,0.03245192466303706
1761336257571995600,7.91699560546875,-0.15877309637367726,-0.000747822692617774,0.009761332894675434
1761336257582061800,7.927061767578125,-0.17643091813921927,-0.013506108913570642,-0.010835282269120216
1761336257592128800,7.937128662109375,-0.05411269845962524,-0.05784881624802947,-0.0007700345244258641
1761336257602194700,7.947194580078125,0.10548983447551727,-0.11415222968496382,0.028005503180809316
1761336257612262000,7.957261962890625,0.16169161416888236,-0.14371522797346115,0.04728361962456256
1761336257622327800,7.967327880859375,0.08556348325610161,-0.1254396396357566,0.023639343860559166
1761336257632394800,7.977394775390625,-0.01632102020382881,-0.09102635177187621,0.015721154614537953
1761336257642461700,7.987461669921875,-0.09891454773843288,-0.057482905545085665,0.041773477900959546
1761336257652527900,7.99752783203125,-0.13289923492670058,-0.03212941471040249,0.053059718807972965
1761336257662594800,8.0075947265625,-0.16011983480751513,-0.022935396842285988,0.03529427194949239
1761336257672660700,8.01766064453125,-0.20411796648800373,-0.027075346191227433,-0.014051540901884436
1761336257682728000,8.02772802734375,-0.22259937959611414,-0.0244348416198045,-0.08689597396887838
1761336257692793900,8.0377939453125,-0.11669979527592658,-0.012629618339985608,-0.12704966864828018
1761336257702860800,8.04786083984375,0.033984687188267707,-0.008951660479605198,-0.145452536627464
1761336257712927000,8.057927001953125,0.14837679004371165,-0.03519596267417073,-0.12272332988176494
1761336257722994000,8.067993896484374,0.17658698548376559,-0.049897857243567705,-0.06236395558491349
1761336257733059800,8.078059814453125,0.11459376290738582,-0.050602863707765934,-0.03185443369392305
1761336257743126800,8.088126708984374,0.008706453546881675,-0.05753237071000039,-0.027879465648345647
1761336257753193700,8.09819384765625,-0.05084639014005661,-0.08154642963446676,-0.043903402601741255
1761336257763260000,8.108260009765624,-0.17006138310730456,-0.07246076751165091,-0.03360043711103499
1761336257773326800,8.118326904296875,-0.29210604654252526,-0.08275894722938537,-0.07276084643676876
1761336257783393000,8.12839306640625,-0.34194296737909313,-0.08468523911684751,-0.051449434067122636
1761336257793460000,8.1384599609375,-0.28008944553434845,-0.05531316029056906,-0.0052735564887523645
1761336257803526000,8.14852587890625,-0.19588146854043006,-0.12096541683115064,-0.07349822080060839
1761336257813592800,8.1585927734375,-0.09021160132288933,-0.06411664447113871,-0.08338960981573909
1761336257823659800,8.16865966796875,0.05719429786205291,-0.08845072913020849,-0.044732656500115986
1761336257833726000,8.178725830078125,0.13489245457053184,-0.0769352095119655,-0.005280022762157023
1761336257843793000,8.18879296875,0.1347235277444124,-0.026474457688629625,-0.018875052068196237
1761336257853859000,8.198859130859375,0.0010936404556035994,-0.016950988670438528,-0.030995953701063988
1761336257863926000,8.208926025390625,-0.14589315653443335,-0.042776407865807414,-0.019226203593425452
1761336257873992000,8.218991943359375,-0.24675825381875036,-0.051846726289018985,-0.00022040128502994776
1761336257884059000,8.229058837890625,-0.2603168235719204,-0.02196596728824079,0.012982285968866199
1761336257894125800,8.239125732421876,-0.2205675815075636,-0.028996450446918606,0.03803173408936709
1761336257904192000,8.24919189453125,-0.11390870325267315,-0.053511956087499854,0.04917087640957907
1761336257914259000,8.259259033203126,0.0022825579792261123,-0.07631539711318909,0.012057937665563076
1761336257924324900,8.269324951171875,0.09350304408371447,-0.048989875553175806,-0.03187074550790712
1761336257934391800,8.279391845703126,0.04579378292560577,-0.006947334919869899,-0.05746312313238158
1761336257944459000,8.289458984375,-0.034064182165265085,-0.015011837301403283,-0.05804945338666439
1761336257954524700,8.299524658203126,-0.06830372089743614,-0.01587912165522575,-0.06778342335037886
1761336257964591600,8.309591552734375,-0.08573650173544883,-0.021936156671866772,-0.12451520000090822
1761336257974657800,8.31965771484375,-0.05289104771018028,-0.047629912311583755,-0.15374149541463702
1761336257984724700,8.329724853515625,-0.07746142534315585,-0.0419709367018193,-0.12897986952587961
1761336257994791000,8.339791015625,-0.14285305818617344,0.01328318687789142,-0.07833970601502806
1761336258004857900,8.34985791015625,-0.1640337933808565,0.16786248482353985,0.08879833699148147
1761336258014924800,8.3599248046875,-0.17136019074618816,0.21497012682668865,0.22332542884834108
1761336258024990700,8.36999072265625,-0.16397417214810847,0.15079612614512442,0.19420944367498158
1761336258035057700,8.3800576171875,-0.1073532902598381,0.13575688938014208,0.08056404926730319
1761336258045123800,8.390123779296875,-0.016162614771723746,-0.018131722887605426,-0.13656212308211252
1761336258055190800,8.400190673828124,0.04983808988034725,-0.11151194430924952,-0.27788866582075133
1761336258065257700,8.4102578125,0.13037234679758547,-0.0641927784472704,-0.2815517731718719
1761336258075324700,8.42032470703125,0.1281143387377262,0.03318776465691626,-0.13074843183467164
1761336258085390800,8.430390869140625,0.10172317541837692,-0.05054989141151309,-0.051714861803967505
1761336258095457800,8.440457763671875,0.06378945834338665,-0.026873686139285563,-0.029051797363348304
1761336258105523700,8.450523681640625,0.01875087769925594,0.0006248539000749588,-0.06624481560625135
1761336258115591000,8.4605908203125,-0.00895195274055004,0.003580123509094119,-0.05965955546442419
1761336258125657900,8.470657958984376,-0.07981938664615154,0.01523424788042903,-0.010917699855566024
1761336258135723800,8.480723876953125,-0.1548585532784462,-0.018197408534958957,0.01576641852837056
1761336258145790700,8.490790771484376,-0.1709229683727026,-0.06894954452030361,-0.016572364616394043
1761336258155857000,8.50085693359375,-0.1511509309321642,-0.13282901923470197,-0.1181996967111714
1761336258165923800,8.510923828125,-0.09688158060610294,-0.19978490571975707,-0.23326789046358315
1761336258175989800,8.52098974609375,-0.0671335080742836,-0.22325112150311469,-0.2897403220581822
1761336258186057000,8.531056884765626,-0.06197101074457168,-0.2273653518889099,-0.3143041420862078
1761336258196124000,8.5411240234375,-0.05331014990508556,-0.26459333184733985,-0.32315394962653515
1761336258206189800,8.55118994140625,-0.07214519875645638,-0.16873809861429034,-0.19870154919615013
1761336258216256800,8.5612568359375,-0.15091186147928237,-0.08202318030074238,0.03101911538094282
1761336258226323000,8.571322998046876,-0.24858546924591063,-0.13817965954765676,0.11221139781549572
1761336258236390000,8.581389892578125,-0.23704759166538714,-0.052698740008473396,0.10046075426712632
1761336258246455800,8.591455810546876,-0.15213643483817577,-0.0058203767165541645,0.036125041951518506
1761336258256523000,8.60152294921875,-0.0024526538491249084,-0.007194295418262481,0.016773549744300544
1761336258266590000,8.61158984375,0.09569090951681136,-0.016659093051776288,-0.003444459631759673
1761336258276655900,8.62165576171875,0.10542436802387237,-0.03520575341582298,-0.034102742343675344
1761336258286722800,8.631722900390624,0.03554126898050308,-0.07920023183450102,-0.05900195007221773
1761336258296789000,8.6417890625,-0.11710896059870719,-0.0928354470204562,-0.043760596597567196
1761336258306856000,8.65185595703125,-0.28355916747152804,-0.03923157486580312,-0.004368387809954583
1761336258316921900,8.661921875,-0.33489714052081104,-0.030305633349344132,-0.017915541119966655
1761336258326989000,8.671989013671874,-0.3012999913454056,-0.010549085738882422,-0.08022056959187611
1761336258337056000,8.682055908203125,-0.20104455039203165,0.030673516813665626,-0.16746787774907423
1761336258347122000,8.692121826171874,-0.11052315246760845,0.03916019013002515,-0.25055600213389845
1761336258357188900,8.70218896484375,-0.04343465257883072,0.027775457284599542,-0.28092284588487815
1761336258367254800,8.7122548828125,-0.010779168167710304,0.0710524350836873,-0.2181262345037423
1761336258377321700,8.72232177734375,-0.032335750937461855,0.14572240307740866,-0.05757208166588097
1761336258387387600,8.7323876953125,-0.06814589998722076,0.15328925813511013,0.05488127167932689
1761336258397454800,8.742454833984375,-0.09127017046511172,0.15136786161847413,0.08170622330605984
1761336258407521800,8.752521728515624,-0.05348024577498436,0.08873210335485637,0.06692804863005876
1761336258417587700,8.762587646484375,0.0019347674548625944,0.03406944286227226,0.017030520180054007
1761336258427654700,8.772654541015624,0.044398529174923894,0.04445676216818392,-0.05258919695308432
1761336258437720800,8.782720947265625,0.033114334094524384,0.15923092314377427,-0.09442918248530477
1761336258447787800,8.792787841796875,0.06266892988085747,0.25032332588918504,-0.04951565299294889
1761336258457853700,8.802853759765625,0.08929039482474327,0.24729696380533275,0.02351990046566352
1761336258467921000,8.8129208984375,0.06058277125656605,0.17633622559309003,0.02663379470249638
1761336258477987800,8.82298779296875,-0.00858604203760624,0.10377543177306651,0.004194967471808195
1761336258488053800,8.8330537109375,-0.022369652718305585,0.018748393481224774,-0.021245306597184387
1761336258498120700,8.84312060546875,-0.0052495910912752144,-0.029566359289363024,-0.06622585517745465
1761336258508187000,8.853186767578125,0.028696517652273178,-0.04512983912415802,-0.11765039226533844
1761336258518253800,8.86325390625,0.010327332746982575,-0.08307385839745401,-0.18359962245849892
1761336258528319700,8.87331982421875,-0.04828735330700874,-0.11298311284035444,-0.2189839655779302
1761336258538387000,8.883386962890626,-0.10306523767709731,-0.09545293604247271,-0.2001423773879185
1761336258548454000,8.893453857421875,-0.10768646773695945,-0.09777765266299247,-0.1211075287155807
1761336258558519800,8.903519775390626,-0.06324234585464,-0.08015314864516258,-0.05304158036308363
1761336258568586800,8.913586669921875,0.029264672929048538,-0.06561755055338143,0.005552921419404447
1761336258578652700,8.923652587890626,0.08670622355043887,-0.06585800824575126,0.04207850699583068
1761336258588719900,8.933719970703125,0.13159341302514074,-0.10901157886087894,0.050679070749133824
1761336258598786800,8.943786865234374,0.17685878816246986,-0.12679631494171917,0.051140843041986225
1761336258608852700,8.953852783203125,0.1655582264691591,-0.10004238272458314,0.04433656985461712
1761336258618919700,8.963919677734374,0.13978139565587042,-0.06062902155108749,0.08272084370870143
1761336258628985600,8.973985595703125,0.047003743237257,0.006026055356487632,0.10914053900279104
1761336258639052500,8.984052490234374,-0.04529635479748249,0.08123224911876023,0.14052107157465069
1761336258649118700,8.99411865234375,-0.09284370339214801,0.06972403602413833,0.19012973661329596
1761336258659185700,9.004185546875,-0.08741641764640808,-0.0001391162097454071,0.19046992835309356
1761336258669251600,9.01425146484375,-0.03657821081280708,-0.010655687918514012,0.14416140083838253
1761336258679318800,9.02431884765625,-0.0059200376987457275,-0.03068791066519916,0.05784384781196713
1761336258689385700,9.0343857421875,0.035599136647582054,-0.07557736516222358,-0.02636193722486496
1761336258699451600,9.04445166015625,0.06975567327141761,-0.10881598322354256,-0.07698624557945877
1761336258709518600,9.0545185546875,-0.012178513571619986,-0.13077734740190208,-0.04886661449968815
1761336258719584800,9.064584716796874,-0.13664426667392254,-0.11974625029973684,0.02272025625426322
1761336258729651700,9.074651611328125,-0.2272773082792759,-0.13529343658685683,0.060609440067782995
1761336258739718700,9.08471875,-0.2580576464682817,-0.13762801701426505,0.045412053599022326
1761336258749784800,9.094784912109375,-0.28239421534538267,-0.13188421266525982,0.014622143864072859
1761336258759851800,9.104851806640625,-0.24705986711382866,-0.10492394422106444,-0.0007767199935391545
1761336258769917700,9.114917724609375,-0.19522095880508422,-0.09720416362397372,0.030034524790383873
1761336258779984600,9.124984619140625,-0.19450316592454908,-0.10839593118056655,0.10763999824672937
1761336258790050800,9.13505078125,-0.18081950848698614,-0.12532047023549675,0.14228398959394545
1761336258800117800,9.14511767578125,-0.11425649377703666,-0.14229812771715222,0.08770937271099537
1761336258810184700,9.155184814453126,-0.05186988796889782,-0.15986564085073768,0.006316964594461023
1761336258820250600,9.165250732421875,0.04082242425382137,-0.12838394945934414,-0.07588310664314776
1761336258830317800,9.17531787109375,0.11149462784826755,-0.06890811653137206,-0.09299100290834904
1761336258840383700,9.1853837890625,0.1493681391686201,0.008279752567410469,-0.022898900756798683
1761336258850450700,9.19545068359375,0.18814824393987656,0.042227103419974446,0.07604589598942547
1761336258860516900,9.205516845703125,0.16412848592698573,0.03560731995403767,0.1485005990864709
1761336258870583800,9.215583740234376,0.1320230366140604,0.005157528893649578,0.1506454290954396
1761336258880649700,9.225649658203125,0.10828443363010883,-0.02553907653465867,0.10483823869898914
1761336258890716700,9.235716552734376,0.08975625877082348,-0.0577673485096544,0.04703804736565798
1761336258900783900,9.245783935546875,0.05288929414451122,-0.07120353399217129,-0.006174962307885288
1761336258910849800,9.255849853515626,0.06321838045716285,-0.10039470329359174,-0.049821175278164445
1761336258920916700,9.265916748046875,0.13428747441470623,-0.12573913403898476,-0.0883927883978933
1761336258930983000,9.27598291015625,0.19612112251520156,-0.16546243794448673,-0.11462185649070888
1761336258941049900,9.2860498046875,0.24089082309007642,-0.16215324033126233,-0.15616170829888432
1761336258951115800,9.29611572265625,0.2584130357772112,-0.14054719239659608,-0.11917027704268693
1761336258961182700,9.3061826171875,0.167462598785758,-0.14525792737081647,-0.0348332303090021
1761336258971250000,9.31625,0.053040685313940045,-0.13268427700176835,0.05467044194024056
1761336258981315600,9.326315673828125,-0.03898293386697769,-0.1254754416014999,0.1206592734914273
1761336258991382800,9.3363828125,-0.10341302820146084,-0.1598806922893971,0.11794007766060531
1761336259001448700,9.34644873046875,-0.11884031443595885,-0.1661528313614428,0.0775184162274003
1761336259011515600,9.356515625,-0.1255740066051483,-0.16683628358095884,0.044140828086808324
1761336259021581600,9.36658154296875,-0.2032996358424425,-0.1451723679792136,0.08465356533695012
1761336259031648500,9.3766484375,-0.3030886283278465,-0.11852649924643337,0.14980042963866144
1761336259041715700,9.3867158203125,-0.4114046261399984,-0.13382066062055528,0.21159867763221263
1761336259051781600,9.39678173828125,-0.5111521175712347,-0.15302834217660127,0.1894265933126211
1761336259061848600,9.4068486328125,-0.5114718510448932,-0.1755123419895768,0.14106811099816113
1761336259071914800,9.416914794921874,-0.3998492129027843,-0.1636293772984296,0.015040771134942768
1761336259081981700,9.426981689453125,-0.285220963203907,-0.16770729426182807,-0.11075674202777444
1761336259092047600,9.437047607421874,-0.23105156612098215,-0.11810863916054368,-0.1644861402582377
1761336259102114600,9.447114501953125,-0.13609423157572745,-0.0704394908171147,-0.12291896205171941
1761336259112181800,9.457181640625,-0.039380993273854255,0.013291808575764298,0.000008913958817720413
1761336259122247700,9.46724755859375,0.01954348938167095,0.04779365150593221,0.13052205746658146
1761336259132314600,9.477314697265625,0.030485154634714125,0.010959566235914826,0.13282616969048977
1761336259142380800,9.487380859375,0.014528291568160056,0.04811681904569268,0.01947590403817594
1761336259152447700,9.49744775390625,0.0043850832164287566,0.10936682203933595,-0.06870265708714723
1761336259162513700,9.507513671875,0.009134323570132255,0.09222096838392317,-0.10659962234832346
1761336259172580600,9.51758056640625,-0.00982289035618305,0.054695612914115184,-0.09431406820565462
1761336259182647800,9.527647705078126,-0.06278992591202259,0.07920242379158735,-0.0976408014755696
1761336259192713700,9.537713623046875,-0.15449439614117144,0.1098605969056487,-0.10913966221995651
1761336259202780700,9.54778076171875,-0.21767887432873248,0.049066447920724746,-0.11959785480499267
1761336259212846800,9.557846923828125,-0.27810324015319343,0.008393003683537244,-0.1758303218975663
1761336259222913800,9.567913818359376,-0.2437286768645048,0.2112150120768696,-0.11327902704700826
1761336259232979700,9.577979736328125,-0.11960428454577922,0.16880020406506954,0.03941811041384935
1761336259243046700,9.588046630859376,-0.056205286824703216,0.09601137364283203,0.05246025507748127
1761336259253113900,9.59811376953125,-0.09458148697018623,0.07449709564484655,-0.006084215284511447
1761336259263179800,9.6081796875,-0.2024193458765745,0.03927446415945887,-0.029856647472828624
1761336259273246700,9.618246826171875,-0.2942266919583082,-0.059035468749329446,-0.023480244308710096
1761336259283313000,9.62831298828125,-0.30361878968179223,-0.16387429197020828,-0.02279248124025762
1761336259293379800,9.6383798828125,-0.2677314837425947,-0.14488273738287388,-0.03372866660058498
1761336259303445800,9.64844580078125,-0.18685820412933826,-0.10828457976058124,-0.015178937496617435
1761336259313512700,9.6585126953125,-0.11083411811292171,-0.13272607031688094,0.05437222617864609
1761336259323580000,9.668579833984374,-0.018370938470959663,-0.16463234379589556,0.11690123613215982
1761336259333645800,9.678645751953125,0.011184241837263107,-0.16102262886613605,0.10159867225587367
1761336259343712800,9.688712646484374,0.00298632233440876,-0.1531849940430373,0.028218963268399237
1761336259353779000,9.698779052734375,-0.021606267130374907,-0.1657105674866587,-0.0023327537965029477
1761336259363846000,9.708845947265624,-0.02913432454764843,-0.15291552945189177,0.04276946666836738
1761336259373911600,9.71891162109375,-0.0042681788384914396,-0.15771408884003757,0.05748758172020316
1761336259383979000,9.72897900390625,-0.02817921577990055,-0.18228570858202875,0.04099346997179091
1761336259394046000,9.7390458984375,-0.15734627844095228,-0.19990787451229988,-0.002973828179016709
1761336259404112000,9.74911181640625,-0.28963644155859947,-0.2144717488504946,0.017338892009481785
1761336259414179000,9.759178955078125,-0.35341128685474393,-0.20265235091485082,0.0515821570686996
1761336259424245000,9.769244873046874,-0.33143852449953554,-0.18517806902267037,0.06467661644145846
1761336259434312000,9.77931201171875,-0.29264263763725756,-0.17319653932787477,0.05654869343489408
1761336259444377900,9.7893779296875,-0.14151976375579833,-0.15784480254761873,-0.01500000073313713
1761336259454444800,9.79944482421875,0.0214367557823658,-0.16681414481438694,0.010114639844372868
1761336259464511700,9.80951171875,0.0932709888935089,-0.17362762422151862,0.04347483845874667
1761336259474578000,9.819577880859375,0.14857318939864633,-0.13874101975746453,-0.013115867486968635
1761336259484644900,9.829644775390625,0.15651742640137672,-0.12909290144629776,-0.07350238551907241
1761336259494711000,9.8397109375,0.14089257176816464,-0.14366174422055483,-0.06122121529057622
1761336259504778000,9.849778076171875,0.11883739182651042,-0.13912468531280756,-0.018614245707541704
1761336259514844000,9.859843994140626,0.08949147035479545,-0.15420885719805955,0.013058072885125874
1761336259524910800,9.869910888671875,0.013814590340852737,-0.1623743357360363,0.035698140042647715
1761336259534977800,9.879977783203126,-0.08443360244333743,-0.16390388339087367,0.03213482153788209
1761336259545044000,9.8900439453125,-0.14217267470657824,-0.15378836676366625,0.07413198865950107
1761336259555111000,9.90011083984375,-0.26330782208144665,-0.13219846624620257,0.088043682699278
1761336259565177000,9.910177001953125,-0.31597675147354604,-0.13749211567491293,0.050831850158050654
1761336259575244000,9.920244140625,-0.2634785024732351,-0.16656455396749079,-0.004277823449671268
1761336259585310000,9.93031005859375,-0.1653542283296585,-0.17594934516735375,-0.03973959745317697
1761336259595377000,9.940376953125,-0.05081307239234447,-0.16083550879620015,-0.039005437959730625
1761336259605443800,9.95044384765625,-0.042532735303044314,-0.1607804176080972,-0.021033362613245843
1761336259615510000,9.960510009765626,-0.1058019691646099,-0.14951229687966405,0.006154065650328993
1761336259625577000,9.970576904296875,-0.12227847219109535,-0.1311103056833148,0.035981194767728444
1761336259635643000,9.980642822265626,-0.10006079516410828,-0.1304920276544988,0.02474997198358178
1761336259645710000,9.9907099609375,-0.05828560023009777,-0.09449841179661453,0.026204335510358213
1761336259655776000,10.00077587890625,0.016224574092030524,-0.07448416309803724,0.022710502045229074
1761336259665843000,10.010843017578125,0.09280278685986995,-0.08181107192002236,0.004023118036240339
1761336259675909000,10.0209091796875,0.04227028497457504,-0.07437142343856394,0.03564655598588288
1761336259685976000,10.03097607421875,-0.04126373828053474,-0.12937734441086648,0.05825666639655828
1761336259696043000,10.04104296875,-0.07919745535552501,-0.14637765211574733,-0.006712941642105579
1761336259706109000,10.05110888671875,-0.1610188294738531,-0.1452493787381798,-0.15121172120869159
1761336259716176100,10.061176025390624,-0.26905951747596263,-0.248511088835448,-0.3247266057707369
1761336259726242000,10.071241943359375,-0.4720528638482094,-0.4418216109093278,-0.5358523321289569
1761336259736309000,10.08130908203125,-0.5495791711211204,-0.6834292039666324,-0.7867820994786918
1761336259746375200,10.091375244140625,-0.6823562409728765,-1.1515665018063037,-1.2319906494125723
1761336259756442000,10.101442138671874,-0.9477987369954586,-1.479184664300084,-1.780702828440815
1761336259766509000,10.111509033203125,-1.1788643316417933,-1.5825746038869022,-2.3849369882047173
1761336259776575000,10.121574951171874,-1.3404641758739948,-1.6044205249920487,-2.8856521751746533
1761336259786642200,10.13164208984375,-1.6000976933568716,-1.562752005302906,-3.0668367175817486
1761336259796707800,10.141707763671874,-2.049061942562461,-1.4743606051445006,-2.986868862375617
1761336259806775000,10.151775146484376,-2.448670332446694,-1.541505803656578,-2.7860978682279587
1761336259816841000,10.161841064453125,-2.664986101728678,-1.8373881538674235,-2.552943776869774
1761336259826908000,10.171907958984375,-2.680503988856077,-2.125107363627851,-2.3907024198636413
1761336259836974800,10.181974853515625,-2.497470311450958,-2.2425348886564374,-2.3431904348433017
1761336259847040800,10.192040771484375,-2.1263298911601303,-2.160446972556412,-2.2396365368664264
1761336259857108000,10.20210791015625,-1.4737696535140274,-1.5811074539437888,-1.944911101605743
1761336259867174000,10.212173828125,-0.6724211224138736,-1.7892521917298436,-1.768195375175774
1761336259877240800,10.22224072265625,-0.4088824141860008,-2.043308201341331,-1.1921974951412528
1761336259887307000,10.23230712890625,-0.24707623372673987,-1.5905466056793927,-0.6708313690043985
1761336259897374000,10.2423740234375,-0.16116963612139223,-0.8559026166517287,-0.25200901395380493
1761336259907441000,10.25244091796875,-0.40583822418451304,-0.3959500865723938,0.37223406074643134
1761336259917506800,10.2625068359375,-0.761233962854743,-0.03314111250359565,1.0934485862933099
1761336259927574000,10.272573974609376,-1.4250988538473843,0.6607810996331274,1.8625779785729943
1761336259937640000,10.282639892578125,-2.355058567291498,1.2627090282812714,2.489219200456142
1761336259947707000,10.292706787109376,-2.8717759177744386,1.4188862629428505,2.7235826676040884
1761336259957773000,10.30277294921875,-2.8583330833554266,1.5168495013058185,2.6071988064095377
1761336259967840000,10.312840087890624,-2.4940625488340853,1.5463120348945258,2.411172376440465
1761336259977907000,10.322906982421875,-2.074044408127665,1.4485961954213677,2.253545089101046
1761336259987972900,10.332972900390626,-1.6565864732980726,1.4747383524157105,2.072684956342727
1761336259998040000,10.3430400390625,-1.140341416501999,1.3830546327136457,1.6893477561712265
1761336260008106000,10.35310595703125,-0.5744640215307474,1.1443421035107224,1.1648209009811281
1761336260018173000,10.3631728515625,-0.19592998385727403,0.9546236145794391,0.8067420607067645
1761336260028239000,10.373239013671874,0.1175222175747156,1.0390052676398307,0.6829423702977597
1761336260038306000,10.38330615234375,0.020802549532055854,0.8862906675875186,0.48681101864948867
1761336260048373000,10.393373046875,0.5281295558571815,0.39872605409175155,0.16827654551714658
1761336260058439000,10.40343896484375,1.3998726426541805,0.43483321332670744,0.12987009636387228
1761336260068506000,10.413506103515624,2.0207646533608434,0.6273917479895055,0.4563835855513811
1761336260078572000,10.423572021484375,2.4314199224382635,0.5393352058086543,0.3458635018236935
1761336260088639000,10.433638916015624,2.5299334881603714,0.8329482228480279,0.204693720549345
1761336260098705200,10.443705078125,2.2455630043059585,1.1081108795046806,0.3894143281280994
1761336260108772000,10.453772216796875,1.7125018372654914,1.174129412074387,0.7428622937314212
1761336260118838000,10.463838134765625,1.094732342493534,1.0859364570975303,0.9492582881540059
