time,seconds_elapsed,z,y,x
1761336249730127000,0.075127197265625,0.025922928005456924,-0.9886613488197327,-0.48745495080947876
1761336249740193000,0.085193115234375,0.052258990705013275,-0.927688479423523,-0.5072121024131775
1761336249750260200,0.09526025390625,0.08508085459470749,-0.869628369808197,-0.5235870480537415
1761336249760327200,0.1053271484375,0.10729622095823288,-0.8331350088119507,-0.5412005186080933
1761336249770393000,0.11539306640625,0.12685394287109375,-0.8192631602287292,-0.5550817251205444
1761336249780460000,0.1254599609375,0.12831464409828186,-0.8082820177078247,-0.5507081747055054
1761336249790526200,0.135526123046875,0.11863645166158676,-0.8210683465003967,-0.5452964305877686
1761336249800593200,0.14559326171875,0.0991913303732872,-0.8274652361869812,-0.5441610813140869
1761336249810660000,0.15566015625,0.08701455593109131,-0.7815872430801392,-0.5450902581214905
1761336249820726300,0.165726318359375,0.07818910479545593,-0.7456318736076355,-0.5595499277114868
1761336249830793200,0.175793212890625,0.08171326667070389,-0.7300822138786316,-0.5919451117515564
1761336249840859100,0.185859130859375,0.109938845038414,-0.7031279802322388,-0.6381617784500122
1761336249850926000,0.195926025390625,0.16103239357471466,-0.6704517602920532,-0.6816650032997131
1761336249860993000,0.205992919921875,0.2185940146446228,-0.6477748155593872,-0.7169051766395569
1761336249871059200,0.21605908203125,0.26716873049736023,-0.6381685137748718,-0.7312356233596802
1761336249881126100,0.226126220703125,0.2955659329891205,-0.6533302068710327,-0.7304256558418274
1761336249891192300,0.2361923828125,0.3154599964618683,-0.7009257078170776,-0.7058228254318237
1761336249901259300,0.24625927734375,0.3277529776096344,-0.753818690776825,-0.6504486203193665
1761336249911325200,0.2563251953125,0.34182485938072205,-0.7817240953445435,-0.5726286768913269
1761336249921392000,0.26639208984375,0.36880332231521606,-0.7470961809158325,-0.4940057396888733
1761336249931459000,0.276458984375,0.39591270685195923,-0.6861231327056885,-0.4438925087451935
1761336249941525200,0.286525146484375,0.4146752953529358,-0.6717827320098877,-0.4861268401145935
1761336249951592200,0.29659228515625,0.4185344874858856,-0.669586718082428,-0.6012454032897949
1761336249961658000,0.306658203125,0.40868040919303894,-0.6314788460731506,-0.7512287497520447
1761336249971725300,0.316725341796875,0.3988373577594757,-0.5466997623443604,-0.8994861245155334
1761336249981792300,0.326792236328125,0.38413965702056885,-0.4241694509983063,-1.0177932977676392
1761336249991858200,0.336858154296875,0.3647827208042145,-0.2971992492675781,-1.0842013359069824
1761336250001925000,0.346925048828125,0.3545767366886139,-0.1854938268661499,-1.0897330045700073
1761336250011991300,0.3569912109375,0.3456476926803589,-0.1290081888437271,-1.0776503086090088
1761336250022058200,0.367058349609375,0.31700849533081055,-0.14742782711982727,-1.057320475578308
1761336250032125200,0.377125244140625,0.25890976190567017,-0.22561955451965332,-1.0431519746780396
1761336250042191000,0.387191162109375,0.1834840029478073,-0.3324340283870697,-1.0262010097503662
1761336250052258300,0.39725830078125,0.119680255651474,-0.44065263867378235,-1.0117038488388062
1761336250062324000,0.407323974609375,0.08942504972219467,-0.5160411596298218,-0.9928147792816162
1761336250072391000,0.417390869140625,0.0943114161491394,-0.5352990627288818,-0.972502589225769
1761336250082458400,0.427458251953125,0.1232372298836708,-0.4960598945617676,-0.9493589401245117
1761336250092524000,0.43752392578125,0.16527336835861206,-0.4415082335472107,-0.9200460314750671
1761336250102591000,0.447591064453125,0.20180624723434448,-0.406209796667099,-0.88206547498703
1761336250112657200,0.4576572265625,0.2068832963705063,-0.3881639242172241,-0.8400037884712219
1761336250122724000,0.46772412109375,0.18074017763137817,-0.3607301712036133,-0.8000876307487488
1761336250132791000,0.477791015625,0.13459184765815735,-0.3273434638977051,-0.7575905323028564
1761336250142857000,0.48785693359375,0.09496646374464035,-0.2751886546611786,-0.7200680375099182
1761336250152924200,0.497924072265625,0.06455742567777634,-0.1907811015844345,-0.6790623068809509
1761336250162990000,0.507989990234375,0.03164428099989891,-0.0777740329504013,-0.6270411014556885
1761336250173057000,0.51805712890625,-0.013708550482988358,0.025601089000701904,-0.5828483700752258
1761336250183124000,0.5281240234375,-0.06640486419200897,0.08066103607416153,-0.5690572261810303
1761336250193190100,0.538190185546875,-0.10129281133413315,0.07380152493715286,-0.58014315366745
1761336250203257000,0.548257080078125,-0.10320080816745758,0.0580514594912529,-0.5720969438552856
1761336250213323000,0.558322998046875,-0.08297277241945267,0.1003938540816307,-0.518476128578186
1761336250223390200,0.56839013671875,-0.04835580289363861,0.16084787249565125,-0.4283023178577423
1761336250233457200,0.57845703125,-0.0034695537760853767,0.19664129614830017,-0.32848864793777466
1761336250243523000,0.588523193359375,0.04717298597097397,0.2165205478668213,-0.2272542268037796
1761336250253590000,0.598590087890625,0.09509497135877609,0.22456702589988708,-0.12194965779781342
1761336250263656200,0.60865625,0.1179041936993599,0.2722049057483673,-0.02721329592168331
1761336250273723100,0.61872314453125,0.11542079597711563,0.33701637387275696,0.04723697155714035
1761336250283789000,0.6287890625,0.10177942365407944,0.378996342420578,0.08890963345766068
1761336250293856300,0.638856201171875,0.07686901837587357,0.3801199197769165,0.08990433067083359
1761336250303923200,0.648923095703125,0.05588037893176079,0.3154105544090271,0.06814378499984741
1761336250313989000,0.658989013671875,0.03995067998766899,0.22938057780265808,0.04285813868045807
1761336250324056000,0.66905615234375,0.03572336956858635,0.19405391812324524,0.029577691107988358
1761336250334122200,0.679122314453125,0.03682112321257591,0.20482853055000305,0.019170325249433517
1761336250344189200,0.689189208984375,0.04632530361413956,0.22879958152770996,0.007352939806878567
1761336250354256100,0.699256103515625,0.058650944381952286,0.2415124475955963,-0.005961000919342041
1761336250364322300,0.709322265625,0.06596756726503372,0.22938129305839539,-0.02121807634830475
1761336250374389200,0.71938916015625,0.06079331785440445,0.19321610033512115,-0.032210808247327805
1761336250384455200,0.729455078125,0.057776737958192825,0.131294384598732,-0.04829234257340431
1761336250394522000,0.739522216796875,0.06165536865592003,0.06597422808408737,-0.05826215073466301
1761336250404589000,0.749589111328125,0.07066768407821655,-0.0023645395413041115,-0.06688408553600311
1761336250414655200,0.7596552734375,0.08222819864749908,-0.08025507628917694,-0.09091432392597198
1761336250424722200,0.76972216796875,0.10832761228084564,-0.14081531763076782,-0.11143822222948074
1761336250434788400,0.779788330078125,0.15066015720367432,-0.15265439450740814,-0.11406037211418152
1761336250444855300,0.789855224609375,0.19540689885616302,-0.12640123069286346,-0.10022696852684021
1761336250454922200,0.799922119140625,0.24229319393634796,-0.07302109897136688,-0.06796037405729294
1761336250464988200,0.80998828125,0.27876245975494385,-0.006097450852394104,-0.01773197017610073
1761336250475055000,0.82005517578125,0.31001466512680054,0.05717020481824875,0.0326441153883934
1761336250485121300,0.830121337890625,0.3301849663257599,0.09999570995569229,0.08345820754766464
1761336250495188200,0.840188232421875,0.3488401472568512,0.12087782472372055,0.14221367239952087
1761336250505255200,0.850255126953125,0.3571508824825287,0.12994256615638733,0.19797535240650177
1761336250515321300,0.8603212890625,0.361984521150589,0.134431853890419,0.25571826100349426
1761336250525388300,0.87038818359375,0.35618987679481506,0.1361919492483139,0.3019809126853943
1761336250535454200,0.8804541015625,0.3367311954498291,0.13950785994529724,0.3387916386127472
1761336250545521200,0.890521240234375,0.3219100832939148,0.15363141894340515,0.365479975938797
1761336250555588400,0.90058837890625,0.31456801295280457,0.1588355004787445,0.3789723515510559
1761336250565654300,0.910654296875,0.3209350109100342,0.14339269697666168,0.3793444335460663
1761336250575721200,0.92072119140625,0.3336758315563202,0.1272273063659668,0.3785436153411865
1761336250585787400,0.930787353515625,0.3471626341342926,0.11586105823516846,0.3718390166759491
1761336250595854300,0.940854248046875,0.34289467334747314,0.09682690352201462,0.35066768527030945
1761336250605921300,0.95092138671875,0.331023633480072,0.06611625105142593,0.30979421734809875
1761336250615987200,0.9609873046875,0.30890312790870667,0.008762147277593613,0.26039522886276245
1761336250626054400,0.971054443359375,0.27606910467147827,-0.05255039781332016,0.2044963240623474
1761336250636120300,0.981120361328125,0.23013997077941895,-0.10824961215257645,0.137169748544693
1761336250646187300,0.991187255859375,0.16969998180866241,-0.1445002257823944,0.05969497561454773
1761336250656253400,1.00125341796875,0.11163240671157837,-0.15209104120731354,-0.027220483869314194
1761336250666320400,1.0113203125,0.062460415065288544,-0.1425876021385193,-0.11145711690187454
1761336250676387300,1.02138720703125,0.019974209368228912,-0.10549483448266983,-0.17374712228775024
1761336250686453200,1.031453369140625,-0.004818919580429792,-0.028887983411550522,-0.19860641658306122
1761336250696520400,1.0415205078125,-0.031093934550881386,0.051490478217601776,-0.18664589524269104
1761336250706586000,1.051586181640625,-0.06657753884792328,0.10683275759220123,-0.14737364649772644
1761336250716653000,1.061653076171875,-0.0976041629910469,0.10712570697069168,-0.08970528095960617
1761336250726720300,1.07172021484375,-0.12213034927845001,0.06609004735946655,-0.03501569852232933
1761336250736786200,1.0817861328125,-0.13038907945156097,0.01376904733479023,0.01993490196764469
1761336250746853000,1.09185302734375,-0.13351769745349884,-0.03703102469444275,0.05736550688743591
1761336250756919000,1.1019189453125,-0.12574046850204468,-0.05112553760409355,0.07794161885976791
1761336250766986200,1.111986328125,-0.10208608210086823,-0.04243095964193344,0.07945077121257782
1761336250777053200,1.12205322265625,-0.07359744608402252,-0.012020321562886238,0.06259642541408539
1761336250787119000,1.132119140625,-0.03256768733263016,0.01684742048382759,0.04286022484302521
1761336250797186000,1.14218603515625,0.003163143526762724,0.034374482929706573,0.031179867684841156
1761336250807252200,1.152252197265625,0.021429620683193207,0.06247171014547348,0.04162655770778656
1761336250817319200,1.162319091796875,0.026915468275547028,0.10868474096059799,0.07225291430950165
1761336250827386000,1.17238623046875,0.015307920053601265,0.16696567833423615,0.1038178950548172
1761336250837452300,1.182452392578125,0.009641778655350208,0.2323894202709198,0.1304417848587036
1761336250847519200,1.192519287109375,0.0012684324756264687,0.26029008626937866,0.1629193127155304
1761336250857585200,1.202585205078125,-0.0025984779931604862,0.25397226214408875,0.18648722767829895
1761336250867652000,1.212652099609375,-0.00582948187366128,0.22399172186851501,0.20071208477020264
1761336250877719000,1.222718994140625,-0.006031083408743143,0.18686938285827637,0.18934811651706696
1761336250887785200,1.23278515625,0.0069176312536001205,0.15386079251766205,0.16660325229167938
1761336250897852200,1.24285205078125,0.03158649057149887,0.15090814232826233,0.14279858767986298
1761336250907918300,1.25291845703125,0.05986758694052696,0.1837805062532425,0.12771998345851898
1761336250917985300,1.2629853515625,0.07941864430904388,0.20919238030910492,0.10835852473974228
1761336250928052200,1.27305224609375,0.0909036174416542,0.2069784253835678,0.08721643686294556
1761336250938118100,1.2831181640625,0.10635368525981903,0.18116652965545654,0.06874848157167435
1761336250948185000,1.29318505859375,0.11813914775848389,0.14730077981948853,0.07068490982055664
1761336250958251300,1.303251220703125,0.12444258481264114,0.14329032599925995,0.08576053380966187
1761336250968318200,1.313318115234375,0.11896748095750809,0.14228597283363342,0.10637335479259491
1761336250978385200,1.32338525390625,0.1062583401799202,0.14036929607391357,0.11371968686580658
1761336250988451300,1.333451416015625,0.09433773905038834,0.14107057452201843,0.11089878529310226
1761336250998518300,1.343518310546875,0.0948282927274704,0.1530076563358307,0.10568112134933472
1761336251008584200,1.353584228515625,0.09405191242694855,0.14149527251720428,0.09989990293979645
1761336251018651100,1.363651123046875,0.09827568382024765,0.14375442266464233,0.09444814920425415
1761336251028717300,1.37371728515625,0.1046312004327774,0.15404516458511353,0.10161495953798294
1761336251038784300,1.3837841796875,0.11688920855522156,0.20018336176872253,0.11084441095590591
1761336251048851200,1.393851318359375,0.1407398283481598,0.25137433409690857,0.11315137147903442
1761336251058917400,1.40391748046875,0.18165503442287445,0.31417328119277954,0.09582217782735825
1761336251068984300,1.413984375,0.23596109449863434,0.35279250144958496,0.0625305026769638
1761336251079050200,1.42405029296875,0.2815040946006775,0.35376694798469543,0.035516999661922455
1761336251089117200,1.4341171875,0.3203423321247101,0.3360101878643036,0.013932301662862301
1761336251099184400,1.444184326171875,0.33098217844963074,0.2929396629333496,0.006715668365359306
1761336251109250300,1.454250244140625,0.33513668179512024,0.23016248643398285,0.019582360982894897
1761336251119317200,1.464317138671875,0.3352828919887543,0.15056060254573822,0.04342803731560707
1761336251129383400,1.474383544921875,0.34772443771362305,0.07365919649600983,0.07803359627723694
1761336251139450400,1.484450439453125,0.3652648329734802,0.02579313889145851,0.11263365298509598
1761336251149517300,1.494517333984375,0.37493547797203064,0.005827043205499649,0.15094847977161407
1761336251159583200,1.504583251953125,0.38114091753959656,0.05005096644163132,0.17699205875396729
1761336251169650400,1.514650390625,0.3821839392185211,0.11816397309303284,0.1870092749595642
1761336251179716000,1.524716064453125,0.38769641518592834,0.20270682871341705,0.16739270091056824
1761336251189783300,1.534783203125,0.4059475064277649,0.2548014223575592,0.12195103615522385
1761336251199849200,1.54484912109375,0.4190499782562256,0.2626793086528778,0.07589831948280334
1761336251209916200,1.554916259765625,0.4221513867378235,0.2165900617837906,0.04409177601337433
1761336251219983400,1.5649833984375,0.4250939190387726,0.15945273637771606,0.04513014853000641
1761336251230049000,1.575049072265625,0.4229535460472107,0.10577566176652908,0.0647837370634079
1761336251240116200,1.5851162109375,0.4158216118812561,0.04998776689171791,0.08919667452573776
1761336251250182100,1.59518212890625,0.39816814661026,0.010724295862019062,0.100143201649189
1761336251260249000,1.6052490234375,0.3749088943004608,0.002036530524492264,0.08544787764549255
1761336251270316000,1.61531591796875,0.339561402797699,0.022550489753484726,0.052652180194854736
1761336251280382200,1.62538232421875,0.2986251711845398,0.03700612857937813,0.008917481638491154
1761336251290449200,1.63544921875,0.2610147297382355,0.08260823041200638,-0.02645980939269066
1761336251300515000,1.64551513671875,0.24285383522510529,0.14005395770072937,-0.06682880222797394
1761336251310582300,1.655582275390625,0.24038071930408478,0.16597232222557068,-0.09848780184984207
1761336251320649200,1.665649169921875,0.25462302565574646,0.21348683536052704,-0.13529188930988312
1761336251330715100,1.675715087890625,0.2634056806564331,0.2651660144329071,-0.14843875169754028
1761336251340782000,1.685781982421875,0.24692313373088837,0.25009945034980774,-0.1149018183350563
1761336251350848300,1.69584814453125,0.22721222043037415,0.1877691000699997,-0.05178425833582878
1761336251360915200,1.705915283203125,0.19130589067935944,0.15539836883544922,-0.004276659805327654
1761336251370981600,1.715981689453125,0.16561803221702576,0.17606130242347717,0.019317971542477608
1761336251381047800,1.7260478515625,0.12470228224992752,0.20619070529937744,0.07060965895652771
1761336251391114800,1.73611474609375,0.049590304493904114,0.1754206418991089,0.14332705736160278
1761336251401180700,1.7461806640625,-0.026342544704675674,0.14763802289962769,0.20619603991508484
1761336251411247600,1.75624755859375,-0.0675211027264595,0.14436300098896027,0.24350714683532715
1761336251421313800,1.766313720703125,-0.0778307318687439,0.12002064287662506,0.2645527720451355
1761336251431380700,1.776380615234375,-0.07924569398164749,0.09173846244812012,0.26337161660194397
1761336251441447700,1.78644775390625,-0.07541553676128387,0.08466457575559616,0.25391286611557007
1761336251451513900,1.796513916015625,-0.05369240418076515,0.12097826600074768,0.23908942937850952
1761336251461580800,1.806580810546875,-0.000029441434890031815,0.19650045037269592,0.21154382824897766
1761336251471646700,1.816646728515625,0.06994470208883286,0.2888367474079132,0.18538734316825867
1761336251481713700,1.826713623046875,0.15517358481884003,0.31448647379875183,0.15452928841114044
1761336251491780900,1.83678076171875,0.2350076138973236,0.3068963289260864,0.13849246501922607
1761336251501846800,1.8468466796875,0.3051307797431946,0.2973419725894928,0.12999485433101654
1761336251511913700,1.856913818359375,0.3511955738067627,0.26353392004966736,0.12047696858644485
1761336251521980000,1.86697998046875,0.37075063586235046,0.25575748085975647,0.09735620766878128
1761336251532046800,1.877046875,0.38828039169311523,0.27070289850234985,0.08208924531936646
1761336251542113800,1.88711376953125,0.3915465176105499,0.2962266206741333,0.06857902556657791
1761336251552179700,1.8971796875,0.3977360725402832,0.32537007331848145,0.051790446043014526
1761336251562247000,1.907246826171875,0.40027087926864624,0.35473594069480896,0.01956379972398281
1761336251572312800,1.917312744140625,0.4054919183254242,0.37717217206954956,-0.012264234013855457
1761336251582379800,1.9273798828125,0.4079148471355438,0.3928840160369873,-0.052962660789489746
1761336251592445700,1.93744580078125,0.4398140609264374,0.3996667265892029,-0.11392848938703537
1761336251602513000,1.947512939453125,0.479814738035202,0.3810863792896271,-0.18662452697753906
1761336251612579800,1.957579833984375,0.4789690375328064,0.3720017969608307,-0.2646796405315399
1761336251622645500,1.9676455078125,0.4151644706726074,0.37672972679138184,-0.3257850706577301
1761336251632713000,1.977712890625,0.3316498398780823,0.3739278316497803,-0.3753085136413574
1761336251642778600,1.987778564453125,0.2404291182756424,0.35010719299316406,-0.40601688623428345
1761336251652845600,1.997845458984375,0.1619078367948532,0.29125550389289856,-0.4133346378803253
1761336251662912800,2.007912841796875,0.09483371675014496,0.2547198534011841,-0.39113426208496094
1761336251672978700,2.017978759765625,0.06777268648147583,0.2365320920944214,-0.2960205376148224
1761336251683045600,2.028045654296875,0.02193169854581356,0.29703113436698914,-0.15671990811824799
1761336251693111600,2.038111572265625,-0.024980906397104263,0.3620239496231079,-0.013811643235385418
1761336251703178800,2.0481787109375,-0.053451694548130035,0.3694443106651306,0.07653503119945526
1761336251713245700,2.05824560546875,-0.05669231340289116,0.3416244685649872,0.11156763136386871
1761336251723311600,2.0683115234375,-0.08351221680641174,0.3561733067035675,0.10954229533672333
1761336251733378600,2.078378662109375,-0.08594419807195663,0.37482479214668274,0.12826727330684662
1761336251743444700,2.08844482421875,-0.07958856225013733,0.3752245306968689,0.1144324317574501
1761336251753511700,2.09851171875,-0.02984972670674324,0.3663841485977173,0.057532235980033875
1761336251763577600,2.10857763671875,0.06941374391317368,0.33362725377082825,0.006139884702861309
1761336251773644800,2.118644775390625,0.19070959091186523,0.29911449551582336,-0.03276559337973595
1761336251783711700,2.128711669921875,0.2978094220161438,0.2581646740436554,-0.0717950239777565
1761336251793777700,2.138777587890625,0.3961719870567322,0.17329345643520355,-0.11508029699325562
1761336251803844600,2.1488447265625,0.4950977861881256,0.11294542253017426,-0.1503317505121231
1761336251813910800,2.158910888671875,0.5864635705947876,0.08625245094299316,-0.17138917744159698
1761336251823977700,2.168977783203125,0.6705888509750366,0.0869952067732811,-0.18301014602184296
1761336251834044700,2.179044677734375,0.7400010824203491,0.10373952239751816,-0.17973433434963226
1761336251844110800,2.18911083984375,0.8023589849472046,0.13166408240795135,-0.1558961123228073
1761336251854177800,2.199177734375,0.8500030636787415,0.13289178907871246,-0.10300977528095245
1761336251864243700,2.20924365234375,0.9054287672042847,0.1965906172990799,-0.014006931334733963
1761336251874310700,2.219310546875,0.9986302256584167,0.19026821851730347,0.12157458811998367
1761336251884377600,2.229377685546875,1.0820982456207275,0.15706872940063477,0.290446937084198
1761336251894443800,2.23944384765625,1.140325903892517,0.2087765485048294,0.46213531494140625
1761336251904510700,2.2495107421875,1.1488807201385498,0.22038154304027557,0.5704146027565002
1761336251914577000,2.259576904296875,1.1325405836105347,0.0705924928188324,0.6063939332962036
1761336251924643800,2.269643798828125,1.0790296792984009,-0.13441285490989685,0.5741185545921326
1761336251934709800,2.279709716796875,0.9792661666870117,-0.3201042115688324,0.5546143054962158
1761336251944776700,2.289776611328125,0.9161487221717834,-0.4634968042373657,0.5353658199310303
1761336251954843600,2.29984375,0.8600836992263794,-0.44399791955947876,0.4311789274215698
1761336251964909800,2.309909912109375,0.7816134095191956,-0.24562221765518188,0.24925972521305084
1761336251974976800,2.319976806640625,0.7040573954582214,0.01016971655189991,0.0638144239783287
1761336251985042700,2.330042724609375,0.4902407228946686,0.29561156034469604,-0.15436770021915436
1761336251995110000,2.34010986328125,0.09717361629009247,0.5109830498695374,-0.3772851824760437
1761336252005176800,2.3501767578125,-0.2519303262233734,0.5340649485588074,-0.45711076259613037
1761336252015242800,2.36024267578125,-0.3231043219566345,0.37159430980682373,-0.42187952995300293
1761336252025309700,2.370309814453125,-0.2567442059516907,0.24485954642295837,-0.32991498708724976
1761336252035375900,2.3803759765625,-0.16079594194889069,0.12901686131954193,-0.2334395796060562
1761336252045442800,2.39044287109375,-0.10804909467697144,0.04338610917329788,-0.1560577005147934
1761336252055509800,2.400509765625,-0.07930316776037216,0.012477876618504524,-0.044662248343229294
1761336252065576000,2.410575927734375,-0.07389482110738754,-0.0427321121096611,0.07639120519161224
1761336252075643000,2.420642822265625,-0.04889117553830147,-0.1016235426068306,0.12077590078115463
1761336252085708500,2.43070849609375,-0.026691865175962448,-0.12173733115196228,0.1120511144399643
1761336252095775700,2.440775634765625,-0.014065718278288841,-0.11193534731864929,0.08240586519241333
1761336252105841700,2.450841552734375,-0.012105630710721016,-0.08298172801733017,0.045349571853876114
1761336252115908600,2.46090869140625,-0.0077352398075163364,-0.038600221276283264,0.027959223836660385
1761336252125975600,2.4709755859375,-0.005883544217795134,-0.004284856840968132,0.007931719534099102
1761336252136041700,2.481041748046875,0.010332761332392693,0.018917573615908623,-0.003066878765821457
1761336252146108700,2.491108642578125,0.024613697081804276,0.0294176172465086,-0.02167491801083088
1761336252156174600,2.501174560546875,0.027051178738474846,0.03269287198781967,-0.027797922492027283
1761336252166241500,2.511241455078125,0.013212860561907291,0.022470861673355103,-0.017519187182188034
1761336252176308700,2.521308837890625,-0.006236547604203224,0.01070928480476141,-0.001197541132569313
1761336252186374700,2.531374755859375,-0.02551889792084694,0.00463514681905508,0.003039548173546791
1761336252196441600,2.541441650390625,-0.04389108344912529,0.00030622072517871857,-0.004397048614919186
1761336252206507800,2.5515078125,-0.05719943344593048,0.0052045732736587524,-0.014230770990252495
1761336252216574700,2.56157470703125,-0.0663735568523407,0.023593496531248093,-0.022097505629062653
1761336252226641700,2.5716416015625,-0.08234666287899017,0.030641820281744003,-0.03344736248254776
1761336252236707600,2.58170751953125,-0.08559773862361908,0.035139624029397964,-0.02998071163892746
1761336252246774800,2.59177490234375,-0.08579561114311218,0.02753496915102005,-0.021835964173078537
1761336252256840700,2.6018408203125,-0.08435733616352081,0.01578167825937271,-0.018109124153852463
1761336252266907600,2.61190771484375,-0.08422151207923889,0.012042068876326084,-0.015340766869485378
1761336252276973800,2.621973876953125,-0.07891224324703217,0.012779942713677883,-0.018760420382022858
1761336252287040800,2.632040771484375,-0.06764520704746246,0.01658586785197258,-0.02317088097333908
1761336252297107700,2.642107666015625,-0.058589737862348557,0.009680978953838348,-0.03666837513446808
1761336252307173600,2.652173583984375,-0.04115669056773186,-0.009128394536674023,-0.041655413806438446
1761336252317240800,2.66224072265625,-0.03899385407567024,-0.08782815933227539,-0.053529322147369385
1761336252327306800,2.672306640625,-0.01906968094408512,-0.02001209184527397,-0.05744735896587372
1761336252337373700,2.682373779296875,-0.015243224799633026,-0.022351475432515144,-0.018255941569805145
1761336252347440600,2.692440673828125,-0.014534557238221169,-0.03201741725206375,0.023786582052707672
1761336252357506800,2.7025068359375,-0.0074850767850875854,-0.04441389441490173,0.033216413110494614
1761336252367573500,2.712573486328125,0.002621352905407548,-0.046767860651016235,0.00954996608197689
1761336252377639400,2.722639404296875,0.003632111707702279,-0.03676709532737732,-0.009480511769652367
1761336252387706600,2.73270654296875,0.006663854233920574,-0.03127752244472504,-0.0198439359664917
1761336252397772500,2.7427724609375,0.022413643077015877,-0.028719749301671982,-0.0139406006783247
1761336252407839500,2.752839599609375,0.0354362353682518,-0.03003854677081108,-0.00045994576066732407
1761336252417906400,2.762906494140625,0.04808672517538071,-0.03617419674992561,0.006051074713468552
1761336252427972600,2.77297265625,0.054098278284072876,-0.04534319415688515,0.005835358053445816
1761336252438039600,2.78303955078125,0.05806287005543709,-0.05147751420736313,0.00433106254786253
1761336252448105500,2.79310546875,0.06710589677095413,-0.058674439787864685,0.008180394768714905
1761336252458172700,2.803172607421875,0.07468344271183014,-0.050968144088983536,0.013436399400234222
1761336252468239600,2.813239501953125,0.07289592921733856,-0.038515202701091766,0.009526345878839493
1761336252478305500,2.823305419921875,0.07816937565803528,-0.025995075702667236,-0.005276928190141916
1761336252488372500,2.83337255859375,0.08599960058927536,-0.01754033751785755,-0.02640671469271183
1761336252498438700,2.843438720703125,0.10560150444507599,-0.015157666057348251,-0.04298309609293938
1761336252508505600,2.853505615234375,0.11282506585121155,-0.018601132556796074,-0.0446944423019886
1761336252518572500,2.863572509765625,0.1172880306839943,-0.021124515682458878,-0.03349733725190163
1761336252528638700,2.873638671875,0.11742118746042252,-0.027049781754612923,-0.018252871930599213
1761336252538705700,2.88370556640625,0.1128598004579544,-0.032618872821331024,-0.0016775615513324738
1761336252548771600,2.893771484375,0.10787995904684067,-0.023347608745098114,0.01127631962299347
1761336252558838500,2.903838623046875,0.09693202376365662,-0.007946819998323917,0.015182786621153355
1761336252568904700,2.91390478515625,0.08444606512784958,0.010347499512135983,0.00931824091821909
1761336252578971600,2.9239716796875,0.08242050558328629,0.021391592919826508,-0.0126756327226758
1761336252589038600,2.93403857421875,0.07761190086603165,0.026042267680168152,-0.03118513524532318
1761336252599104800,2.944104736328125,0.07079201936721802,0.039597947150468826,-0.028863422572612762
1761336252609171700,2.954171630859375,0.05564954876899719,0.05582538619637489,-0.016734320670366287
1761336252619237600,2.964237548828125,0.04304539039731026,0.06594384461641312,-0.013455437496304512
1761336252629304600,2.9743046875,0.03915717452764511,0.06269612163305283,-0.019357267767190933
1761336252639371500,2.98437158203125,0.030133845284581184,0.04080725461244583,-0.017792019993066788
1761336252649437700,2.994437744140625,0.02433614246547222,0.010569723322987556,-0.005522570107132196
1761336252659504600,3.004504638671875,0.017057744786143303,-0.016704127192497253,0.012455286458134651
1761336252669570600,3.014570556640625,0.010131929069757462,-0.02415059134364128,0.022171031683683395
1761336252679637800,3.0246376953125,-0.002935605589300394,-0.0123039735481143,0.02455352619290352
1761336252689704700,3.03470458984375,-0.015389079228043556,0.0028811050578951836,0.001398937776684761
1761336252699770600,3.0447705078125,-0.019084300845861435,0.014218254014849663,-0.024374021217226982
1761336252709837600,3.054837646484375,-0.014527900144457817,0.0229177363216877,-0.02958928979933262
1761336252719903700,3.06490380859375,-0.012232455424964428,0.01406706403940916,-0.024928994476795197
1761336252729970700,3.074970703125,-0.012600238434970379,0.00714471098035574,0.00000804755836725235
1761336252740036600,3.08503662109375,-0.012708133086562157,-0.0053259581327438354,0.019614819437265396
1761336252750103800,3.095103759765625,-0.01345222070813179,-0.022001074627041817,0.01772184483706951
1761336252760170800,3.105170654296875,-0.010062634944915771,-0.03981834650039673,0.004126721061766148
1761336252770236400,3.115236328125,-0.004083838313817978,-0.03852191939949989,-0.005512590520083904
1761336252780303600,3.1253037109375,-0.0028372989036142826,-0.025411905720829964,-0.007513375952839851
1761336252790369500,3.13536962890625,-0.004901781212538481,-0.0004647448658943176,-0.009717142209410667
1761336252800436500,3.1454365234375,-0.006893155165016651,0.016001151874661446,-0.015042991377413273
1761336252810503700,3.155503662109375,-0.006933368742465973,0.026812253519892693,-0.0172203928232193
1761336252820569600,3.165569580078125,-0.002841782756149769,0.043155401945114136,-0.008666682057082653
1761336252830636500,3.175636474609375,0.0028304841835051775,0.05930906906723976,-0.0017693610861897469
1761336252840702500,3.185702392578125,0.005574008449912071,0.06432957947254181,-0.007791065610945225
1761336252850769400,3.195769287109375,0.007132756523787975,0.06455355137586594,-0.010602298192679882
1761336252860835600,3.205835693359375,0.013045068830251694,0.055690158158540726,-0.012618745677173138
1761336252870902500,3.215902587890625,0.022133372724056244,0.044077977538108826,-0.0048665497452020645
1761336252880969500,3.225969482421875,0.03162423521280289,0.040586140006780624,0.0072094229981303215
1761336252891035600,3.23603564453125,0.0359358936548233,0.04015923663973808,0.007026730105280876
1761336252901102600,3.2461025390625,0.03939367085695267,0.04336031898856163,-0.00235282676294446
1761336252911168500,3.25616845703125,0.0392322801053524,0.05182677134871483,-0.0067398520186543465
1761336252921235500,3.2662353515625,0.03747954219579697,0.060186583548784256,-0.0030032037757337093
1761336252931302700,3.276302734375,0.03516605496406555,0.05203012004494667,0.0021622637286782265
1761336252941368600,3.28636865234375,0.03171578794717789,0.042582977563142776,0.002583371475338936
1761336252951435500,3.296435546875,0.021856768056750298,0.03405527025461197,0.01199524849653244
1761336252961501700,3.306501708984375,0.01628692075610161,0.0281586404889822,0.018077345564961433
1761336252971568600,3.316568603515625,0.011020252481102943,0.02154121734201908,0.01029825210571289
1761336252981634600,3.326634521484375,0.0028620536904782057,0.0197107195854187,0.009012273512780666
1761336252991701500,3.336701416015625,-0.004666170105338097,0.023575767874717712,0.003504323773086071
1761336253001768700,3.346768798828125,-0.010630650445818901,0.020388681441545486,-0.006762458942830563
1761336253011834600,3.356834716796875,-0.011735329404473305,0.020329825580120087,-0.01402196940034628
1761336253021901600,3.366901611328125,-0.0073671056888997555,0.011052482761442661,-0.014055119827389717
1761336253031967700,3.3769677734375,0.0022943103685975075,-0.0022771721705794334,-0.009937073104083538
1761336253042034700,3.38703466796875,0.008135090582072735,-0.010920541360974312,0.004274322651326656
1761336253052101600,3.3971015625,0.009206480346620083,-0.021284233778715134,0.008186772465705872
1761336253062167600,3.40716748046875,0.009270252659916878,-0.031935203820466995,0.010170732624828815
1761336253072234800,3.41723486328125,0.0014086011797189713,-0.041792891919612885,0.0055030109360814095
1761336253082300700,3.42730078125,-0.008196664974093437,-0.049791932106018066,0.0027233604341745377
1761336253092367600,3.43736767578125,-0.024747144430875778,-0.05263618379831314,0.010851327329874039
1761336253102434600,3.4474345703125,-0.038688912987709045,-0.04497692734003067,0.021218998357653618
1761336253112500700,3.457500732421875,-0.04681021720170975,-0.03383585810661316,0.02303340844810009
1761336253122567700,3.467567626953125,-0.050311584025621414,-0.022189099341630936,0.006073992699384689
1761336253132633600,3.477633544921875,-0.051097750663757324,-0.0042606983333826065,-0.011669850908219814
1761336253142700800,3.48770068359375,-0.0513860248029232,0.006254983134567738,-0.01661285012960434
1761336253152766700,3.4977666015625,-0.048938848078250885,0.00994506012648344,-0.014785654842853546
1761336253162833700,3.507833740234375,-0.048963986337184906,0.010168986395001411,-0.005016521085053682
1761336253172900600,3.517900634765625,-0.04702307656407356,0.0015472685918211937,0.005710159428417683
1761336253182966800,3.527966796875,-0.04353416711091995,-0.0038613053038716316,0.010495343245565891
1761336253193033700,3.53803369140625,-0.04629533365368843,-0.01735394448041916,0.013867969624698162
1761336253203099400,3.548099365234375,-0.05289342626929283,-0.02505425550043583,0.01432616077363491
1761336253213166600,3.55816650390625,-0.055920641869306564,-0.01645011454820633,0.018922511488199234
1761336253223233800,3.56823388671875,-0.05495378375053406,-0.007478028070181608,0.012290233746170998
1761336253233299500,3.578299560546875,-0.05183681845664978,0.0035682320594787598,-0.0037795461248606443
1761336253243366700,3.58836669921875,-0.05022333562374115,0.0006456030532717705,-0.00963254738599062
1761336253253432600,3.5984326171875,-0.046683989465236664,-0.006450389977544546,-0.01119875255972147
1761336253263499500,3.60849951171875,-0.042258042842149734,-0.013405004516243935,-0.003341252915561199
1761336253273565400,3.6185654296875,-0.0464559830725193,-0.025966335088014603,-0.006118397228419781
1761336253283632600,3.628632568359375,-0.040945060551166534,-0.03751490265130997,-0.01144247967749834
1761336253293699600,3.638699462890625,-0.037821974605321884,-0.05265071243047714,-0.02122506871819496
1761336253303765500,3.648765625,-0.036050379276275635,-0.045696936547756195,-0.021863020956516266
1761336253313832400,3.65883251953125,-0.03979345038533211,-0.031174186617136,-0.01857321709394455
1761336253323898600,3.668898681640625,-0.045372895896434784,-0.01666802354156971,-0.008718895725905895
1761336253333965600,3.678965576171875,-0.04865230992436409,0.005223959684371948,0.019404884427785873
1761336253344032500,3.689032470703125,-0.05454367771744728,0.03554975241422653,0.027454085648059845
1761336253354098400,3.699098388671875,-0.055475518107414246,0.059581320732831955,0.014840290881693363
1761336253364165600,3.70916552734375,-0.053188979625701904,0.08860532939434052,0.0018672477453947067
1761336253374232300,3.719232421875,-0.05082808807492256,0.11079852283000946,-0.01177239790558815
1761336253384299300,3.72929931640625,-0.043208424001932144,0.12376799434423447,-0.024670258164405823
1761336253394366500,3.739366455078125,-0.03848690539598465,0.11342746764421463,-0.03861670196056366
1761336253404432400,3.749432373046875,-0.04359378293156624,0.05988461524248123,-0.08314235508441925
1761336253414499300,3.759499267578125,-0.0325792133808136,0.09171045571565628,-0.13369368016719818
1761336253424565200,3.769565185546875,-0.03589050471782684,0.06980721652507782,-0.14907747507095337
1761336253434632200,3.779632080078125,-0.029225677251815796,0.05560537427663803,-0.14239028096199036
1761336253444698400,3.789698486328125,-0.025137759745121002,0.05722123757004738,-0.11677488684654236
1761336253454765300,3.799765380859375,-0.014762616716325283,0.05284300073981285,-0.09523443877696991
1761336253464832300,3.809832275390625,-0.014210715889930725,0.03287156671285629,-0.07097773998975754
1761336253474898400,3.8198984375,-0.001728213857859373,0.051161088049411774,-0.04597305878996849
1761336253484965400,3.82996533203125,0.0017131660133600235,0.04809602349996567,-0.014186522923409939
1761336253495031300,3.84003125,0.005044780671596527,0.03577810525894165,0.0008515482768416405
1761336253505098200,3.85009814453125,0.010405054315924644,0.019342828541994095,0.008363589644432068
1761336253515165400,3.86016552734375,0.0138637013733387,0.011146948672831059,0.010370546951889992
1761336253525231400,3.8702314453125,0.007647328544408083,0.015689920634031296,0.026234276592731476
1761336253535298300,3.88029833984375,-0.0029288833029568195,0.02866297774016857,0.02492959424853325
1761336253545364500,3.890364501953125,-0.005187301896512508,0.0281204953789711,0.014013690873980522
1761336253555431400,3.900431396484375,-0.004855205304920673,0.02619955688714981,0.007451928220689297
1761336253565497300,3.910497314453125,-0.00459581334143877,0.027245644479990005,0.008067917078733444
1761336253575564300,3.920564208984375,0.0037265645805746317,0.01806599646806717,0.018678750842809677
1761336253585631500,3.930631591796875,0.012440132908523083,0.020744409412145615,0.027134738862514496
1761336253595697400,3.940697509765625,0.019446643069386482,0.025967665016651154,0.025340300053358078
1761336253605764400,3.950764404296875,0.030279381200671196,0.036342885345220566,0.018949279561638832
1761336253615830500,3.96083056640625,0.04016290605068207,0.053558893501758575,0.0025942735373973846
1761336253625897500,3.9708974609375,0.04513945430517197,0.05999152734875679,-0.005978957284241915
1761336253635964400,3.98096435546875,0.04806360602378845,0.05754328891634941,-0.009536407887935638
1761336253646030300,3.9910302734375,0.05744487792253494,0.04283289983868599,0.00325654074549675
1761336253656097500,4.00109765625,0.059618014842271805,0.024756427854299545,0.016182726249098778
1761336253666163500,4.01116357421875,0.06881032139062881,0.014306559227406979,0.019619472324848175
1761336253676229400,4.0212294921875,0.071103036403656,0.007233736105263233,0.018608001992106438
1761336253686295600,4.031295654296875,0.0749286487698555,0.009132719598710537,0.01580696925520897
1761336253696362500,4.041362548828125,0.08009837567806244,0.017261486500501633,0.008163430728018284
1761336253706429400,4.051429443359375,0.07958751916885376,0.026130616664886475,0.002022571861743927
1761336253716495400,4.061495361328125,0.07311710715293884,0.04190957918763161,-0.00027520302683115005
1761336253726562600,4.0715625,0.06631365418434143,0.057565659284591675,-0.004649914335459471
1761336253736628200,4.081628173828125,0.060139648616313934,0.06428667902946472,-0.014822389930486679
1761336253746695200,4.091695068359375,0.04926988482475281,0.05834101513028145,-0.02064451575279236
1761336253756762600,4.1017626953125,0.04428870975971222,0.038763582706451416,-0.02335721254348755
1761336253766828300,4.111828369140625,0.017415465787053108,-0.036893557757139206,-0.022798698395490646
1761336253776895200,4.121895263671875,0.012281158939003944,-0.0378994345664978,-0.051724888384342194
1761336253786961400,4.13196142578125,0.026050101965665817,0.03304954618215561,-0.05968831852078438
1761336253797028400,4.1420283203125,0.015800127759575844,0.02619963139295578,-0.02732691913843155
1761336253807094300,4.15209423828125,0.016528740525245667,0.007538667879998684,0.0002931775525212288
1761336253817161200,4.1621611328125,0.023850305005908012,-0.015583961270749569,0.011118927970528603
1761336253827228400,4.172228515625,0.021770469844341278,-0.03771708533167839,0.00758580956608057
1761336253837294300,4.18229443359375,0.008095404133200645,-0.055740561336278915,0.007340798154473305
1761336253847361300,4.192361328125,-0.0014698076993227005,-0.06286843121051788,0.0025942763313651085
1761336253857427500,4.202427490234375,-0.013006621971726418,-0.0687289834022522,0.0005902480334043503
1761336253867494400,4.212494384765625,-0.02995445393025875,-0.06965199112892151,-0.0030115535482764244
1761336253877561300,4.222561279296875,-0.04350195825099945,-0.06562182307243347,-0.003794522723183036
1761336253887627300,4.232627197265625,-0.054525379091501236,-0.05741625279188156,-0.007424333598464727
1761336253897694500,4.242694580078125,-0.06159767508506775,-0.03947347030043602,0.00927315466105938
1761336253907760400,4.252760498046875,-0.06335461884737015,-0.01217979472130537,0.018460918217897415
1761336253917827300,4.262827392578125,-0.06672777980566025,0.010199546813964844,0.016660887748003006
1761336253927894300,4.272894287109375,-0.06367222964763641,0.02969411388039589,0.0012084124609827995
1761336253937960400,4.28296044921875,-0.05073725804686546,0.040802158415317535,-0.013889048248529434
1761336253948027400,4.29302734375,-0.03824672847986221,0.055776458233594894,-0.02402295172214508
1761336253958093300,4.30309326171875,-0.03158802539110184,0.05390798673033714,-0.03622289374470711
1761336253968160500,4.313160400390625,-0.030252547934651375,0.02573399432003498,-0.05744412541389465
1761336253978226400,4.323226318359375,-0.017502931877970695,0.04738523066043854,-0.07938643544912338
1761336253988293400,4.33329345703125,-0.010271888226270676,0.04022950679063797,-0.07695702463388443
1761336253998360300,4.3433603515625,-0.009842053055763245,0.032308999449014664,-0.07221712917089462
1761336254008426500,4.353426513671875,-0.004106058739125729,0.03563886508345604,-0.029696505516767502
1761336254018493400,4.363493408203125,-0.002313218079507351,0.031332265585660934,0.020934714004397392
1761336254028559400,4.373559326171875,0.0007133721373975277,0.024511903524398804,0.0350315123796463
1761336254038626600,4.38362646484375,0.0050266277976334095,0.02514094114303589,0.023215867578983307
1761336254048692500,4.3936923828125,0.006375151686370373,0.03795531392097473,0.0021297726780176163
1761336254058759400,4.403759521484375,0.011341148056089878,0.041043516248464584,-0.01250323187559843
1761336254068826400,4.413826416015625,0.016585610806941986,0.03888159990310669,-0.014261169359087944
1761336254078893300,4.423893310546875,0.01660558208823204,0.04033675044775009,-0.008046150207519531
1761336254088959500,4.43395947265625,0.013776177540421486,0.03772437945008278,0.00217343308031559
1761336254099026400,4.4440263671875,0.008332675322890282,0.04036303982138634,0.0014112358912825584
1761336254109092400,4.45409228515625,0.004093707539141178,0.03657412528991699,-0.003849071217700839
1761336254119159600,4.46415966796875,0.0027464141603559256,0.02795427106320858,-0.00076326634734869
1761336254129226500,4.4742265625,0.0015879389829933643,0.02554118074476719,0.005688508041203022
1761336254139292400,4.48429248046875,-0.0011122399009764194,0.018171949312090874,0.001998964697122574
1761336254149359400,4.494359375,-0.0011862670071423054,0.001088515855371952,0.002960510551929474
1761336254159425500,4.504425537109375,-0.00944526307284832,-0.007398978807032108,0.0010129408910870552
1761336254169492500,4.514492431640625,-0.01972593553364277,-0.00882086344063282,0.00004390580579638481
1761336254179558400,4.524558349609375,-0.03012983873486519,-0.01778080314397812,-0.004008360207080841
1761336254189625600,4.53462548828125,-0.028266694396734238,-0.021589122712612152,-0.010086492635309696
1761336254199692500,4.544692626953125,-0.02353026159107685,-0.02212495170533657,-0.006809738930314779
1761336254209758200,4.55475830078125,-0.02030515857040882,-0.01778503507375717,-0.001529456116259098
1761336254219825400,4.564825439453125,-0.023037828505039215,-0.015477672219276428,0.0004117218777537346
1761336254229891300,4.574891357421875,-0.03202984482049942,-0.014629797078669071,0.000353492796421051
1761336254239958300,4.584958251953125,-0.0355398915708065,-0.008688018657267094,-0.0007503875531256199
1761336254250025500,4.595025390625,-0.04289782792329788,-0.003985016606748104,-0.002883549313992262
1761336254260091400,4.60509130859375,-0.050499022006988525,-0.020008990541100502,0.0014992151409387589
1761336254270158300,4.615158447265625,-0.055034514516592026,-0.0322282612323761,0.007022547535598278
1761336254280224300,4.625224365234375,-0.06268683820962906,-0.04590386152267456,0.01540351565927267
1761336254290291200,4.635291259765625,-0.07311850786209106,-0.06274816393852234,0.014066576957702637
1761336254300357400,4.645357421875,-0.08575760573148727,-0.09110071510076523,0.009659046307206154
1761336254310424300,4.65542431640625,-0.09013272821903229,-0.1111011654138565,0.02814425155520439
1761336254320491300,4.6654912109375,-0.08737262338399887,-0.11457179486751556,0.0502074733376503
1761336254330557400,4.675557373046875,-0.06224213168025017,-0.07580704987049103,0.07428765296936035
1761336254340624400,4.685624267578125,-0.006256625056266785,0.03569098189473152,0.08884395658969879
1761336254350690300,4.695690185546875,0.05923470854759216,0.10455580055713654,0.09297038614749908
1761336254360757200,4.70575732421875,0.1244688406586647,0.12496014684438705,0.09723065048456192
1761336254370824400,4.715824462890625,0.17396004498004913,0.1352962851524353,0.11739327013492584
1761336254380890400,4.725890380859375,0.19603632390499115,0.15516826510429382,0.1412237584590912
1761336254390957300,4.735957275390625,0.1805223971605301,0.2069065272808075,0.16806240379810333
1761336254401023500,4.7460234375,0.13488806784152985,0.22604213654994965,0.19015972316265106
1761336254411090400,4.75609033203125,0.06320583075284958,0.2522229552268982,0.22243112325668335
1761336254421156400,4.76615625,-0.015688449144363403,0.36586350202560425,0.24212732911109924
1761336254431223300,4.776223388671875,-0.08538635820150375,0.49995511770248413,0.2539755702018738
1761336254441290500,4.78629052734375,-0.14857251942157745,0.6908372044563293,0.24277964234352112
1761336254451356400,4.7963564453125,-0.20670880377292633,0.8412764668464661,0.2186013013124466
1761336254461423400,4.80642333984375,-0.22157137095928192,0.913230836391449,0.22671063244342804
1761336254471489500,4.816489501953125,-0.20347021520137787,0.9300997853279114,0.296260267496109
1761336254481556500,4.826556396484375,-0.18388772010803223,0.8830851316452026,0.39786386489868164
1761336254491623400,4.83662353515625,-0.17154225707054138,0.8247165679931641,0.5028955936431885
1761336254501689300,4.846689453125,-0.1535978764295578,0.7410722970962524,0.5660383701324463
1761336254511756500,4.856756591796875,-0.10910509526729584,0.6125518679618835,0.5806377530097961
1761336254521822500,4.866822509765625,-0.0434001199901104,0.438281774520874,0.5405915379524231
1761336254531889400,4.876889404296875,0.031193070113658905,0.25752219557762146,0.472929984331131
1761336254541955600,4.88695556640625,0.11714978516101837,0.07525943219661713,0.40240412950515747
1761336254552022500,4.8970224609375,0.19235080480575562,-0.10551905632019043,0.3436909317970276
1761336254562089500,4.90708935546875,0.2632846534252167,-0.23849068582057953,0.27874788641929626
1761336254572155100,4.917155029296875,0.3268892467021942,-0.32108744978904724,0.22787757217884064
1761336254582222300,4.927222412109375,0.3782304525375366,-0.3852344751358032,0.1675255447626114
1761336254592288300,4.937288330078125,0.43554431200027466,-0.3922170102596283,0.10289501398801804
1761336254602355200,4.947355224609375,0.4942376911640167,-0.37145209312438965,0.035747405141592026
1761336254612422400,4.95742236328125,0.5427446961402893,-0.3687874972820282,-0.021419808268547058
1761336254622488300,4.96748828125,0.5679571032524109,-0.33849748969078064,-0.054017432034015656
1761336254632555300,4.97755517578125,0.5594303011894226,-0.2855055332183838,-0.04629633575677872
1761336254642621200,4.98762109375,0.5147557258605957,-0.2254941314458847,-0.011435022577643394
1761336254652688400,4.9976884765625,0.4550671875476837,-0.14812982082366943,0.032954659312963486
1761336254662754300,5.00775439453125,0.39532291889190674,-0.09143698960542679,0.06894434988498688
1761336254672821200,5.0178212890625,0.3437961935997009,-0.06995037198066711,0.10128191113471985
1761336254682888200,5.02788818359375,0.2972811758518219,-0.0018189912661910057,0.11690720915794373
1761336254692954400,5.037954345703125,0.2614363729953766,0.05640987679362297,0.1188969612121582
1761336254703021300,5.048021240234375,0.23919016122817993,0.10017652809619904,0.11567453294992447
1761336254713087200,5.058087158203125,0.2146475911140442,0.10696443915367126,0.11416878551244736
1761336254723154400,5.068154541015625,0.18598797917366028,0.05945071950554848,0.11685138940811157
1761336254733221400,5.078221435546875,0.15161755681037903,-0.02640054002404213,0.12816649675369263
1761336254743287300,5.088287353515625,0.1112980917096138,-0.124547079205513,0.1394633650779724
1761336254753354200,5.098354248046875,0.07444868981838226,-0.23980805277824402,0.13780932128429413
1761336254763420400,5.10842041015625,0.07461807131767273,-0.2420932948589325,0.0917062759399414
1761336254773487400,5.1184873046875,0.08223511278629303,-0.08886183053255081,-0.008020913228392601
1761336254783553300,5.12855322265625,0.05486447364091873,-0.03281613439321518,-0.12846237421035767
1761336254793620200,5.1386201171875,0.027652764692902565,0.0088396230712533,-0.2168055772781372
1761336254803687400,5.1486875,0.006411125883460045,0.04002363979816437,-0.25924304127693176
1761336254813753300,5.15875341796875,-0.005203329958021641,0.08267929404973984,-0.2412140816450119
1761336254823820300,5.1688203125,-0.01889384165406227,0.13998332619667053,-0.1855529546737671
1761336254833886500,5.178886474609375,-0.04065090790390968,0.17202165722846985,-0.11265331506729126
1761336254843953400,5.188953369140625,-0.0643538385629654,0.17509254813194275,-0.056409481912851334
1761336254854020400,5.199020263671875,-0.09313082695007324,0.14849251508712769,-0.018409715965390205
1761336254864086300,5.209086181640625,-0.12070412933826447,0.07195726782083511,-0.00566808832809329
1761336254874153500,5.219153564453125,-0.14636103808879852,-0.027963554486632347,-0.0017190435901284218
1761336254884219400,5.229219482421875,-0.14985057711601257,-0.10716409981250763,0.0014021815732121468
1761336254894286300,5.239286376953125,-0.1469881683588028,-0.2047700136899948,-0.00677561666816473
1761336254904352500,5.2493525390625,-0.13909882307052612,-0.28146371245384216,-0.02058117836713791
1761336254914419500,5.25941943359375,-0.1294153928756714,-0.34184449911117554,-0.05250992625951767
1761336254924486400,5.269486328125,-0.12073375284671783,-0.3884551525115967,-0.08286863565444946
1761336254934552300,5.27955224609375,-0.1070059984922409,-0.41001471877098083,-0.09950017929077148
1761336254944619500,5.28961962890625,-0.0944923385977745,-0.4222511649131775,-0.10318626463413239
1761336254954685400,5.299685546875,-0.08229179680347443,-0.4449838399887085,-0.0867374837398529
1761336254964752400,5.30975244140625,-0.07772314548492432,-0.44258272647857666,-0.06551501899957657
1761336254974818600,5.319818603515625,-0.08089081197977066,-0.4422236979007721,-0.04434686899185181
1761336254984885500,5.329885498046875,-0.08925047516822815,-0.4565906524658203,-0.021903878077864647
1761336254994952400,5.339952392578125,-0.10318274050951004,-0.4525769054889679,-0.007898814044892788
1761336255005018000,5.35001806640625,-0.11731107532978058,-0.42584437131881714,-0.013763893395662308
1761336255015085600,5.36008544921875,-0.11358047276735306,-0.3822338879108429,-0.03331843391060829
1761336255025151200,5.370151123046875,-0.09994801133871078,-0.3686719834804535,-0.07666803896427155
1761336255035218200,5.38021826171875,-0.08102027326822281,-0.37727952003479004,-0.12878166139125824
1761336255045285400,5.390285400390625,-0.05411754921078682,-0.41195520758628845,-0.19151882827281952
1761336255055351300,5.400351318359375,-0.021368494257330894,-0.4232347309589386,-0.25609061121940613
1761336255065418200,5.410418212890625,0.0006318790838122368,-0.3656790256500244,-0.30253294110298157
1761336255075484200,5.420484130859375,0.01499910093843937,-0.2684648633003235,-0.35430559515953064
1761336255085551400,5.43055126953125,0.008987546898424625,-0.17241206765174866,-0.4089336693286896
1761336255095617300,5.4406171875,-0.009486550465226173,-0.12325522303581238,-0.4551560580730438
1761336255105684200,5.450684326171875,-0.020394325256347656,-0.1293802261352539,-0.49239131808280945
1761336255115751200,5.460751220703125,-0.016363494098186493,-0.15485259890556335,-0.5038608312606812
1761336255125817300,5.4708173828125,0.003980392124503851,-0.18388158082962036,-0.4982772171497345
1761336255135884300,5.48088427734375,0.032596856355667114,-0.19683386385440826,-0.48211368918418884
1761336255145950200,5.4909501953125,0.09759711474180222,0.465733140707016,-0.6336188316345215
1761336255156017400,5.501017333984375,0.03833656758069992,1.505563497543335,-0.9600677490234375
1761336255166084400,5.51108447265625,-0.19300051033496857,1.1642402410507202,-1.0531121492385864
1761336255176150300,5.521150390625,-0.3348248600959778,0.7792571783065796,-0.8259324431419373
1761336255186217200,5.53121728515625,-0.2531188130378723,0.6187785267829895,-0.4786660969257355
1761336255196283400,5.541283447265625,-0.1298978179693222,0.44156116247177124,-0.13334490358829498
1761336255206350300,5.551350341796875,-0.05983377620577812,0.2704067528247833,0.20080164074897766
1761336255216416300,5.561416259765625,-0.04135362431406975,0.17599456012248993,0.42129406332969666
1761336255226483500,5.5714833984375,-0.02523830533027649,0.04306634142994881,0.4762105941772461
1761336255236550400,5.58155029296875,-0.009458692744374275,-0.08035226911306381,0.4031933844089508
1761336255246616300,5.5916162109375,0.004676566459238529,-0.17327289283275604,0.2776660919189453
1761336255256683300,5.601683349609375,-0.002327072899788618,-0.2266405075788498,0.1533341407775879
1761336255266749400,5.61174951171875,-0.01974334754049778,-0.20918801426887512,0.07149972766637802
1761336255276816400,5.62181640625,-0.04146019369363785,-0.14809878170490265,0.02328347973525524
1761336255286882300,5.63188232421875,-0.06728193908929825,-0.09560415148735046,-0.016658609732985497
1761336255296949500,5.641949462890625,-0.07832114398479462,-0.04689083248376846,-0.05131944641470909
1761336255307016400,5.652016357421875,-0.0789877325296402,-0.021683214232325554,-0.07558377087116241
1761336255317082400,5.662082275390625,-0.08158833533525467,-0.012545443139970303,-0.09370957314968109
1761336255327149300,5.6721494140625,-0.07626600563526154,-0.0004443051293492317,-0.09628511965274811
1761336255337215500,5.682215576171875,-0.06687410920858383,0.017243001610040665,-0.07377330958843231
1761336255347282400,5.692282470703125,-0.05692720040678978,0.023058544844388962,-0.03085567057132721
1761336255357349400,5.702349365234375,-0.0406770221889019,0.03385869041085243,0.010661130771040916
1761336255367415600,5.71241552734375,-0.022035162895917892,0.03232550993561745,0.03228146955370903
1761336255377482000,5.72248193359375,-0.00030462583526968956,0.0185023695230484,0.02806900627911091
1761336255387548000,5.7325478515625,0.021830236539244652,-0.0000803675502538681,0.010424233973026276
1761336255397614800,5.74261474609375,0.049294762313365936,-0.017442388460040092,-0.012545435689389706
1761336255407680800,5.7526806640625,0.06710252165794373,-0.036890387535095215,-0.019565794616937637
1761336255417747700,5.762747802734375,0.0731678456068039,-0.050596460700035095,-0.025134120136499405
1761336255427815000,5.77281494140625,0.07967554777860641,-0.052888110280036926,-0.026322688907384872
1761336255437880800,5.782880859375,0.08930203318595886,-0.0705467015504837,-0.029981981962919235
1761336255447947800,5.79294775390625,0.10196243971586227,-0.09203627705574036,-0.0345010980963707
1761336255458013700,5.803013671875,0.11395421624183655,-0.10106691718101501,-0.026302462443709373
1761336255468080600,5.81308056640625,0.11954499036073685,-0.09838138520717621,-0.00518998596817255
1761336255478147800,5.82314794921875,0.11604718863964081,-0.08883443474769592,0.019062746316194534
1761336255488213800,5.8332138671875,0.10328797996044159,-0.07082827389240265,0.0369567945599556
1761336255498280700,5.84328076171875,0.08892875164747238,-0.05001358687877655,0.02865932323038578
1761336255508347000,5.853346923828125,0.06706846505403519,-0.028310421854257584,-0.006542073097079992
1761336255518413800,5.863413818359375,0.055565137416124344,-0.017818044871091843,-0.04600987210869789
1761336255528479700,5.873479736328125,0.05205056443810463,-0.009727096185088158,-0.07126834988594055
1761336255538546700,5.883546630859375,0.052284710109233856,0.00022239144891500473,-0.07405457645654678
1761336255548614000,5.89361376953125,0.05063062161207199,0.008864614181220531,-0.056420452892780304
1761336255558679800,5.9036796875,0.04659241437911987,0.0174613818526268,-0.02741355076432228
1761336255568746800,5.913746826171875,0.0481940396130085,0.022828983142971992,-0.006748219020664692
1761336255578813000,5.92381298828125,0.04791487753391266,0.018329761922359467,0.000805804505944252
1761336255588880000,5.9338798828125,0.04918893426656723,0.025642801076173782,0.0001772986724972725
1761336255598946800,5.94394677734375,0.047637052834033966,0.027655087411403656,-0.006024543195962906
1761336255609012700,5.9540126953125,0.048478879034519196,0.04694649204611778,0.0002272278070449829
1761336255619080000,5.964079833984375,0.04970509558916092,0.06208466365933418,-0.009625153616070747
1761336255629145900,5.974145751953125,0.04978232830762863,0.06680591404438019,-0.022547077387571335
1761336255639212800,5.984212890625,0.05821799114346504,0.06489958614110947,-0.034526526927948
1761336255649279000,5.994279052734375,0.05759347975254059,0.04150025546550751,-0.051168616861104965
1761336255659346000,6.004345947265625,0.06323985010385513,0.03623643517494202,-0.05092550069093704
1761336255669412900,6.014412841796875,0.05842538923025131,0.028215261176228523,-0.03654949367046356
1761336255679478800,6.024478759765625,0.05243267863988876,0.020884569734334946,-0.021074162796139717
1761336255689546000,6.0345458984375,0.05258714407682419,0.006385519169270992,-0.005858724005520344
1761336255699612000,6.04461181640625,0.05452840030193329,-0.002396942116320133,0.002667982131242752
1761336255709678800,6.054678955078125,0.05443492531776428,-0.0008893264457583427,-0.0008367383852601051
1761336255719745000,6.0647451171875,0.05335749685764313,0.009430083446204662,0.0031587546691298485
1761336255729812000,6.07481201171875,0.05515672639012337,0.02467561513185501,0.0051404135301709175
1761336255739879000,6.08487890625,0.04448805749416351,0.04798470437526703,-0.0005141203291714191
1761336255749944800,6.09494482421875,0.04771607741713524,0.0690002366900444,-0.0013247868046164513
1761336255760012000,6.105011962890625,0.037369146943092346,0.07664453983306885,-0.014008654281497002
1761336255770078000,6.115077880859375,0.035789892077445984,0.06401583552360535,-0.03439249098300934
1761336255780145000,6.125144775390625,0.031287532299757004,0.0357808843255043,-0.047294095158576965
1761336255790211000,6.135211181640625,0.03740827739238739,0.037893302738666534,-0.06340781599283218
1761336255800278000,6.145278076171875,0.03248400613665581,0.029469799250364304,-0.059625282883644104
1761336255810345000,6.155344970703125,0.03663028031587601,0.012405063025653362,-0.039823081344366074
1761336255820411000,6.165410888671875,0.039813026785850525,0.005759675987064838,-0.005274160299450159
1761336255830478000,6.17547802734375,0.045347340404987335,0.0024091536179184914,0.02951045334339142
1761336255840543700,6.185543701171875,0.04875567927956581,-0.007018775679171085,0.032158248126506805
1761336255850611000,6.19561083984375,0.060335636138916016,-0.017326807603240013,0.019457362592220306
1761336255860678000,6.205677978515625,0.07312532514333725,-0.01746974140405655,0.009548978880047798
1761336255870743800,6.215743896484375,0.07309416681528091,-0.01091756671667099,0.010514907538890839
1761336255880810800,6.225810791015625,0.07305096089839935,0.013237493112683296,0.008058909326791763
1761336255890876700,6.235876708984375,0.06607241183519363,0.042235322296619415,0.007928414270281792
1761336255900944000,6.24594384765625,0.055085696280002594,0.05943131074309349,0.0011489307507872581
1761336255911009800,6.256009765625,0.03985055536031723,0.015551202930510044,-0.01691635698080063
1761336255921076700,6.26607666015625,0.05249005928635597,0.014895192347466946,-0.05260049179196358
1761336255931143700,6.276143798828125,0.07239878922700882,-0.013404622673988342,-0.06524651497602463
1761336255941209900,6.2862099609375,0.09584733098745346,-0.015741731971502304,-0.046704232692718506
1761336255951276800,6.29627685546875,0.11338797956705093,-0.008535217493772507,-0.016919707879424095
1761336255961342700,6.3063427734375,0.11961927264928818,0.010028150863945484,0.011944493278861046
1761336255971410000,6.316409912109375,0.1292162388563156,0.01048861164599657,0.021011224016547203
1761336255981475800,6.326475830078125,0.14284878969192505,-0.005294873379170895,0.011162432841956615
1761336255991542800,6.336542724609375,0.15420877933502197,-0.03954099491238594,-0.0076613216660916805
1761336256001609700,6.346609619140625,0.15822851657867432,-0.06701720505952835,-0.006485458929091692
1761336256011676000,6.356676025390625,0.16514554619789124,-0.06951844692230225,0.01140725426375866
1761336256021742800,6.366742919921875,0.1592988520860672,-0.07668094336986542,0.03702782467007637
1761336256031808800,6.376808837890625,0.14429433643817902,-0.07267182320356369,0.058304619044065475
1761336256041875700,6.386875732421875,0.1357414275407791,-0.0649745985865593,0.06796745210886002
1761336256051943000,6.39694287109375,0.11792460829019547,-0.042887408286333084,0.0546196885406971
1761336256062008800,6.4070087890625,0.09809233993291855,-0.01640268974006176,0.033949755132198334
1761336256072075800,6.41707568359375,0.0815727487206459,0.014028186909854412,0.008240661583840847
1761336256082142000,6.427141845703125,0.0662233978509903,0.0375334769487381,-0.02309184893965721
1761336256092209000,6.437208984375,0.065843366086483,0.045871034264564514,-0.0552884005010128
1761336256102274800,6.44727490234375,0.06598754227161407,0.04676315560936928,-0.07140374183654785
1761336256112341800,6.457341796875,0.06808877736330032,0.03781333565711975,-0.06766386330127716
1761336256122409000,6.467408935546875,0.07255880534648895,0.02390824630856514,-0.04569113999605179
1761336256132475000,6.477474853515625,0.081109419465065,0.016486283391714096,-0.014337742701172829
1761336256142541800,6.487541748046875,0.08173137158155441,0.006113575771450996,0.0018357764929533005
1761336256152608000,6.49760791015625,0.08361156284809113,-0.007338849361985922,0.010200499556958675
1761336256162675000,6.507675048828125,0.0808027908205986,-0.009708797559142113,0.0053171999752521515
1761336256172740900,6.517740966796875,0.07810713350772858,-0.01642901822924614,-0.0050805797800421715
1761336256182807800,6.527807861328125,0.08031807094812393,-0.014166777022182941,-0.013401813805103302
1761336256192875000,6.537875,0.08759755641222,-0.026389354839920998,-0.016115840524435043
1761336256202941000,6.54794091796875,0.09739222377538681,-0.04877699166536331,-0.016723323613405228
1761336256213008000,6.5580078125,0.10478329658508301,-0.07216434180736542,-0.008043816313147545
1761336256223074000,6.568073974609375,0.10388608276844025,-0.09283971041440964,0.0017831390723586082
1761336256233141000,6.57814111328125,0.10127219557762146,-0.10672570019960403,0.020006883889436722
1761336256243208000,6.5882080078125,0.09871859103441238,-0.10261781513690948,0.015840087085962296
1761336256253273900,6.59827392578125,0.0960698053240776,-0.10969063639640808,0.003374895080924034
1761336256263341000,6.608341064453125,0.09463471174240112,-0.11780091375112534,-0.013285246677696705
1761336256273406700,6.61840673828125,0.09166821837425232,-0.11985021829605103,-0.017097029834985733
1761336256283474000,6.628473876953125,0.08070079237222672,-0.11469300836324692,-0.023830300197005272
1761336256293539800,6.638539794921875,0.06269222497940063,-0.10156868398189545,-0.028281506150960922
1761336256303606800,6.648606689453125,0.04915197193622589,-0.08043330162763596,-0.042332734912633896
1761336256313673700,6.658673828125,0.039064984768629074,-0.05691146478056908,-0.06274959444999695
1761336256323739600,6.66873974609375,0.02253083698451519,-0.04120394587516785,-0.07967296242713928
1761336256333806800,6.678806884765625,0.015134172514081001,-0.03882148489356041,-0.08909256756305695
1761336256343872800,6.688872802734375,0.013157431036233902,-0.02570107951760292,-0.07395818084478378
1761336256353939700,6.698939697265625,0.010943545028567314,-0.018761947751045227,-0.034610774368047714
1761336256364006000,6.709005859375,0.009405691176652908,-0.01211888249963522,0.007148296572268009
1761336256374073300,6.7190732421875,0.001497434452176094,-0.012275476939976215,0.01988513022661209
1761336256384140300,6.729140380859375,-0.0008765007369220257,-0.01960202120244503,0.006576940417289734
1761336256394206200,6.739206298828125,-0.002657623030245304,-0.023782651871442795,-0.022425683215260506
1761336256404273200,6.749273193359375,-0.012709911912679672,-0.03122314251959324,-0.039660800248384476
1761336256414339300,6.75933935546875,-0.026991646736860275,-0.024054445326328278,-0.030997537076473236
1761336256424406300,6.76940625,-0.037275709211826324,-0.007656830828636885,-0.01790091022849083
1761336256434473200,6.77947314453125,-0.04383968561887741,0.0004805326461791992,-0.007229577749967575
1761336256444539400,6.789539306640625,-0.04972175136208534,0.0018344828858971596,-0.014550200663506985
1761336256454606300,6.7996064453125,-0.05230022221803665,0.01738521084189415,-0.019170518964529037
1761336256464672300,6.80967236328125,-0.059697311371564865,0.031010251492261887,-0.024882059544324875
1761336256474739200,6.8197392578125,-0.07040855288505554,0.036113400012254715,-0.03760610893368721
1761336256484805400,6.829805419921875,-0.0779978409409523,0.033608581870794296,-0.061017218977212906
1761336256494872300,6.839872314453125,-0.08469435572624207,0.03416784852743149,-0.07854828238487244
1761336256504939300,6.849939208984375,-0.0953441858291626,0.02365170419216156,-0.07300760596990585
1761336256515005400,6.86000537109375,-0.09866408258676529,0.020828749984502792,-0.05347065627574921
1761336256525072400,6.870072265625,-0.1024673581123352,-0.006350704934448004,-0.029399171471595764
1761336256535138300,6.88013818359375,-0.10310705006122589,-0.023697471246123314,-0.000570986419916153
1761336256545205200,6.890205322265625,-0.08749764412641525,-0.038928963243961334,0.007608599960803986
1761336256555271400,6.900271484375,-0.07980003952980042,-0.0530967116355896,-0.005165251903235912
1761336256565338400,6.91033837890625,-0.08023908734321594,-0.058021433651447296,-0.029107853770256042
1761336256575405300,6.9204052734375,-0.07851015776395798,-0.06505164504051208,-0.050791312009096146
1761336256585471500,6.930471435546875,-0.07543664425611496,-0.08131153881549835,-0.06826627999544144
1761336256595538400,6.940538330078125,-0.0695934072136879,-0.096009261906147,-0.07635802775621414
1761336256605604400,6.950604248046875,-0.06362217664718628,-0.10381844639778137,-0.06821862608194351
1761336256615671300,6.96067138671875,-0.057649243623018265,-0.11187636852264404,-0.045021697878837585
1761336256625737500,6.970737548828125,-0.04673729091882706,-0.10551267117261887,-0.01267276518046856
1761336256635804400,6.980804443359375,-0.03964529559016228,-0.08955101668834686,0.020385317504405975
1761336256645871400,6.990871337890625,-0.0349767804145813,-0.06645284593105316,0.03510633483529091
1761336256655937500,7.0009375,-0.033939480781555176,-0.0536760613322258,0.012721403501927853
1761336256666004500,7.01100439453125,-0.03427254781126976,-0.04788566753268242,-0.017355982214212418
1761336256676070400,7.0210703125,-0.03615646809339523,-0.03876087814569473,-0.046640098094940186
1761336256686137300,7.031137451171875,-0.04117049649357796,-0.024652136489748955,-0.053607020527124405
1761336256696203500,7.04120361328125,-0.0444461852312088,-0.010863087140023708,-0.05963881313800812
1761336256706270500,7.0512705078125,-0.049284107983112335,-0.010193759575486183,-0.048523396253585815
1761336256716337400,7.06133740234375,-0.044881369918584824,-0.007858699187636375,-0.02580210380256176
1761336256726403300,7.0714033203125,-0.040682628750801086,0.004604361020028591,-0.0041074613109230995
1761336256736470500,7.081470458984375,-0.035152044147253036,0.007078970782458782,-0.0011777174659073353
1761336256746536200,7.0915361328125,-0.02679227665066719,0.0017580147832632065,-0.022113483399152756
1761336256756603100,7.10160302734375,-0.016634179279208183,0.0008080657571554184,-0.039496466517448425
1761336256766670600,7.111670654296875,-0.008474756963551044,-0.012140952050685883,-0.035673171281814575
1761336256776736300,7.121736328125,-0.00026982370764017105,-0.03281187638640404,-0.022862035781145096
1761336256786803200,7.13180322265625,-0.0004365677013993263,-0.06039483845233917,-0.007271951995790005
1761336256796869400,7.141869384765625,0.000002853572368621826,-0.08106362819671631,0.01096377708017826
1761336256806936300,7.151936279296875,-0.00015593552961945534,-0.09457392245531082,0.026795439422130585
1761336256817002200,7.162002197265625,-0.009819215163588524,-0.07929989695549011,0.04136905446648598
1761336256827069200,7.172069091796875,-0.014642063528299332,-0.04481957107782364,0.042577002197504044
1761336256837136400,7.182136474609375,-0.022711440920829773,-0.003105148673057556,0.021957475692033768
1761336256847202300,7.192202392578125,-0.026521360501646996,0.031039506196975708,-0.020071998238563538
1761336256857269200,7.202269287109375,-0.027712060138583183,0.061899684369564056,-0.05546487495303154
1761336256867335400,7.21233544921875,-0.027566254138946533,0.07593629509210587,-0.06864826381206512
1761336256877402400,7.22240234375,-0.028617404401302338,0.07159800827503204,-0.05898311361670494
1761336256887468300,7.23246826171875,-0.02626984938979149,0.07767149806022644,-0.03410272300243378
1761336256897535200,7.24253515625,-0.024675946682691574,0.07687494158744812,-0.012677058577537537
1761336256907602400,7.2526025390625,-0.024063585326075554,0.0702095478773117,-0.011393962427973747
1761336256917668400,7.26266845703125,-0.02205396443605423,0.0647018551826477,-0.018424175679683685
1761336256927735300,7.2727353515625,-0.026436030864715576,0.06698822230100632,-0.026165436953306198
1761336256937801500,7.282801513671875,-0.03029681369662285,0.0652901902794838,-0.03248831257224083
1761336256947868400,7.292868408203125,-0.042805422097444534,0.06723262369632721,-0.02686041221022606
1761336256957934300,7.302934326171875,-0.04571492597460747,0.07513581961393356,-0.01645757257938385
1761336256968001300,7.313001220703125,-0.04777352884411812,0.07766194641590118,-0.015525276772677898
1761336256978068200,7.323068115234375,-0.04773145169019699,0.08215522766113281,-0.01773596741259098
1761336256988134400,7.333134521484375,-0.05161365494132042,0.0844506174325943,-0.03311840072274208
1761336256998201300,7.343201416015625,-0.06109131500124931,0.07653702795505524,-0.039282821118831635
1761336257008267500,7.353267578125,-0.07020199298858643,0.06808967143297195,-0.0331324078142643
1761336257018334500,7.36333447265625,-0.07857231050729752,0.0527661070227623,-0.013121681287884712
1761336257028401400,7.3734013671875,-0.091087706387043,0.03887761011719704,0.007153826765716076
1761336257038467300,7.38346728515625,-0.09815147519111633,0.008586549200117588,0.022632919251918793
1761336257048534300,7.3935341796875,-0.10786262899637222,-0.01940346322953701,0.03695596009492874
1761336257058600400,7.403600341796875,-0.11017344892024994,-0.03527936339378357,0.06267783790826797
1761336257068667400,7.41366748046875,-0.10459583252668381,-0.03309028595685959,0.08819610625505447
1761336257078733600,7.423733642578125,-0.09863834083080292,-0.01975104585289955,0.10207223892211914
1761336257088800500,7.433800537109375,-0.09987822920084,-0.004561515524983406,0.10404053330421448
1761336257098867500,7.443867431640625,-0.09841455519199371,0.011632634326815605,0.08901791274547577
1761336257108933400,7.453933349609375,-0.09945662319660187,0.024113919585943222,0.06024344265460968
1761336257119000300,7.464000244140625,-0.09321470558643341,0.03378092870116234,0.01793912798166275
1761336257129066500,7.47406640625,-0.08506373316049576,0.046119123697280884,-0.02484467625617981
1761336257139133400,7.484133544921875,-0.07215778529644012,0.05061613768339157,-0.037987906485795975
1761336257149199400,7.494199462890625,-0.06255125999450684,0.04516658931970596,-0.02613905444741249
1761336257159266300,7.504266357421875,-0.060125384479761124,0.039939869195222855,0.006542990915477276
1761336257169333500,7.51433349609375,-0.05347203463315964,0.023644406348466873,0.017542457208037376
1761336257179399200,7.524399169921875,-0.04308623820543289,0.00003628060221672058,0.010600661858916283
1761336257189466000,7.534466064453125,-0.03645029291510582,-0.016724932938814163,-0.008412882685661316
1761336257199532300,7.5445322265625,-0.030409444123506546,-0.025521352887153625,-0.026414252817630768
1761336257209599200,7.55459912109375,-0.02833975851535797,-0.029330015182495117,-0.0331873744726181
1761336257219665400,7.56466552734375,-0.02935362234711647,-0.036182060837745667,-0.033144500106573105
1761336257229732400,7.574732421875,-0.029490921646356583,-0.04371846839785576,-0.03714972361922264
1761336257239799300,7.58479931640625,-0.032210808247327805,-0.052650175988674164,-0.025436341762542725
1761336257249865200,7.594865234375,-0.032801784574985504,-0.04428530111908913,0.004151723347604275
1761336257259932200,7.60493212890625,-0.03727056831121445,-0.029996909201145172,0.019407909363508224
1761336257269998300,7.614998291015625,-0.045969314873218536,-0.023003526031970978,0.011844230815768242
1761336257280065300,7.625065185546875,-0.054136697202920914,-0.03403620421886444,-0.012972168624401093
1761336257290132200,7.63513232421875,-0.052424054592847824,-0.048938073217868805,-0.026340922340750694
1761336257300198400,7.645198486328125,-0.04765060544013977,-0.06436096876859665,-0.014826213009655476
1761336257310265300,7.655265380859375,-0.046667225658893585,-0.08961980044841766,0.0038077523931860924
1761336257320331300,7.665331298828125,-0.04719692841172218,-0.10252813994884491,0.023941516876220703
1761336257330398200,7.675398193359375,-0.04788033664226532,-0.09594636410474777,0.043042927980422974
1761336257340464400,7.68546435546875,-0.051760029047727585,-0.0800161361694336,0.0371679961681366
1761336257350531300,7.69553125,-0.05948173999786377,-0.06365644931793213,0.02405678853392601
1761336257360598300,7.705598388671875,-0.053610533475875854,-0.04279803857207298,0.010347633622586727
1761336257370664400,7.71566455078125,-0.049595389515161514,-0.018769973888993263,-0.006538017187267542
1761336257380731000,7.72573095703125,-0.03686095401644707,0.00920440349727869,-0.009392393752932549
1761336257390796800,7.735796875,-0.024676041677594185,0.022752966731786728,-0.011875003576278687
1761336257400864000,7.745864013671875,-0.010741051286458969,0.027967970818281174,-0.014384767040610313
1761336257410930000,7.755929931640625,0.01111894566565752,0.02832198143005371,-0.01782964915037155
1761336257420996900,7.765996826171875,0.027720293030142784,0.03501423820853233,-0.011576279997825623
1761336257431063800,7.776063720703125,0.040058307349681854,0.02627142146229744,0.0009292978793382645
1761336257441130000,7.7861298828125,0.043184857815504074,0.01988862454891205,0.013390495441854
1761336257451197000,7.796197021484375,0.04318459331989288,0.016572456806898117,0.01369569357484579
1761336257461262800,7.806262939453125,0.038855358958244324,0.014738070778548717,-0.002623891457915306
1761336257471330000,7.816330078125,0.025174757465720177,0.009913751855492592,-0.013929935172200203
1761336257481396000,7.82639599609375,0.013610513880848885,0.006861770525574684,-0.0222640298306942
1761336257491463000,7.836462890625,0.005358405876904726,0.007943662814795971,-0.021045587956905365
1761336257501529900,7.84652978515625,-0.006144585553556681,-0.005160155706107616,-0.015987444669008255
1761336257511596000,7.856595947265625,-0.01871347613632679,-0.016051646322011948,-0.01552430447191
1761336257521663000,7.8666630859375,-0.021985169500112534,-0.020923100411891937,-0.017740853130817413
1761336257531728600,7.876728759765625,-0.024284174665808678,-0.022679494693875313,-0.017675889655947685
1761336257541796000,7.886796142578125,-0.026300985366106033,-0.027097411453723907,-0.015465999022126198
1761336257551861800,7.89686181640625,-0.0225529745221138,-0.036409229040145874,-0.0199328251183033
1761336257561928700,7.9069287109375,-0.01984906941652298,-0.04180559515953064,-0.009384842589497566
1761336257571995600,7.91699560546875,-0.014896301552653313,-0.04037874564528465,0.006799675524234772
1761336257582061800,7.927061767578125,-0.013264847919344902,-0.02610420435667038,0.01683473214507103
1761336257592128800,7.937128662109375,-0.006049690768122673,-0.009347785264253616,0.0061345892027020454
1761336257602194700,7.947194580078125,-0.002258680760860443,0.0027940981090068817,-0.01666739583015442
1761336257612262000,7.957261962890625,0.0033706803806126118,0.012636950239539146,-0.03145148232579231
1761336257622327800,7.967327880859375,0.0018361671827733517,0.020796075463294983,-0.03578284755349159
1761336257632394800,7.977394775390625,-0.0013466929085552692,0.010600432753562927,-0.035162344574928284
1761336257642461700,7.987461669921875,-0.000006057322025299072,-0.00021226797252893448,-0.03520948439836502
1761336257652527900,7.99752783203125,0.0038821366615593433,-0.014695185236632824,-0.027141090482473373
1761336257662594800,8.0075947265625,0.004716504830867052,-0.0231187641620636,-0.01533529907464981
1761336257672660700,8.01766064453125,-0.0013952269218862057,-0.018239546567201614,0.003390607424080372
1761336257682728000,8.02772802734375,-0.013211139477789402,-0.0009369906038045883,0.018597789108753204
1761336257692793900,8.0377939453125,-0.024398073554039,0.024487141519784927,0.019478358328342438
1761336257702860800,8.04786083984375,-0.03094705194234848,0.05188414454460144,0.008814794942736626
1761336257712927000,8.057927001953125,-0.03667593002319336,0.07624301314353943,-0.018833864480257034
1761336257722994000,8.067993896484374,-0.04209040105342865,0.0926041454076767,-0.03674761578440666
1761336257733059800,8.078059814453125,-0.04691679775714874,0.10390397161245346,-0.04972546547651291
1761336257743126800,8.088126708984374,-0.05353901535272598,0.10529760271310806,-0.05295321345329285
1761336257753193700,8.09819384765625,-0.06000348925590515,0.09239603579044342,-0.05043300241231918
1761336257763260000,8.108260009765624,-0.0668850988149643,0.06857618689537048,-0.027525290846824646
1761336257773326800,8.118326904296875,-0.0759182721376419,0.049651239067316055,0.0001888936385512352
1761336257783393000,8.12839306640625,-0.0833306536078453,0.03367014229297638,0.03044719807803631
1761336257793460000,8.1384599609375,-0.07338607311248779,0.046998538076877594,0.042651429772377014
1761336257803526000,8.14852587890625,-0.07791318744421005,0.03355862945318222,0.04171133413910866
1761336257813592800,8.1585927734375,-0.06941463053226471,0.04075068607926369,0.029130659997463226
1761336257823659800,8.16865966796875,-0.05839712917804718,0.0419325977563858,0.006337728351354599
1761336257833726000,8.178725830078125,-0.05059226602315903,0.03536277264356613,-0.02195146679878235
1761336257843793000,8.18879296875,-0.0442986860871315,0.03265939652919769,-0.028175273910164833
1761336257853859000,8.198859130859375,-0.04033772647380829,0.028788184747099876,-0.020268239080905914
1761336257863926000,8.208926025390625,-0.03837870433926582,0.023722851648926735,-0.002829060424119234
1761336257873992000,8.218991943359375,-0.035969674587249756,0.02380293980240822,0.01837233081459999
1761336257884059000,8.229058837890625,-0.03075466863811016,0.03235834464430809,0.039634473621845245
1761336257894125800,8.239125732421876,-0.024540629237890244,0.03619162365794182,0.04828144982457161
1761336257904192000,8.24919189453125,-0.014650716446340084,0.04028942808508873,0.04670112952589989
1761336257914259000,8.259259033203126,-0.0092583317309618,0.050646230578422546,0.033348068594932556
1761336257924324900,8.269324951171875,-0.012514844536781311,0.04545094072818756,0.019861020147800446
1761336257934391800,8.279391845703126,-0.014892392791807652,0.04430399090051651,0.01948568783700466
1761336257944459000,8.289458984375,-0.021559085696935654,0.03787671774625778,0.026137996464967728
1761336257954524700,8.299524658203126,-0.028391502797603607,0.031102586537599564,0.024776795879006386
1761336257964591600,8.309591552734375,-0.04164472594857216,0.017878927290439606,0.010607445612549782
1761336257974657800,8.31965771484375,-0.04485033452510834,-0.00044693052768707275,0.0007020365446805954
1761336257984724700,8.329724853515625,-0.04168010875582695,-0.009042815305292606,-0.0017968076281249523
1761336257994791000,8.339791015625,-0.023124143481254578,-0.006753221154212952,0.006902845576405525
1761336258004857900,8.34985791015625,0.0027319539804011583,-0.023971090093255043,0.017497166991233826
1761336258014924800,8.3599248046875,0.015658944845199585,-0.022713467478752136,0.031785182654857635
1761336258024990700,8.36999072265625,0.028464222326874733,-0.0125380614772439,0.052903518080711365
1761336258035057700,8.3800576171875,0.023611100390553474,0.002640395425260067,0.058603640645742416
1761336258045123800,8.390123779296875,-0.004990450572222471,0.013857097364962101,0.049631450325250626
1761336258055190800,8.400190673828124,-0.0314960815012455,0.04087330400943756,0.031883373856544495
1761336258065257700,8.4102578125,-0.04057959094643593,0.04711095988750458,0.010040395893156528
1761336258075324700,8.42032470703125,-0.04020502045750618,0.05998190864920616,-0.014057686552405357
1761336258085390800,8.430390869140625,-0.048774804919958115,0.058325689285993576,-0.031234275549650192
1761336258095457800,8.440457763671875,-0.059475451707839966,0.06413237005472183,-0.046381570398807526
1761336258105523700,8.450523681640625,-0.061444059014320374,0.07448513805866241,-0.05706670507788658
1761336258115591000,8.4605908203125,-0.05734086036682129,0.07876518368721008,-0.05228976160287857
1761336258125657900,8.470657958984376,-0.04953407123684883,0.0760016143321991,-0.03748977556824684
1761336258135723800,8.480723876953125,-0.041645098477602005,0.07083211839199066,-0.017878666520118713
1761336258145790700,8.490790771484376,-0.0438334159553051,0.060017820447683334,0.003750195726752281
1761336258155857000,8.50085693359375,-0.055979687720537186,0.04662071540951729,0.005143656395375729
1761336258165923800,8.510923828125,-0.09098081290721893,0.02478891983628273,-0.0036463728174567223
1761336258175989800,8.52098974609375,-0.1258198320865631,0.019610019400715828,-0.010985841043293476
1761336258186057000,8.531056884765626,-0.1668735295534134,0.023378392681479454,-0.015948109328746796
1761336258196124000,8.5411240234375,-0.17978601157665253,0.021411191672086716,-0.028455737978219986
1761336258206189800,8.55118994140625,-0.17146362364292145,0.010378781706094742,-0.033548504114151
1761336258216256800,8.5612568359375,-0.1529819816350937,0.011092545464634895,-0.011499247513711452
1761336258226323000,8.571322998046876,-0.13938839733600616,0.018185874447226524,0.015080164186656475
1761336258236390000,8.581389892578125,-0.13208062946796417,0.029802506789565086,0.04154370725154877
1761336258246455800,8.591455810546876,-0.12165463715791702,0.04450927674770355,0.04986129701137543
1761336258256523000,8.60152294921875,-0.11567654460668564,0.041817016899585724,0.031060395762324333
1761336258266590000,8.61158984375,-0.1243848204612732,0.033158015459775925,0.007740959525108337
1761336258276655900,8.62165576171875,-0.1301911324262619,0.024709554389119148,-0.013645883649587631
1761336258286722800,8.631722900390624,-0.1433125138282776,0.015219645574688911,-0.02819739654660225
1761336258296789000,8.6417890625,-0.14750976860523224,0.0034895259886980057,-0.011566204018890858
1761336258306856000,8.65185595703125,-0.1490064561367035,0.003977684304118156,0.028295990079641342
1761336258316921900,8.661921875,-0.14805632829666138,-0.0008286386728286743,0.06128210574388504
1761336258326989000,8.671989013671874,-0.15767140686511993,-0.007372025400400162,0.08314160257577896
1761336258337056000,8.682055908203125,-0.17067314684391022,-0.02367309108376503,0.08917811512947083
1761336258347122000,8.692121826171874,-0.1849636733531952,-0.03156883269548416,0.08650190383195877
1761336258357188900,8.70218896484375,-0.19315849244594574,-0.048966873437166214,0.07625854015350342
1761336258367254800,8.7122548828125,-0.18594664335250854,-0.06810088455677032,0.06741710752248764
1761336258377321700,8.72232177734375,-0.17464792728424072,-0.06844975799322128,0.07456503063440323
1761336258387387600,8.7323876953125,-0.16011904180049896,-0.05310728773474693,0.0867290198802948
1761336258397454800,8.742454833984375,-0.1588132679462433,-0.03810581937432289,0.09369660168886185
1761336258407521800,8.752521728515624,-0.16627784073352814,-0.03178826719522476,0.08460482954978943
1761336258417587700,8.762587646484375,-0.180082768201828,-0.020063435658812523,0.07905144989490509
1761336258427654700,8.772654541015624,-0.19505932927131653,-0.01264599896967411,0.06884728372097015
1761336258437720800,8.782720947265625,-0.19335678219795227,0.006398191675543785,0.06547583639621735
1761336258447787800,8.792787841796875,-0.18047933280467987,0.013185789808630943,0.05533238500356674
1761336258457853700,8.802853759765625,-0.1706007421016693,0.007488220930099487,0.04246293753385544
1761336258467921000,8.8129208984375,-0.1716039627790451,0.015846019610762596,0.028483740985393524
1761336258477987800,8.82298779296875,-0.17339134216308594,0.02293471060693264,0.02681479975581169
1761336258488053800,8.8330537109375,-0.1793951690196991,0.025964057072997093,0.02380755916237831
1761336258498120700,8.84312060546875,-0.19479049742221832,0.021863050758838654,0.012808958999812603
1761336258508187000,8.853186767578125,-0.20836515724658966,0.01553245261311531,0.0025938730686903
1761336258518253800,8.86325390625,-0.22138091921806335,0.008490219712257385,-0.0007322933524847031
1761336258528319700,8.87331982421875,-0.23394545912742615,0.003993205726146698,0.006875558756291866
1761336258538387000,8.883386962890626,-0.24365903437137604,0.00381412822753191,0.025872372090816498
1761336258548454000,8.893453857421875,-0.24353653192520142,0.007992892526090145,0.046676985919475555
1761336258558519800,8.903519775390626,-0.23974932730197906,-0.008257798850536346,0.06253991276025772
1761336258568586800,8.913586669921875,-0.23313669860363007,-0.028246421366930008,0.0702231302857399
1761336258578652700,8.923652587890626,-0.22904375195503235,-0.05167435482144356,0.06857260316610336
1761336258588719900,8.933719970703125,-0.2327287644147873,-0.07084432244300842,0.05428127944469452
1761336258598786800,8.943786865234374,-0.24350987374782562,-0.1083042323589325,0.033399343490600586
1761336258608852700,8.953852783203125,-0.2528120279312134,-0.13808315992355347,0.008821562863886356
1761336258618919700,8.963919677734374,-0.2563639283180237,-0.1498292237520218,-0.01121374499052763
1761336258628985600,8.973985595703125,-0.2532613277435303,-0.1442272663116455,-0.013896080665290356
1761336258639052500,8.984052490234374,-0.24583211541175842,-0.12662282586097717,-0.008261437527835369
1761336258649118700,8.99411865234375,-0.2353733330965042,-0.10205915570259094,0.012410550378262997
1761336258659185700,9.004185546875,-0.23229993879795074,-0.08367475122213364,0.01330661028623581
1761336258669251600,9.01425146484375,-0.23122268915176392,-0.06660468876361847,0.0147527065128088
1761336258679318800,9.02431884765625,-0.24483519792556763,-0.04256375879049301,0.0004596766084432602
1761336258689385700,9.0343857421875,-0.2659865617752075,-0.027009300887584686,-0.0239628404378891
1761336258699451600,9.04445166015625,-0.28217777609825134,-0.022583620622754097,-0.05788402631878853
1761336258709518600,9.0545185546875,-0.286389023065567,0.0006122458726167679,-0.06818593293428421
1761336258719584800,9.064584716796874,-0.28201958537101746,0.029435671865940094,-0.061319902539253235
1761336258729651700,9.074651611328125,-0.2832307815551758,0.03174756094813347,-0.040196508169174194
1761336258739718700,9.08471875,-0.2883574366569519,0.03576015308499336,-0.02087285928428173
1761336258749784800,9.094784912109375,-0.2887558341026306,0.038537561893463135,-0.007101653143763542
1761336258759851800,9.104851806640625,-0.28746968507766724,0.03462720289826393,0.007814963348209858
1761336258769917700,9.114917724609375,-0.27950015664100647,0.03311878815293312,0.010875735431909561
1761336258779984600,9.124984619140625,-0.26256680488586426,0.03737983480095863,0.020100096240639687
1761336258790050800,9.13505078125,-0.24291133880615234,0.04204143211245537,0.029548192396759987
1761336258800117800,9.14511767578125,-0.2320912629365921,0.032553207129240036,0.0423978790640831
1761336258810184700,9.155184814453126,-0.228627011179924,0.02404547482728958,0.0455944687128067
1761336258820250600,9.165250732421875,-0.23303328454494476,-0.000026606954634189606,0.03879418969154358
1761336258830317800,9.17531787109375,-0.22640281915664673,-0.020330015569925308,0.02454094961285591
1761336258840383700,9.1853837890625,-0.20972269773483276,-0.03713471442461014,0.013961350545287132
1761336258850450700,9.19545068359375,-0.19217993319034576,-0.06816666573286057,0.009399622678756714
1761336258860516900,9.205516845703125,-0.17651329934597015,-0.0779593363404274,0.015621833503246307
1761336258870583800,9.215583740234376,-0.16598263382911682,-0.08327127993106842,0.01732652448117733
1761336258880649700,9.225649658203125,-0.16282963752746582,-0.0791536495089531,0.01166923251003027
1761336258890716700,9.235716552734376,-0.16256067156791687,-0.06530174612998962,0.007803387939929962
1761336258900783900,9.245783935546875,-0.1683143973350525,-0.038970429450273514,0.0002575097605586052
1761336258910849800,9.255849853515626,-0.1737528294324875,-0.02427244558930397,0.00013420497998595238
1761336258920916700,9.265916748046875,-0.18587572872638702,-0.02922554314136505,-0.007808344904333353
1761336258930983000,9.27598291015625,-0.18861505389213562,-0.05244777724146843,-0.014338682405650616
1761336258941049900,9.2860498046875,-0.1914840042591095,-0.07962986081838608,-0.014748426154255867
1761336258951115800,9.29611572265625,-0.18919047713279724,-0.107419952750206,-0.020211635157465935
1761336258961182700,9.3061826171875,-0.17238235473632812,-0.11696098744869232,-0.019446231424808502
1761336258971250000,9.31625,-0.14897343516349792,-0.09633507579565048,-0.024889199063181877
1761336258981315600,9.326315673828125,-0.12887226045131683,-0.058889392763376236,-0.02968180924654007
1761336258991382800,9.3363828125,-0.11646965891122818,-0.033486828207969666,-0.05272427573800087
1761336259001448700,9.34644873046875,-0.10328087955713272,-0.039987605065107346,-0.0616418719291687
1761336259011515600,9.356515625,-0.08041995763778687,-0.05844452977180481,-0.06643203645944595
1761336259021581600,9.36658154296875,-0.05725592002272606,-0.09686607122421265,-0.045227617025375366
1761336259031648500,9.3766484375,-0.03745691850781441,-0.13368986546993256,-0.01780451461672783
1761336259041715700,9.3867158203125,-0.014376862905919552,-0.16903385519981384,0.022221947088837624
1761336259051781600,9.39678173828125,0.00020500924438238144,-0.17897383868694305,0.06914977729320526
1761336259061848600,9.4068486328125,0.0008585206232964993,-0.19190049171447754,0.1059388667345047
1761336259071914800,9.416914794921874,-0.01450206059962511,-0.19558629393577576,0.1412164270877838
1761336259081981700,9.426981689453125,-0.04668262600898743,-0.19177336990833282,0.1664188802242279
1761336259092047600,9.437047607421874,-0.07281116396188736,-0.17086276412010193,0.17190605401992798
1761336259102114600,9.447114501953125,-0.08586259186267853,-0.12360108643770218,0.1416916400194168
1761336259112181800,9.457181640625,-0.09253115206956863,-0.08606702834367752,0.08264802396297455
1761336259122247700,9.46724755859375,-0.09309322386980057,-0.06680616736412048,0.0314427986741066
1761336259132314600,9.477314697265625,-0.1041320264339447,-0.018972069025039673,-0.02216769941151142
1761336259142380800,9.487380859375,-0.11408340185880661,0.016649307683110237,-0.056854166090488434
1761336259152447700,9.49744775390625,-0.1278703212738037,0.03263386711478233,-0.07961966842412949
1761336259162513700,9.507513671875,-0.13356715440750122,0.03794900327920914,-0.10064546018838882
1761336259172580600,9.51758056640625,-0.14358223974704742,0.04198502376675606,-0.10352060943841934
1761336259182647800,9.527647705078126,-0.15059363842010498,0.035982485860586166,-0.09741732478141785
1761336259192713700,9.537713623046875,-0.18978524208068848,0.06169423833489418,-0.07053085416555405
1761336259202780700,9.54778076171875,-0.19965031743049622,0.024767842143774033,0.01299276202917099
1761336259212846800,9.557846923828125,-0.1956571638584137,0.03273708373308182,0.01563887856900692
1761336259222913800,9.567913818359376,-0.17844997346401215,0.025570742785930634,-0.002298868726938963
1761336259232979700,9.577979736328125,-0.1718490570783615,0.02152007445693016,-0.03015766479074955
1761336259243046700,9.588046630859376,-0.17679260671138763,0.010593310929834843,-0.06075849384069443
1761336259253113900,9.59811376953125,-0.17531055212020874,0.035607051104307175,-0.09069322049617767
1761336259263179800,9.6081796875,-0.17552879452705383,0.0360255092382431,-0.08952285349369049
1761336259273246700,9.618246826171875,-0.17785294353961945,0.010900981724262238,-0.06060066074132919
1761336259283313000,9.62831298828125,-0.17958645522594452,0.01708606630563736,-0.03641480207443237
1761336259293379800,9.6383798828125,-0.178899884223938,0.026256129145622253,-0.017240308225154877
1761336259303445800,9.64844580078125,-0.17344793677330017,0.02054307609796524,-0.013577296398580074
1761336259313512700,9.6585126953125,-0.16069085896015167,0.009239022620022297,-0.0182665903121233
1761336259323580000,9.668579833984374,-0.14738641679286957,-0.00825931504368782,-0.029491029679775238
1761336259333645800,9.678645751953125,-0.14451418817043304,-0.01878918707370758,-0.04871505871415138
1761336259343712800,9.688712646484374,-0.13969407975673676,-0.028845548629760742,-0.06200755760073662
1761336259353779000,9.698779052734375,-0.12948085367679596,-0.05650700628757477,-0.07592843472957611
1761336259363846000,9.708845947265624,-0.11552274972200394,-0.08361372351646423,-0.08565789461135864
1761336259373911600,9.71891162109375,-0.10286980867385864,-0.10012372583150864,-0.09371182322502136
1761336259383979000,9.72897900390625,-0.09490056335926056,-0.11494315415620804,-0.08354121446609497
1761336259394046000,9.7390458984375,-0.09637142717838287,-0.1224370226264,-0.0502634234726429
1761336259404112000,9.74911181640625,-0.09086301922798157,-0.10723425447940826,-0.003001293633133173
1761336259414179000,9.759178955078125,-0.08406343311071396,-0.09246542304754257,0.03273140639066696
1761336259424245000,9.769244873046874,-0.08264125883579254,-0.07722118496894836,0.0558958500623703
1761336259434312000,9.77931201171875,-0.08504129946231842,-0.061881907284259796,0.05416452884674072
1761336259444377900,9.7893779296875,-0.08537649363279343,-0.0675070732831955,0.036014266312122345
1761336259454444800,9.79944482421875,-0.0790267139673233,-0.05817456170916557,0.018070688471198082
1761336259464511700,9.80951171875,-0.0768292099237442,-0.03457218408584595,0.0014069592580199242
1761336259474578000,9.819577880859375,-0.07386777549982071,-0.00447047408670187,-0.017387501895427704
1761336259484644900,9.829644775390625,-0.07617492973804474,0.01704227738082409,-0.031458985060453415
1761336259494711000,9.8397109375,-0.06702697277069092,0.03570304438471794,-0.04321950301527977
1761336259504778000,9.849778076171875,-0.06086963787674904,0.04289460554718971,-0.05603518709540367
1761336259514844000,9.859843994140626,-0.05610284581780434,0.03439672663807869,-0.06874165683984756
1761336259524910800,9.869910888671875,-0.05016101151704788,0.028122318908572197,-0.06194566190242767
1761336259534977800,9.879977783203126,-0.04274170845746994,0.025860494002699852,-0.052461616694927216
1761336259545044000,9.8900439453125,-0.03678956627845764,0.022017702460289,-0.0343451164662838
1761336259555111000,9.90011083984375,-0.028634700924158096,0.0051279375329613686,-0.013334373943507671
1761336259565177000,9.910177001953125,-0.026072019711136818,-0.0028486093506217003,0.0063668303191661835
1761336259575244000,9.920244140625,-0.026285870000720024,-0.01712608151137829,0.004592100158333778
1761336259585310000,9.93031005859375,-0.019905686378479004,-0.02793341688811779,-0.009816928766667843
1761336259595377000,9.940376953125,-0.017553849145770073,-0.03811334818601608,-0.023165490478277206
1761336259605443800,9.95044384765625,-0.017484981566667557,-0.053085412830114365,-0.026042647659778595
1761336259615510000,9.960510009765626,-0.015411975793540478,-0.047795575112104416,-0.015699196606874466
1761336259625577000,9.970576904296875,-0.013004392385482788,-0.04605793580412865,-0.006045016460120678
1761336259635643000,9.980642822265626,-0.016522960737347603,-0.04132949560880661,0.0004941094666719437
1761336259645710000,9.9907099609375,-0.017273632809519768,-0.023462846875190735,-0.0062632267363369465
1761336259655776000,10.00077587890625,-0.02841470204293728,-0.004755471833050251,-0.003856794210150838
1761336259665843000,10.010843017578125,-0.00839104875922203,0.008085950277745724,-0.014059538021683693
1761336259675909000,10.0209091796875,0.00619162293151021,0.028629306703805923,-0.011071736924350262
1761336259685976000,10.03097607421875,0.015231153927743435,0.0409364253282547,0.0007562087848782539
1761336259696043000,10.04104296875,0.018075676634907722,0.03568600118160248,0.00954623892903328
1761336259706109000,10.05110888671875,0.020014479756355286,0.006882697343826294,0.02019534260034561
1761336259716176100,10.061176025390624,0.01745331659913063,-0.03215311840176582,0.03877568617463112
1761336259726242000,10.071241943359375,-0.04410699009895325,-0.08690767735242844,0.059958335012197495
1761336259736309000,10.08130908203125,-0.17297975718975067,-0.11811753362417221,0.08739902079105377
1761336259746375200,10.091375244140625,-0.3552016317844391,-0.06333519518375397,0.09762000292539597
1761336259756442000,10.101442138671874,-0.5625154376029968,0.02390516735613346,0.06883362680673599
1761336259766509000,10.111509033203125,-0.7796539664268494,0.11515511572360992,0.0131370285525918
1761336259776575000,10.121574951171874,-0.9822651743888855,0.19331489503383636,-0.03967718407511711
1761336259786642200,10.13164208984375,-1.1576966047286987,0.21192452311515808,-0.045982345938682556
1761336259796707800,10.141707763671874,-1.2634105682373047,0.2319999635219574,0.004688022658228874
1761336259806775000,10.151775146484376,-1.3156617879867554,0.24276435375213623,0.11611288040876389
1761336259816841000,10.161841064453125,-1.3917083740234375,0.1663755625486374,0.25303027033805847
1761336259826908000,10.171907958984375,-1.5361179113388062,0.00886074174195528,0.3704792559146881
1761336259836974800,10.181974853515625,-1.7276606559753418,-0.17574292421340942,0.44992345571517944
1761336259847040800,10.192040771484375,-1.8173868656158447,-0.4873778522014618,0.48831766843795776
1761336259857108000,10.20210791015625,-2.0457139015197754,-0.6861724257469177,0.32931551337242126
1761336259867174000,10.212173828125,-2.169158458709717,-0.8058156371116638,0.10430204123258591
1761336259877240800,10.22224072265625,-2.1832170486450195,-0.8559715151786804,-0.127170592546463
1761336259887307000,10.23230712890625,-2.1674582958221436,-0.9347035884857178,-0.33255279064178467
1761336259897374000,10.2423740234375,-2.1247904300689697,-1.1091326475143433,-0.49430227279663086
1761336259907441000,10.25244091796875,-2.05012845993042,-1.0537077188491821,-0.6286711692810059
1761336259917506800,10.2625068359375,-1.8843810558319092,-1.0213764905929565,-0.6254250407218933
1761336259927574000,10.272573974609376,-1.5731360912322998,-0.954011857509613,-0.4419502913951874
1761336259937640000,10.282639892578125,-1.2476747035980225,-0.7938328385353088,-0.18003720045089722
1761336259947707000,10.292706787109376,-0.9901630282402039,-0.6433301568031311,0.06482448428869247
1761336259957773000,10.30277294921875,-0.8017776608467102,-0.5509338974952698,0.2728746235370636
1761336259967840000,10.312840087890624,-0.6886051297187805,-0.4005734622478485,0.4632446765899658
1761336259977907000,10.322906982421875,-0.6188196539878845,-0.1856459677219391,0.6237715482711792
1761336259987972900,10.332972900390626,-0.5522990226745605,0.05026848241686821,0.6938283443450928
1761336259998040000,10.3430400390625,-0.4648793935775757,0.2097359001636505,0.6285926103591919
1761336260008106000,10.35310595703125,-0.35820621252059937,0.43960973620414734,0.4917756915092468
1761336260018173000,10.3631728515625,-0.24832578003406525,0.7763962745666504,0.5309638381004333
1761336260028239000,10.373239013671874,-0.3298960030078888,0.952660083770752,0.9851313829421997
1761336260038306000,10.38330615234375,-0.517021119594574,0.5867510437965393,1.1524009704589844
1761336260048373000,10.393373046875,-0.5893791913986206,0.22964169085025787,1.1944204568862915
1761336260058439000,10.40343896484375,-0.5817990303039551,-0.16275139153003693,1.1510341167449951
1761336260068506000,10.413506103515624,-0.5562162399291992,-0.3440023362636566,0.975891649723053
1761336260078572000,10.423572021484375,-0.5758336186408997,-0.365681529045105,0.6989572644233704
1761336260088639000,10.433638916015624,-0.6015739440917969,-0.3077307641506195,0.38997599482536316
1761336260098705200,10.443705078125,-0.6080578565597534,-0.24425937235355377,0.10882128030061722
1761336260108772000,10.453772216796875,-0.5980851054191589,-0.12746430933475494,-0.048582322895526886
1761336260118838000,10.463838134765625,-0.5408119559288025,0.10338567942380905,-0.02743416093289852
