time,seconds_elapsed,z,y,x
1761336303455582500,0.08058251953125,-0.46460722401738164,0.8923296554908156,0.08978395049534738
1761336303465648400,0.0906484375,-0.44863633242547507,0.8593215582497418,0.04480279912687838
1761336303475715300,0.10071533203125,-0.35909926936328407,0.8178077907308936,-0.05270516974925995
1761336303485781500,0.110781494140625,-0.2231079136401415,0.7982052646383643,-0.1242670156598091
1761336303495848400,0.120848388671875,-0.006764087307453155,0.6985328842699527,-0.10063377274647355
1761336303505914400,0.130914306640625,0.21238544409573076,0.51393970246315,0.06781082281395792
1761336303515981300,0.140981201171875,0.40778760468661784,0.30495354541689157,0.29520985777676106
1761336303526047500,0.151047607421875,0.39037002141773697,0.16290420482903717,0.5184000428728759
1761336303536114400,0.161114501953125,0.05445464376509189,0.1503814078643918,0.7119030918441712
1761336303546180600,0.1711806640625,-0.6371972488194704,0.30124504628777504,0.8255705336868763
1761336303556247600,0.18124755859375,-1.431054547381401,0.6525684209525585,0.7919662241183221
1761336303566313500,0.1913134765625,-1.9707751723110674,1.1859712410375476,0.8447117258779704
1761336303576379600,0.201379638671875,-2.195716731119156,1.6871161977268754,0.925685543256253
1761336303586446600,0.211446533203125,-2.173659213089943,1.8695998400337992,0.9091983727052807
1761336303596512300,0.22151220703125,-1.986098998171091,1.6225773823209106,0.7683265514641999
1761336303606579500,0.231579345703125,-1.661524514222145,1.2213069044433533,0.5210561103396117
1761336303616645400,0.241645263671875,-1.364880239728093,0.7470733355551957,0.4042817885227501
1761336303626712300,0.25171240234375,-1.3298486738353967,0.23202552571967242,0.5408157266899943
1761336303636778200,0.2617783203125,-1.4426257427096365,-0.13426672388762234,0.8207477897055446
1761336303646845400,0.271845458984375,-1.5825070916086434,-0.15750446467734872,0.9860931040763854
1761336303656911400,0.281911376953125,-1.5447387942284345,0.06320873584598302,1.099839748635143
1761336303666978300,0.291978271484375,-1.3964087659358977,0.28939021171256896,1.2512868860349058
1761336303677044500,0.30204443359375,-1.3633406090706586,0.5077040960092097,1.477182530697435
1761336303687111400,0.312111328125,-1.5654589261740446,0.7218744507603347,1.675886070921272
1761336303697177300,0.32217724609375,-1.7628537218868732,0.8542761844936758,1.7101542512260377
1761336303707243500,0.332243408203125,-1.7249544916033743,0.7849282883055507,1.6924987675480543
1761336303717310500,0.342310546875,-1.6714222233802078,0.32859128184225406,1.5735437406912445
1761336303727376400,0.35237646484375,-1.6564134548187255,-0.23628336582724005,1.4684994580261408
1761336303737443300,0.362443359375,-1.5687579677194357,-0.7333996880549937,1.4056870280213654
1761336303747509500,0.372509521484375,-1.6388380506396292,-1.0355478937275706,1.3746778495125471
1761336303757576400,0.382576416015625,-1.7000912685036658,-1.031663964966312,1.3698828703209758
1761336303767642600,0.392642578125,-1.5040332743525504,-0.9630215866990387,1.375388628130406
1761336303777709600,0.40270947265625,-1.194109247046709,-1.0724102552440016,1.4204719246990978
1761336303787775500,0.412775390625,-0.8015484375864267,-1.230390374609083,1.4248315812133252
1761336303797842400,0.422842529296875,-0.39758243701457974,-1.27552890849635,1.3968886584073303
1761336303807908600,0.43290869140625,-0.12707038264274598,-1.3795626989446579,1.3127730358719825
1761336303817975600,0.4429755859375,0.03491349247097969,-1.6231801705196498,1.2930096201293169
1761336303828041200,0.453041259765625,0.014366379004716873,-1.8934616310060024,1.2515526973642408
1761336303838108400,0.4631083984375,-0.10868833825588226,-2.1690296535931526,1.0398917681507767
1761336303848174300,0.47317431640625,-0.24934651674628255,-2.5475091846004125,0.8012009393230081
1761336303858240300,0.483240234375,-0.4271113138377666,-2.7913179409638045,0.6068344053901732
1761336303868307500,0.493307373046875,-0.534335424759984,-2.7813904211893674,0.5368450694933533
1761336303878373400,0.503373291015625,-0.4587491456389427,-2.634585702767968,0.5098277370996773
1761336303888440300,0.5134404296875,-0.3823258311718702,-2.4339738447047767,0.4208711042739451
1761336303898506500,0.523506591796875,-0.31084055762887,-2.116031346116215,0.2261344218544662
1761336303908573400,0.533573486328125,-0.11994155367612838,-1.6964724934846163,0.05142945072501898
1761336303918639400,0.543639404296875,-0.0883563288450241,-1.433855576276779,-0.1901929015100002
1761336303928706300,0.553706298828125,-0.27351883497238155,-1.2913522083111106,-0.6230364753894507
1761336303938772500,0.5637724609375,-0.48317573088705534,-1.272045158033818,-1.17974213738963
1761336303948839400,0.57383935546875,-0.6308019948244095,-1.3781377807080746,-1.7375177667088806
1761336303958905300,0.5839052734375,-0.7039256832242011,-1.392643714313954,-2.08215786421746
1761336303968972500,0.59397265625,-0.5039455471932888,-1.1508998545911162,-2.049442174051702
1761336303979038500,0.60403857421875,0.16746084522008894,-0.5457881813403219,-1.4997233021989465
1761336303989105400,0.61410546875,0.2707505393028259,-0.5507257838729769,-0.7616761536642909
1761336303999171600,0.624171630859375,-0.618560937410593,-1.1755058149941264,-0.46679275136291976
1761336304009237500,0.634237548828125,-0.49995501625239847,-0.3665490373799577,-0.7392785900257527
1761336304019304400,0.644304443359375,-0.3147837422966957,0.6898487156201154,-1.3444364405058324
1761336304029370600,0.65437060546875,0.011571195328235626,1.0203940176069737,-1.0573168040737508
1761336304039437600,0.6644375,0.1835088937014341,0.865304870443046,-0.22881898476332424
1761336304049503200,0.674503173828125,0.5679951177775859,0.8492084527753293,-0.3860790462255478
1761336304059570400,0.6845703125,0.6663380031079054,0.9955719302352517,-0.7881791067950427
1761336304069636400,0.69463623046875,0.5152449398428202,0.9254246272977441,-1.2735273594155907
1761336304079703300,0.704703369140625,0.2868634697139263,0.7093814644120633,-1.756256661709398
1761336304089769500,0.71476953125,0.20933248626589773,0.4242846755770966,-1.866510057324916
1761336304099836400,0.72483642578125,0.23752163891792297,0.10147884526848792,-1.7358895809851587
1761336304109902300,0.73490234375,0.2913374002575874,-0.21156674812398849,-1.6027797720476984
1761336304119969300,0.74496923828125,0.35473464441299435,-0.3467574549887329,-1.4965110621541737
1761336304130035500,0.755035400390625,0.31418869901299473,-0.35490937992539257,-1.4204403605170548
1761336304140102400,0.765102294921875,0.15482231292128562,-0.34160423694401976,-1.2821924580387771
1761336304150168300,0.775168212890625,0.0043570261657238,-0.3368113035790622,-0.9519961886852979
1761336304160234500,0.785234375,0.025481062737107277,-0.26012809606678783,-0.44367695645242927
1761336304170301400,0.795301513671875,0.1356441497206688,-0.015505904428660868,0.18369462553188204
1761336304180367400,0.805367431640625,0.20626783799827098,0.226106291738525,0.7522704658068716
1761336304190434600,0.8154345703125,0.1841156274229288,0.3018079774001613,1.0815899523258208
1761336304200500500,0.82550048828125,0.10748422316312789,0.24138594966325908,1.1195432508841157
1761336304210567400,0.8355673828125,0.022421090644598005,0.15161306855119763,0.9148119748033583
1761336304220633600,0.845633544921875,-0.0330395152926445,0.07929251322783529,0.6493319232493638
1761336304230700500,0.855700439453125,-0.12703063515424728,-0.03854867063555866,0.4841219256959855
1761336304240766500,0.865766357421875,-0.22219781305789946,-0.23452132459077982,0.34375381619334217
1761336304250833400,0.87583349609375,-0.251745979103446,-0.38662751042116433,0.21586875616684556
1761336304260899600,0.885899658203125,-0.277052269795537,-0.40377087985854593,0.02671922622993588
1761336304270966500,0.895966552734375,-0.2744932329624891,-0.3576443943798542,-0.1478970437027514
1761336304281032400,0.906032470703125,-0.2656517548590898,-0.3433507152851671,-0.33877339743226764
1761336304291099600,0.916099609375,-0.20234920324981212,-0.36918395246081054,-0.5610865074329078
1761336304301165300,0.926165283203125,-0.04574059143364429,-0.36373905799314377,-0.734371236500889
1761336304311231500,0.9362314453125,0.09986381128728389,-0.3110500356610864,-0.8411647009208798
1761336304321298400,0.94629833984375,0.23728549207448957,-0.23934308219142256,-0.8062680134542286
1761336304331364400,0.9563642578125,0.39045769970119,-0.20842903462015092,-0.7034003441758453
1761336304341431300,0.966431396484375,0.6083399876475334,-0.20020729585029184,-0.6309874343939125
1761336304351497500,0.97649755859375,0.9761410343825817,-0.31101627952195704,-0.5996569149762392
1761336304361564400,0.986564453125,1.1718752034068107,-0.4161592002559453,-0.5405756343238055
1761336304371630300,0.99663037109375,1.2330641238629818,-0.43721229048296806,-0.49510772235170003
1761336304381697500,1.006697509765625,1.3032540968984365,-0.4364726510968059,-0.411374669393152
1761336304391763500,1.016763427734375,1.2260597980588674,-0.47786198851838707,-0.28592078203633425
1761336304401830400,1.026830322265625,0.9613672436207532,-0.6495892590112984,-0.13132058743312955
1761336304411896600,1.036896484375,0.7700830397427082,-0.6961722195532173,0.04040843662545085
1761336304421963500,1.046963623046875,0.6685849052518605,-0.5353545752072707,0.20828093138635156
1761336304432029400,1.057029541015625,0.5250672456771135,-0.3265795036284253,0.36615620213747024
1761336304442095600,1.067095703125,0.27964579342007634,-0.1903520741270855,0.5596811706796289
1761336304452162600,1.07716259765625,0.0777642076820135,-0.12414360847584903,0.8670784559868275
1761336304462228500,1.087228515625,0.009584989947080612,-0.1836841772031039,1.202067512574792
1761336304472295400,1.09729541015625,0.048396074378490445,-0.4150291367800906,1.3451239843785763
1761336304482361600,1.107361572265625,0.011621464210748672,-0.5070442803936079,1.141144841839373
1761336304492428500,1.117428466796875,-0.008828618621826172,-0.4350137940580025,0.7356196291267871
1761336304502494500,1.127494384765625,0.03199263658821583,-0.4303375824078917,0.4350380151838064
1761336304512561700,1.137561767578125,0.17814824345111846,-0.5862998591445386,0.3436689143888652
1761336304522627600,1.147627685546875,0.33357202939689157,-0.7313581722900271,0.44470103880316014
1761336304532694500,1.157694580078125,0.4850099605768919,-0.8588632930882275,0.6297885799981653
1761336304542760700,1.1677607421875,0.6434411116451024,-0.9700367261581122,0.8833966997116803
1761336304552827600,1.17782763671875,0.6297317352443933,-1.0062865817993878,1.057538630130887
1761336304562893600,1.1878935546875,0.5107581498175859,-1.0125536063048988,1.119189176749438
1761336304572960500,1.19796044921875,0.4130769432663917,-0.9232602158054709,1.1876340596832333
1761336304583026700,1.208026611328125,0.39607495506107804,-0.7077410037286579,1.3378482942871748
1761336304593092400,1.21809228515625,0.40704526188671586,-0.5207150418169796,1.57580876301378
1761336304603159600,1.22815966796875,0.41474633778333664,-0.4797337372070178,1.8344180520154534
1761336304613225500,1.2382255859375,0.04746843813955783,-0.791024924680218,1.8633702979944646
1761336304623292400,1.24829248046875,-0.45166240224838256,-0.43389136589933186,2.1746013162456452
1761336304633358600,1.258358642578125,-0.4819207623898983,-0.22039209707649424,2.173117945820093
1761336304643425500,1.268425537109375,-0.7577291696041822,-0.4155392417266965,2.073895501176268
1761336304653491500,1.278491455078125,-0.9915490313947201,-0.5355559429982677,1.7781120812952518
1761336304663558400,1.288558349609375,-0.9977870490014552,-0.4764730183780193,1.4394529578924178
1761336304673624600,1.29862451171875,-1.010359530326724,-0.541926391345635,1.2017914721123872
1761336304683691500,1.30869140625,-1.0349375067442654,-0.7538434872772544,0.942796837054938
1761336304693757400,1.31875732421875,-1.0427578251063823,-0.8346359567392617,0.6285084770597517
1761336304703824600,1.32882470703125,-1.0112538488179446,-0.6880126592993736,0.34793373222649093
1761336304713890600,1.338890625,-1.015024015006423,-0.49329314721040424,0.030489100157469508
1761336304723956500,1.34895654296875,-1.0054723428070544,-0.3639506549172103,-0.6287081643503158
1761336304734023700,1.359023681640625,-0.9503875844448805,-0.16947242250451816,-1.2886989173233507
1761336304744089600,1.369089599609375,-0.7824918549388646,-0.02125781445230823,-1.5821560862138866
1761336304754156500,1.379156494140625,-0.6571873129248619,-0.08680473375516012,-1.4023355256363748
1761336304764222700,1.38922265625,-0.7994102565139531,-0.3677980510603636,-1.090687524082139
1761336304774289700,1.39928955078125,-1.149376955872774,0.2714660671610385,-0.6500900481402874
1761336304784355600,1.40935546875,-1.2852449774771928,0.3416906731184572,-0.5252922135394066
1761336304794422500,1.419422607421875,-1.7448165454149245,0.04750085170497186,-0.3145927497692406
1761336304804488700,1.42948876953125,-2.0640105053693056,0.13725985955530776,-0.4715652995269745
1761336304814555600,1.4395556640625,-2.066025352323055,0.5796300990570337,-0.7520069194998592
1761336304824621300,1.449621337890625,-1.7943126899898052,0.5818909931937232,-0.8481898503173142
1761336304834688800,1.459688720703125,-1.3713327768683432,0.279197556462232,-0.7520889717601239
1761336304844754400,1.46975439453125,-0.9380968426704406,0.2503491544501856,-0.5443737114325166
1761336304854820600,1.479820556640625,-0.5607055452913046,0.46245830235518515,-0.3470812435830012
1761336304864887600,1.489887451171875,-0.4098451217383146,0.7135645953156053,-0.2821126219250262
1761336304874953500,1.499953369140625,-0.500606758159399,0.6916507235407829,-0.3282671279218048
1761336304885020400,1.5100205078125,-0.458513583317399,0.5161038582270965,-0.1178043589843437
1761336304895086600,1.520086669921875,-0.3043336599528789,0.44869412702731787,0.16514412924293428
1761336304905153500,1.530153564453125,-0.27398995961546896,0.4923860423028469,0.47159982285108415
1761336304915219500,1.540219482421875,-0.3877905263185501,0.4635878543743863,0.5945240821324288
1761336304925286700,1.55028662109375,-0.5803139166027307,0.4980750842573121,0.49934261997509743
1761336304935352600,1.5603525390625,-0.598625818362832,0.575533404327929,0.35469540838114916
1761336304945419500,1.57041943359375,-0.45516894906461236,0.6507450049176812,0.40409777372535316
1761336304955485700,1.580485595703125,-0.23714871395230291,0.6667134122915566,0.5624809574659914
1761336304965552600,1.590552734375,-0.06559387741684913,0.7462102159198373,0.5725999446919188
1761336304975618600,1.60061865234375,-0.21305589070320127,1.0765396831989287,0.4927026339713484
1761336304985684700,1.610684814453125,-0.3876560862839222,1.3376564249768852,0.39350083025675264
1761336304995751700,1.620751708984375,-0.3844190040588379,1.4243500813066958,0.363801528770104
1761336305005817600,1.630817626953125,-0.20756606111526488,1.3779349516123534,0.1695924869539216
1761336305015884500,1.640884521484375,0.018586042526364324,1.2086199298929423,-0.21600871262680738
1761336305025950700,1.65095068359375,0.2950707415670156,0.9421312858182936,-0.7127506485842168
1761336305036017700,1.661017578125,0.46444589597582814,0.6652114832960069,-1.1134764981910585
1761336305046083300,1.671083251953125,0.5378489858388901,0.3592536562073976,-1.2918817851431668
1761336305056150800,1.68115087890625,0.6278513283252716,0.013918635237216948,-1.305352092090994
1761336305066216400,1.691216552734375,0.5840905125319957,-0.0884953719895333,-1.1496634446639566
1761336305076283400,1.701283447265625,0.4761334111601114,0.031485490783676504,-0.99401315648593
1761336305086349600,1.711349609375,0.4681657932817936,0.16559782782718538,-0.7282061379998922
1761336305096416500,1.72141650390625,0.5395744944572448,0.23199045440629124,-0.34629871490318326
1761336305106482400,1.731482421875,0.577476647350192,0.37184542675502597,-0.0015599427931010722
1761336305116548600,1.741548583984375,0.4068266506999731,0.48973830427303905,0.18635321374926714
1761336305126615600,1.751615478515625,-0.009108604606986046,0.5617736129142343,0.23975400107987224
1761336305136681500,1.761681396484375,-0.4582172307193279,0.62037799676992,0.2863680874124169
1761336305146748400,1.77174853515625,-0.712411772018671,0.7453725960519164,0.41673477165419603
1761336305156814600,1.781814697265625,-0.6741185739815235,0.7353342363141476,0.3869474265579134
1761336305166881500,1.791881591796875,-0.3879559460133314,0.3280659793265164,0.011071282982081175
1761336305176947700,1.80194775390625,-0.0961900912106037,0.08164346026815474,-0.44549829012807457
1761336305187014700,1.8120146484375,0.11839257066845893,0.05916128708608448,-0.7391936882212757
1761336305197080600,1.82208056640625,0.19746435381770133,0.132623852051422,-0.6174689774554223
1761336305207147500,1.8321474609375,0.2174731226235628,-0.3771943135023117,-0.5988787702105939
1761336305217213700,1.842213623046875,0.05047989491522312,-0.3820725139979273,-0.8201623910330236
1761336305227280600,1.85228076171875,-0.27450316983461376,0.26799524924531576,-0.5859417298892513
1761336305237346600,1.8623466796875,-0.4542535877853632,0.26345570611953734,-0.36940767821408804
1761336305247412500,1.87241259765625,-0.6200748491048812,0.4346938779212534,-0.1820998671537265
1761336305257479700,1.882479736328125,-0.7178232756733894,0.9331387818716466,0.1627018506573513
1761336305267545300,1.89254541015625,-0.641520957237482,0.877833731822297,0.4551264616297558
1761336305277612500,1.902612548828125,-0.4702566280812025,0.5120318960804492,0.25933972216807305
1761336305287678500,1.912678466796875,-0.15426409451663492,0.37223245331123467,-0.1142176230713725
1761336305297745400,1.922745361328125,0.12088204939663409,0.28414653890542685,-0.15350125691797584
1761336305307811600,1.9328115234375,0.24730244369804857,0.10780870587714016,-0.08914181666690855
1761336305317878500,1.94287841796875,0.17165946595370768,-0.06158529936261475,-0.14736202351059763
1761336305327944400,1.9529443359375,0.058145314976572986,-0.12507131778001784,-0.19747242752630262
1761336305338011400,1.963011474609375,0.02764730086028576,-0.07035086268559097,-0.08631028303541242
1761336305348077600,1.97307763671875,0.08761515508890151,-0.018427417898550628,0.056075559497810894
1761336305358144500,1.98314453125,0.1323673200070858,0.03141688252687454,0.20639661547709257
1761336305368210400,1.99321044921875,0.0964519570171833,0.07020191920157522,0.35272830955926326
1761336305378276600,2.003276611328125,0.038948447075486184,0.06241692788116634,0.4641343823412433
1761336305388343600,2.013343505859375,-0.07438742472529411,0.030228074601106342,0.508701619146578
1761336305398409700,2.02340966796875,-0.1805687485963106,-0.05908635868635028,0.4528469358578324
1761336305408476700,2.0334765625,-0.3292722863763571,-0.16338475488759577,0.311790844091028
1761336305418542600,2.04354248046875,-0.5830389576524496,-0.26373072366863487,0.20364779169298708
1761336305428609300,2.053609375,-0.7838046911031007,-0.30801559986863286,0.16076492777802048
1761336305438675500,2.063675537109375,-0.8602180686980485,-0.21008038202375173,0.12345847575590013
1761336305448742400,2.073742431640625,-0.7108341474384069,-0.06282854088936,0.08216879931651055
1761336305458808300,2.083808349609375,-0.3941390185624361,-0.023143230906687677,0.059533700595051045
1761336305468875500,2.09387548828125,-0.08630114988088607,-0.005302526854909956,0.0665448945313692
1761336305478941200,2.103941162109375,0.1436918470978737,0.09873265183288603,0.10685593519695102
1761336305489008000,2.114008056640625,0.33695115044116974,0.22662030567526817,0.15473806870393453
1761336305499074300,2.12407421875,0.5964543195426464,0.24450802720654755,0.1853524026762694
1761336305509140200,2.13414013671875,0.8985223726511001,0.1842781975734979,0.09568177636228502
1761336305519207200,2.144207275390625,1.1185545321077108,0.08456387775950133,-0.04873305124789476
1761336305529273300,2.1542734375,1.1173387265771626,0.010852635262720286,-0.1561710971817374
1761336305539340300,2.16434033203125,0.9469862515687942,0.07724204697143286,-0.17302008678242564
1761336305549406200,2.17440625,0.6386749201565981,0.12618665861077605,-0.07828983899131417
1761336305559473200,2.18447314453125,0.16440204217135906,0.06084489279147237,-0.021675532974302768
1761336305569539300,2.194539306640625,-0.3010889789432287,0.04320541040021926,-0.08120397287234664
1761336305579606300,2.204606201171875,-0.6459574783802032,0.139016366100125,-0.13183043665140867
1761336305589672400,2.21467236328125,-0.7579051106929778,0.23610941576613112,-0.12260595057979225
1761336305599739400,2.224739501953125,-0.6406377446621656,0.2502275190982036,-0.09482990877330302
1761336305609805300,2.234805419921875,-0.2782873645484447,0.16294256407804786,0.0045082712046802045
1761336305619871500,2.24487158203125,-0.07116963172256946,0.150389445040375,0.11237404103130101
1761336305629938400,2.2549384765625,0.004895955348014831,0.180739739515353,0.13977467365413904
1761336305640004400,2.26500439453125,0.11548457426726817,0.1573611106839031,0.12477416146434843
1761336305650071300,2.2750712890625,0.23189678477346895,0.30372542839404193,0.1572045318827033
1761336305660137500,2.285137451171875,0.23186814320087432,0.33968495931923387,0.16969927179664374
1761336305670204400,2.295204345703125,0.15241232917010783,0.239032006948255,0.08209807216785847
1761336305680270000,2.30527001953125,-0.03692892394661903,0.13796117622507736,-0.07986534467972814
1761336305690337500,2.315337646484375,-0.21448153959214686,0.008656385593768209,-0.23224866695106028
1761336305700403200,2.3254033203125,-0.25073650979995726,-0.04916535998424515,-0.3403764487147331
1761336305710470100,2.33547021484375,-0.22402853561639785,-0.03522893336201086,-0.34822913497649133
1761336305720536300,2.345536376953125,-0.15430676461458206,0.056392169432621445,-0.23292685847356914
1761336305730603300,2.355603271484375,-0.08533902685046195,0.18749695869060232,-0.07465835062116384
1761336305740669200,2.365669189453125,-0.05016834474802017,0.24168115148385985,-0.027174641847237942
1761336305750735400,2.3757353515625,-0.044207975038886065,0.22594938414376228,-0.08298976031057537
1761336305760802300,2.38580224609375,-0.08231471059322357,0.2111483035162091,-0.16128464080318808
1761336305770868200,2.3958681640625,-0.16059329753816126,0.13992891436778007,-0.18408355178423225
1761336305780935200,2.40593505859375,-0.23613223038613795,0.007023450629692524,-0.14955693973898887
1761336305791001300,2.41600146484375,-0.2921078001081943,-0.031760745794791725,-0.08302505081966519
1761336305801068300,2.426068359375,-0.31983108881413935,-0.03914049904886633,-0.07035933825299143
1761336305811134500,2.436134521484375,-0.30461072332859035,-0.0946987201416865,-0.12027962652407585
1761336305821201400,2.446201416015625,-0.2643207985162735,-0.1429931973092258,-0.20509360658712683
1761336305831267300,2.456267333984375,-0.13019757475256918,-0.16111290096547454,-0.1892201109550893
1761336305841334300,2.466334228515625,0.04784545475840568,-0.14240772557146847,-0.04799414251409471
1761336305851400400,2.476400390625,0.17173077762424946,-0.01255421501621604,0.19350969790779052
1761336305861467400,2.48646728515625,0.1694628326922655,0.13261731271278113,0.4458164526991546
1761336305871533300,2.496533203125,0.120302203682065,0.21914496482592075,0.6240567583478986
1761336305881599200,2.50659912109375,0.0967611690968275,0.1284451050620526,0.6450359796211123
1761336305891666400,2.51666650390625,0.017660159853100776,-0.04934588591661304,0.49383262438196684
1761336305901732000,2.526732177734375,-0.11896423307657242,-0.1513786022081971,0.24978443323951213
1761336305911799300,2.53679931640625,-0.2656201906770468,-0.20187800554148852,0.040983204306103284
1761336305921865200,2.546865234375,-0.3769154965609312,-0.15747206024508922,-0.0518562978349626
1761336305931932200,2.55693212890625,-0.3363064227968454,-0.060703292363695795,-0.09647080784812569
1761336305941998300,2.566998291015625,-0.23623276815116404,0.006616824323870241,-0.10674381659198552
1761336305952065300,2.577065185546875,-0.09114332921504974,0.05917158928439021,-0.14774419122859836
1761336305962131200,2.587131103515625,0.10303250445127486,0.08924096619244665,-0.1806950053244829
1761336305972198100,2.5971982421875,0.22990707226097581,0.11162413597945123,-0.14645616071205586
1761336305982264300,2.607264404296875,0.25716332797706126,0.1787582285756245,-0.07924038118179887
1761336305992331300,2.617331298828125,0.15863924086093903,0.20848799826577305,-0.04097681109793484
1761336306002397200,2.627397216796875,-0.02555062084197998,0.2229939318716526,-0.053395672764070326
1761336306012463400,2.63746337890625,-0.19192483986914158,0.2187032489404082,-0.0628709917915985
1761336306022530300,2.6475302734375,-0.29547639975845813,0.1679020131163299,-0.08553188254144042
1761336306032596200,2.65759619140625,-0.2931277908056974,0.13360511817373336,-0.03207658854462206
1761336306042663400,2.667663330078125,-0.20479133570492267,0.10421290987487881,-0.00619677228089422
1761336306052729300,2.677729248046875,-0.11095511414408683,0.07977894503790885,-0.021479827739112077
1761336306062796300,2.68779638671875,-0.09556465278863906,0.1222829657031223,-0.06286105491947383
1761336306072862500,2.697862548828125,-0.09696808984577655,0.12650799951963126,-0.07829458823166788
1761336306082929400,2.707929443359375,-0.03194529031515121,0.12088062462452798,-0.053280156625621015
1761336306092995300,2.717995361328125,0.0577045854717493,0.12478530391287058,-0.05597509479802101
1761336306103062300,2.728062255859375,0.12659633539021015,0.17866908898744732,-0.05867185960132628
1761336306113128400,2.73812841796875,0.11826806750595568,0.2630421934152022,-0.01978942696675658
1761336306123194000,2.748194091796875,0.059983636319637296,0.2997593743072823,-0.006709142249822616
1761336306133261300,2.75826123046875,-0.004359364253282547,0.20752412166967987,-0.037993557503446934
1761336306143327200,2.7683271484375,-0.1388023214906454,0.155863200276345,-0.10063359008338302
1761336306153394200,2.778394287109375,-0.250875041487813,0.14379307898264376,-0.15464162259213626
1761336306163460400,2.78846044921875,-0.3103442985445261,0.09559135813247412,-0.1936271137423813
1761336306173527300,2.79852734375,-0.3115291244149208,0.08923504790831356,-0.23134163510873912
1761336306183593200,2.80859326171875,-0.2683388019859791,0.1253977001901716,-0.3107144835637882
1761336306193660200,2.81866015625,-0.13616846585571765,0.1426004351319745,-0.37430337783377615
1761336306203726300,2.828726318359375,0.02623275788724422,0.14366338818836957,-0.39843660615850235
1761336306213793300,2.838793212890625,0.10791969197094439,0.17035678585730493,-0.4101929487952962
1761336306223859200,2.848859130859375,0.09068447953164577,0.25047095419894905,-0.3831980108965188
1761336306233926400,2.858926513671875,0.0044160628765821455,0.3591197276294231,-0.2559763832148164
1761336306243992300,2.868992431640625,-0.04995616330206394,0.38997477502245453,-0.10168605827838181
1761336306254058200,2.879058349609375,-0.0762654935568571,0.3437188910104334,-0.015887487624771893
1761336306264125400,2.88912548828125,-0.14891630374789236,0.29354959641434253,-0.011765804584883154
1761336306274191400,2.89919140625,-0.24799977831244469,0.21804515035785732,-0.031537568030785765
1761336306284258300,2.90925830078125,-0.28384499867558477,0.1423950487529859,-0.12412420965563505
1761336306294324500,2.919324462890625,-0.2297907524049282,0.1403077941501513,-0.1742973584429361
1761336306304391400,2.929391357421875,-0.0316758257240057,0.17707480553332716,-0.14010618889713658
1761336306314457300,2.939457275390625,0.18305296662747858,0.2279078978003934,-0.07809183220118283
1761336306324524300,2.949524169921875,0.24288228916823862,0.3035813072156161,-0.023983700318820772
1761336306334590200,2.959590087890625,0.22051731262505053,0.29203484446983785,-0.004247665773425251
1761336306344657400,2.969657470703125,0.20404957742691038,0.15627879533991218,0.0012172211694996802
1761336306354723300,2.979723388671875,0.14670330387353897,-0.0006050897536799311,0.0038006709245964883
1761336306364789200,2.989789306640625,-0.010361235016584395,-0.09080843470487743,0.06527284703524783
1761336306374856200,2.999856201171875,-0.21684066993892193,-0.0820482416767627,0.1343637179886922
1761336306384922400,3.00992236328125,-0.41179099510908124,-0.03211524005457759,0.20452819125670937
1761336306394989300,3.0199892578125,-0.4824409868717193,-0.05866711036097258,0.25155237449379636
1761336306405055200,3.03005517578125,-0.39321488945484157,-0.11142181834038346,0.2320129767653532
1761336306415122200,3.0401220703125,-0.24708558607697487,-0.17561846924517302,0.19564694739850236
1761336306425188400,3.050188232421875,-0.17672259456217287,-0.23370577042419463,0.19248828243818134
1761336306435255300,3.06025537109375,-0.1659633001387119,-0.2156725394750014,0.19902875359021127
1761336306445321200,3.0703212890625,-0.1066430961638689,-0.08173986984733492,0.26381195394499224
1761336306455388400,3.080388427734375,-0.0420452440470457,0.02711249986384064,0.3133506772862747
1761336306465454300,3.090454345703125,0.01589841087758541,0.05269914186727255,0.2830280014705844
1761336306475521300,3.100521240234375,0.08636194015741348,0.00921246684025973,0.19619119207672775
1761336306485587500,3.11058740234375,0.16565291901528834,-0.030863486427813766,0.09460537930242717
1761336306495653400,3.1206533203125,0.21168167974054813,-0.07543887000698596,-0.011819674213568214
1761336306505720300,3.13072021484375,0.2318172897964716,-0.08002605166677385,-0.15777356394231318
1761336306515786500,3.140786376953125,0.2711129428744316,-0.02750325274709612,-0.29638169630141925
1761336306525853400,3.150853515625,0.2626519885212183,0.04753076278604567,-0.29700183749375864
1761336306535919000,3.160919189453125,0.14274433711469173,0.15824114492144434,-0.22033229318065567
1761336306545986300,3.170986328125,-0.011665887874364853,0.22488997475132344,-0.20024622135488315
1761336306556052200,3.18105224609375,-0.26040625542104245,0.28436215441748497,-0.22127890811469406
1761336306566119200,3.191119140625,-0.44611295142769813,0.29393892452549186,-0.3094355862017721
1761336306576185300,3.201185302734375,-0.49112230597734446,0.3297240487318486,-0.4447653362110257
1761336306586251300,3.211251220703125,-0.5332914686650038,0.347351146565564,-0.5038179022256285
1761336306596318200,3.221318115234375,-0.6856646348685026,0.3749728015279397,-0.4539378728996962
1761336306606384400,3.23138427734375,-0.6523913108199835,0.3376565587641671,-0.34009679152313615
1761336306616451300,3.241451416015625,-0.4400801010042429,0.23105368501283227,-0.22109893017159774
1761336306626517200,3.251517333984375,-0.22562720298469066,0.07994297649320214,-0.18020652768779544
1761336306636584200,3.261584228515625,-0.14153262323737142,0.0005148907195776701,-0.16467833836209028
1761336306646650400,3.271650390625,-0.11027765327394008,-0.03880852714814245,-0.12464659869507885
1761336306656717300,3.28171728515625,-0.03574117546677589,-0.061939373497292394,-0.002399557684463798
1761336306666783200,3.291783203125,0.08847674035429955,-0.04935089088529348,0.15180403367918915
1761336306676850400,3.301850341796875,0.26313772621154785,-0.06067848671600222,0.2617983491002582
1761336306686916400,3.311916259765625,0.4000333372980356,-0.09885792218036948,0.31549035619609056
1761336306696983300,3.3219833984375,0.31838848879039283,-0.061201085818000135,0.3328015930136666
1761336306707049500,3.332049560546875,0.03218085263669491,-0.023761874261684714,0.3460277890073135
1761336306717115400,3.342115478515625,-0.12260697349309921,-0.022615590303391216,0.46269010181706394
1761336306727182300,3.352182373046875,-0.13542261592447757,-0.041247444732859725,0.5088043123360723
1761336306737248500,3.36224853515625,-0.07153145077228545,-0.10237188511807471,0.5644615368239582
1761336306747315500,3.3723154296875,-0.026666473129391667,-0.1726148304497823,0.5462949618186801
1761336306757381000,3.382381103515625,-0.04020049296319485,-0.24527272796873,0.4522062268014997
1761336306767448300,3.3924482421875,-0.08781272348761558,-0.22182967386525124,0.3542461667763069
1761336306777514200,3.40251416015625,-0.07195932079553603,-0.17063910993002354,0.2611313365588896
1761336306787581200,3.412581298828125,0.030564065089821815,-0.0802093358118087,0.18423521694829686
1761336306797647400,3.4226474609375,0.14341010754704475,-0.020652071678079663,0.1794121624397114
1761336306807714300,3.43271435546875,0.2303957325607538,-0.001308598380535841,0.21678378865253178
1761336306817780200,3.4427802734375,0.2683592602521181,0.012354089334234595,0.17982256987150758
1761336306827847200,3.45284716796875,0.1881201868891716,-0.009614508302509784,0.10857030136678367
1761336306837913300,3.462913330078125,-0.05720891090929508,-0.07413586111702025,0.012388384329481049
1761336306847979300,3.472979248046875,-0.3398714218020439,-0.08484795539788902,-0.16176126360530033
1761336306858046200,3.483046142578125,-0.4895218850433826,-0.020728717110864818,-0.317221271641925
1761336306868112400,3.4931123046875,-0.5462140786021947,0.0653783715026453,-0.3427789067465812
1761336306878179300,3.503179443359375,-0.3732937989324331,0.09562325110808015,-0.2638994678316638
1761336306888245200,3.513245361328125,-0.05367664512991905,0.15486991492267696,-0.16692237269552423
1761336306898312400,3.5233125,0.1990694509267807,0.1647575410781428,-0.10178540873331948
1761336306908378400,3.53337841796875,0.3532511278569698,0.1548928939394653,-0.07621765409344806
1761336306918445300,3.5434453125,0.3328115664184093,0.12357830274328589,-0.07002340256320312
1761336306928511500,3.553511474609375,0.19799860682487486,0.10143106060400604,-0.10414287684597075
1761336306938578400,3.563578369140625,0.15063070645034313,0.10209010903462767,-0.1298205764000304
1761336306948644400,3.573644287109375,0.15596563773751257,0.11199267703089863,-0.07817178383590653
1761336306958710300,3.583710205078125,0.05084580561816692,0.11889745145067572,0.0018495733894407747
1761336306968777500,3.593777587890625,-0.09450491460263728,0.0672651350973174,0.09228833453170955
1761336306978843100,3.603843017578125,-0.15919278309047222,0.07397484360272065,0.24235519655421375
1761336306988910000,3.61391015625,-0.2658107448130846,0.13001290236804633,0.2849007730725221
1761336306998976300,3.623976318359375,-0.519154222241044,0.1739292009839788,0.2558733977643773
1761336307009043200,3.634043212890625,-0.7778115881681442,0.07889823494693264,0.16516139090498907
1761336307019109400,3.644109375,-0.8406430151343345,-0.047648251685872674,0.09178327108640223
1761336307029176300,3.65417626953125,-0.6253934137791395,-0.0976545560062863,0.09331183236055075
1761336307039242200,3.6642421875,-0.34768647946715353,-0.09621814826130866,0.12947046605441717
1761336307049309200,3.67430908203125,-0.106695118612051,-0.041686384139396244,0.09618154257796704
1761336307059375400,3.684375244140625,0.14636428117752073,0.04995839179176837,0.02773636738322675
1761336307069441300,3.694441162109375,0.41804771741628644,0.08485544458460062,-0.004911445178091525
1761336307079508200,3.70450830078125,0.5556155286759138,0.040431306044384836,-0.05852733656410127
1761336307089574400,3.714574462890625,0.5336573793679475,-0.03953896031454205,-0.17372136691957712
1761336307099641300,3.724641357421875,0.40902445300519463,-0.07654957119524479,-0.23938345073442904
1761336307109707300,3.734707275390625,0.19107494504153727,-0.10139852830758318,-0.2328745802970603
1761336307119774500,3.7447744140625,-0.047236967471241946,-0.0389516436795704,-0.08060651843585073
1761336307129840400,3.75484033203125,-0.21587211716771124,0.01197984919436276,0.10847184596098959
1761336307139907300,3.7649072265625,-0.37243688984215256,0.020549597684293985,0.15344583693630992
1761336307149973500,3.774973388671875,-0.45770928119719023,0.02391974997082725,0.06566847702302038
1761336307160040400,3.78504052734375,-0.38387773678898807,0.0673421823889017,-0.010818915656208992
1761336307170106400,3.7951064453125,-0.27159400438964365,0.046325241187494245,-0.023676095674373208
1761336307180172300,3.80517236328125,-0.09286007000505923,0.06353274363595993,0.057738378143496805
1761336307190239200,3.8152392578125,0.04862696052491665,0.09817017737822606,0.10775675649419426
1761336307200305200,3.82530517578125,0.07898118225634097,0.0483076837089844,0.05016151314843446
1761336307210372000,3.8353720703125,0.07842822454869747,0.055875251152738926,-0.04722962441500276
1761336307220438300,3.845438232421875,0.03962649246752262,0.06349100511977449,-0.09826152718979865
1761336307230505200,3.855505126953125,-0.02127835035026073,0.026120109559316186,-0.09058441669065505
1761336307240571100,3.865571044921875,-0.059844520109891886,0.03346685559293255,-0.07487962868902832
1761336307250638300,3.875638427734375,-0.08905950867831706,0.014372662615031003,-0.11136040700934827
1761336307260704300,3.885704345703125,-0.056150341767072676,-0.038738037461508064,-0.17094346317145973
1761336307270771200,3.895771240234375,0.015245499926805496,0.00027870734352618455,-0.1527975290954113
1761336307280837400,3.90583740234375,0.09280044877231121,0.09426400025254116,-0.10026450104266404
1761336307290903300,3.9159033203125,0.13405951087772847,0.1332919057724066,-0.10010998633438721
1761336307300970200,3.92597021484375,0.16085048716962336,0.13554657109770923,-0.17232646022876724
1761336307311036400,3.936036376953125,0.12256021174192427,0.07594296533791348,-0.22082844266714527
1761336307321103400,3.946103271484375,-0.022281974434852598,0.00040076282061636445,-0.25328425805401056
1761336307331169300,3.956169189453125,-0.0507335774153471,-0.06778777073193341,-0.23889827929968013
1761336307341236500,3.966236572265625,0.03962824603319168,-0.07161701016388833,-0.14843776298332959
1761336307351302400,3.976302490234375,0.06743921302258968,-0.03428746952712536,-0.02548243271028623
1761336307361369300,3.986369384765625,-0.040813656425476075,0.0026203750988468525,0.0738537014410831
1761336307371435500,3.996435546875,-0.15932137790620327,0.02150368353873491,0.10683964164927601
1761336307381502500,4.00650244140625,-0.2574035664737224,0.04211186127616092,0.09021719081345946
1761336307391568400,4.016568359375,-0.2825397612959146,0.043773474345449356,0.05995724150305613
1761336307401634300,4.02663427734375,-0.28814824882745743,0.004385759069863706,-0.007669840508140623
1761336307411701200,4.036701171875,-0.2510311088323593,-0.045742144069913775,-0.07069046990349888
1761336307421767200,4.04676708984375,-0.17400164516568184,-0.06225775526408106,-0.0886101574756205
1761336307431834400,4.05683447265625,-0.11510288147330283,-0.009649944942072034,-0.09393854942414909
1761336307441900300,4.066900390625,-0.06490004993379116,0.04464452155893668,-0.07688106817193328
1761336307451967200,4.07696728515625,-0.02668985400497913,0.045816414882522076,-0.07638950352901593
1761336307462033200,4.087033203125,-0.04190145166218281,0.026198873883951455,-0.06984925157269463
1761336307472100400,4.097100341796875,-0.10709902323782443,0.023840675118938087,-0.09687096788054332
1761336307482166300,4.107166259765625,-0.1343055945932865,0.0677049695529975,-0.07572990710912272
1761336307492233200,4.117233154296875,-0.12664952688217163,0.13549337960574775,-0.01730467921262607
1761336307502299400,4.12729931640625,-0.08829378500282764,0.10333766141030937,-0.007069883587304503
1761336307512366300,4.137366455078125,0.005342530071735381,0.0498978207109496,-0.024414967875555155
1761336307522432300,4.147432373046875,0.11896364855468272,0.041321076224651185,-0.04673820590255782
1761336307532498400,4.15749853515625,0.17428981445729733,0.05708504706760868,-0.03223115805182606
1761336307542565400,4.1675654296875,0.14764672220349312,0.07833375119827687,0.049674679479561744
1761336307552631300,4.17763134765625,0.08514262749552726,0.10917022175500168,0.12769063343293965
1761336307562698200,4.1876982421875,0.05965922667086124,0.2122552783774212,0.1649214629355818
1761336307572764400,4.197764404296875,0.0806967540025711,0.12809630989069118,0.03217959226137027
1761336307582831400,4.207831298828125,0.13343290341198444,-0.004690020979754627,-0.12874600597107783
1761336307592897500,4.2178974609375,0.20621113937497138,-0.0660137376635801,-0.2276035080263391
1761336307602964500,4.227964599609375,0.24589199237823484,-0.1285294680104125,-0.284908006530907
1761336307613030400,4.238030517578125,0.2349146712899208,-0.17351831862814723,-0.33626072049159555
1761336307623097300,4.248097412109375,0.14351006079018117,-0.1564882733721286,-0.41624673240892585
1761336307633163500,4.25816357421875,0.09798281984627247,-0.05442789275548421,-0.442515511457622
1761336307643229200,4.268229248046875,0.11403846711218356,0.06486570927277208,-0.3310048092573881
1761336307653296000,4.278296142578125,0.08464286127984523,0.061469595994497646,-0.22424906476559117
1761336307663362300,4.2883623046875,-0.008573182556033133,0.122492188007012,-0.12707730557387695
1761336307673429200,4.29842919921875,-0.19135434650480745,0.15565620646215975,-0.012087967477645725
1761336307683495200,4.3084951171875,-0.42311552219986914,0.12332185289734042,0.04769908682396635
1761336307693562400,4.318562255859375,-0.6372574545741081,0.02091219305214472,-0.00789995946958661
1761336307703628300,4.328628173828125,-0.6979115375012159,-0.11642643082779831,-0.014482297001965343
1761336307713695200,4.3386953125,-0.6003209318429231,-0.19298012107573448,0.023830445985868573
1761336307723761400,4.348761474609375,-0.4406219527959823,-0.1747990974199958,0.06783796654921025
1761336307733828400,4.358828369140625,-0.22859306705296037,-0.09906567404638043,0.16274331517890095
1761336307743894300,4.368894287109375,-0.07901976070106029,-0.032111111868731675,0.22726282309619708
1761336307753960400,4.37896044921875,-0.0007213000118732452,-0.004916422747308388,0.1614241040728055
1761336307764027400,4.38902734375,0.08233458433747291,-0.0316394027037546,0.08536556779751554
1761336307774093300,4.39909326171875,0.15546587152183056,-0.06390822588484733,0.0451090703307651
1761336307784160300,4.40916015625,0.2761404156476259,-0.04828161768596619,-0.007485661313962191
1761336307794227500,4.4192275390625,0.3370779916912317,-0.0012665128044784069,-0.0005238229447044432
1761336307804293400,4.42929345703125,0.2373012741655111,0.050704497451335186,0.013704882888682185
1761336307814359600,4.439359619140625,0.024561609804630277,0.04074545002747327,-0.03865773876691237
1761336307824426500,4.449426513671875,-0.1269423723489046,-0.014023374253325163,-0.07287435328122228
1761336307834492400,4.459492431640625,-0.2558078217148781,-0.045160215996112675,-0.11400282954322173
1761336307844559400,4.469559326171875,-0.3308826441824436,-0.030612909200228747,-0.16152657806659115
1761336307854625500,4.47962548828125,-0.350800227573514,-0.0060312429882586,-0.19924239634089172
1761336307864692500,4.4896923828125,-0.29462416684329507,0.08525218881722539,-0.19797540861237792
1761336307874758100,4.499758056640625,-0.1438695417523384,0.08054843157306313,-0.21500894273342563
1761336307884825300,4.509825439453125,0.06112228496074676,-0.01775881618829444,-0.2424622371252626
1761336307894891300,4.519891357421875,0.19341537068784237,-0.07050912198722362,-0.17531521198228
1761336307904958200,4.529958251953125,0.22472060953378675,-0.06285303600979969,-0.036116730780899525
1761336307915024400,4.5400244140625,0.203216633734107,-0.03696584015721455,0.09793810392171144
1761336307925091300,4.55009130859375,0.16349954037368297,-0.03425652639959007,0.15737353177405894
1761336307935157200,4.5601572265625,0.08867723136246204,-0.06521028492674232,0.11545999694843775
1761336307945223400,4.570223388671875,0.0022568390160799027,-0.10907214994169771,0.03651929283295758
1761336307955290400,4.580290283203125,-0.030220950740575788,-0.12398892937079072,-0.03237090444923378
1761336307965356300,4.590356201171875,-0.04106733892560005,-0.09132438487038015,-0.03985705438696313
1761336307975423200,4.60042333984375,-0.10548457377851009,-0.03505973254125565,-0.013329455438721924
1761336307985489400,4.610489501953125,-0.23359774347245693,0.05343969456888735,0.03871909529902041
1761336307995556400,4.620556396484375,-0.27021336368620397,0.0765969540009275,0.0562418103096541
1761336308005622300,4.630622314453125,-0.2807201446533203,0.027563093175552784,0.07458510272186249
1761336308015689500,4.640689453125,-0.27352000401616094,0.051522024379298086,0.05645342550002969
1761336308025755400,4.65075537109375,-0.22165362317860124,0.08239131949339061,0.020218370135664007
1761336308035822300,4.660822265625,-0.1760240909039974,0.058575048163346945,-0.018044720457587392
1761336308045888500,4.670888427734375,-0.06816051303446292,0.015258286343142389,-0.06997227973074187
1761336308055954400,4.680954345703125,0.021215806508064268,-0.01681559878773987,-0.12152648478001356
1761336308066021400,4.691021484375,0.07559563147127628,-0.01362578977048397,-0.13799716085391117
1761336308076087300,4.70108740234375,0.024839257702231405,0.029298100274614988,-0.09413539630365557
1761336308086154500,4.711154541015625,-0.09070318423211574,0.09273311915714293,0.037513671881880144
1761336308096220200,4.72122021484375,-0.23573534002304075,0.05273085217978805,0.12417886245232075
1761336308106287400,4.731287353515625,-0.3195452576100826,-0.016198380204848945,0.05008910549934953
1761336308116353300,4.741353271484375,-0.2606429867863655,-0.06363974767439066,-0.07052358890399336
1761336308126420200,4.751420166015625,-0.15459084225296973,-0.15127780871484428,-0.143606013711635
1761336308136486400,4.761486328125,-0.07088087790906429,-0.2156178866783157,-0.15314330119262448
1761336308146553300,4.77155322265625,-0.05378010550439358,-0.1640093895919621,-0.09914107737015
1761336308156619300,4.781619384765625,-0.06972644717693328,0.003451565225981176,0.02809744208084885
1761336308166685400,4.791685546875,-0.08144318845570087,0.11140435574892908,0.1158881683657877
1761336308176752400,4.80175244140625,-0.054584407624602316,0.13002762501314283,0.0898532346055843
1761336308186818300,4.811818359375,0.0359065951615572,0.11660192439202219,0.014272248147591017
1761336308196885200,4.82188525390625,0.03721124801933765,-0.0042595571406185626,-0.09046856262548826
1761336308206951400,4.831951416015625,-0.04225742549300193,-0.13278017512429505,-0.21700692988391965
1761336308217018400,4.842018310546875,-0.12168635151684283,-0.18988781761620194,-0.25999508080426603
1761336308227084300,4.852084228515625,-0.16579963400959968,-0.181395810537599,-0.24232202493697402
1761336308237151500,4.8621513671875,-0.14580781633853912,-0.07465922740399837,-0.17317257393039762
1761336308247217400,4.872217529296875,-0.03956804027855396,0.13113774167951195,0.05381459229588508
1761336308257284400,4.882284423828125,0.01348199738562107,0.3166234884118661,0.3258967820612714
1761336308267350500,4.8923505859375,0.0329477453559637,0.3999672497918829,0.4743254118900746
1761336308277416200,4.902416259765625,-0.007709259203076363,0.36011436468996105,0.45952721733935176
1761336308287483400,4.9124833984375,-0.0933019685536623,0.2159906289808452,0.3396667660754174
1761336308297549300,4.92254931640625,-0.22281740626096724,-0.0195458274692297,0.08284014097312464
1761336308307616300,4.9326162109375,-0.453144165238738,-0.2651609026022255,-0.2201724995090626
1761336308317682200,4.94268212890625,-0.5757102221995591,-0.2989362578887492,-0.2838192249135114
1761336308327749400,4.952749267578125,-0.6394301224380731,-0.3101291214238852,-0.17996256286408752
1761336308337815300,4.962815185546875,-0.644404403719306,-0.19721929301545021,0.047359863198548555
1761336308347882200,4.97288232421875,-0.5684101283192634,-0.030810002674907445,0.29881219311766327
1761336308357948400,4.982948486328125,-0.3868178818941116,0.003315846549719572,0.40022681404352184
1761336308368015400,4.993015380859375,-0.17265023055672646,-0.057992316371947523,0.41144426403064277
1761336308378081300,5.003081298828125,0.024665070179104805,-0.07173340308517218,0.39682708860263227
1761336308388147500,5.0131474609375,0.15888707814216613,-0.0891340352192521,0.40281120451353486
1761336308398214400,5.02321435546875,0.12703472680747507,-0.06980828024148941,0.448599909405224
1761336308408280300,5.0332802734375,0.03775193076729774,0.06510265983380377,0.41787437014337625
1761336308418347300,5.04334716796875,0.0706581750690937,0.20689561450779437,0.263891576786153
1761336308428414500,5.05341455078125,0.21068740800619123,0.2334625727854669,0.058327430077828465
1761336308438481400,5.0634814453125,0.360593307313323,0.09513364096023141,-0.21159809311032293
1761336308448547300,5.07354736328125,0.47787937804460523,-0.06983195337802171,-0.5169012556824832
1761336308458614300,5.0836142578125,0.5287579168885946,-0.10212072336860001,-0.7066114151768386
1761336308468680400,5.093680419921875,0.4759931259065866,-0.06798186853192746,-0.6977723482262342
1761336308478747400,5.103747314453125,0.33529753801524637,-0.01760726062208414,-0.5993141659531742
1761336308488813300,5.113813232421875,0.16622224333584307,0.03359006184749305,-0.45549445469193156
1761336308498879200,5.123879150390625,0.0754594378709793,0.09100523591861129,-0.3590897708825767
1761336308508946400,5.133946533203125,0.10847615680992603,0.12068046240992844,-0.2977620264776051
1761336308519012000,5.14401220703125,0.15497428861260412,0.10666077795103192,-0.2610170077305287
1761336308529079300,5.154079345703125,0.2132213103979826,0.05383212795257568,-0.20350736030898986
1761336308539145200,5.164145263671875,0.23863223050832746,0.03231500041037798,-0.0995580332737416
1761336308549212200,5.174212158203125,0.2239385192453861,0.0028662030860781666,-0.020539733877405524
1761336308559278300,5.1842783203125,0.10425240163505077,-0.039191900442540645,0.025024953000061214
1761336308569345300,5.19434521484375,-0.2035211696386337,-0.30215032456442714,-0.1766357930615544
1761336308579411200,5.2044111328125,-0.4438929372906685,-0.13377265676036476,-0.19096326482798903
1761336308589478100,5.21447802734375,-0.5179103596597909,0.07427629250101744,-0.040247546975314616
1761336308599544300,5.22454443359375,-0.6266302620977163,-0.03173449710868299,0.0681894468680024
1761336308609610200,5.2346103515625,-0.7044944230228662,-0.07499430457726121,0.145238017093949
1761336308619677200,5.24467724609375,-0.6116214935362339,0.053667292779684066,0.12353552304748446
1761336308629743400,5.254743408203125,-0.5854793365418911,0.09015570641718804,0.12556352174375204
1761336308639810300,5.264810302734375,-0.6015104338884353,0.0019178893852978944,0.1692278914252296
1761336308649876500,5.27487646484375,-0.5220855995178222,-0.035557781723886725,0.19622779776006935
1761336308659943400,5.284943359375,-0.36176352013647556,-0.05377857113443315,0.2244225033700466
1761336308670009300,5.29500927734375,-0.1304196930706501,-0.04293437490649521,0.2493481607140973
1761336308680076300,5.305076171875,0.052905660757422444,-0.030858006535097956,0.3167171945773065
1761336308690142500,5.315142578125,0.119343587782979,0.010403466723114251,0.2962615222541615
1761336308700209400,5.32520947265625,0.07469955941438675,-0.009323781727626919,0.17071323461215943
1761336308710275300,5.335275390625,0.04225508740544319,-0.11424224605597555,0.009490626194514334
1761336308720341200,5.34534130859375,0.1533241833180189,-0.18049122638069093,-0.16825418755486607
1761336308730408200,5.355408203125,0.30019758306145666,-0.15637611823454498,-0.23525343825761227
1761336308740474000,5.36547412109375,0.4145604598224163,-0.09179580177441239,-0.2141624637056142
1761336308750541300,5.375541259765625,0.35448271547853943,-0.04080474246665835,-0.17065182328112422
1761336308760607200,5.385607177734375,0.2281961766898632,-0.005701645707711577,-0.1464321587819606
1761336308770674200,5.395674072265625,0.10345628282129764,0.04653144955039024,-0.1365226861208677
1761336308780740400,5.405740234375,0.023417115944623947,0.07530643926635384,-0.1170387449067086
1761336308790807300,5.415807373046875,0.021838322320580483,0.06394399131797254,-0.09716646196208893
1761336308800873200,5.425873291015625,0.08477028705179691,0.05317373710907995,-0.06624996670540421
1761336308810939400,5.435939453125,0.14342881224751472,0.015447452239692211,-0.049349027721770106
1761336308821006300,5.44600634765625,0.11098550928235053,0.01950900259017944,-0.03832377583850175
1761336308831072300,5.456072265625,0.0013970073163509368,0.06030234687998891,-0.008686689400486648
1761336308841139200,5.46613916015625,-0.17623042713105677,0.07022453289218246,0.06462262123189866
1761336308851205400,5.476205322265625,-0.3272328895032406,0.11346994650922715,0.13480086729694157
1761336308861272300,5.486272216796875,-0.3686713998287916,0.1287738255597651,0.08580094527378677
1761336308871338200,5.496338134765625,-0.3121002023011446,0.06785933813080192,-0.03396316947620362
1761336308881405400,5.506405517578125,-0.18114800978899,0.017576792418584227,-0.14313680703099815
1761336308891471400,5.516471435546875,-0.01750526155233383,0.029685601754859087,-0.20033446589391676
1761336308901538300,5.526538330078125,0.02767711147665977,0.05011697988696396,-0.11165412925891577
1761336308911604500,5.5366044921875,0.021319266882538795,0.06025478141121566,-0.021687333009950814
1761336308921670100,5.546670166015625,-0.040949850025773046,0.09499795881658792,0.028644312541000545
1761336308931737300,5.5567373046875,-0.15224164877831936,0.05611643949747085,0.03009129647891968
1761336308941803300,5.56680322265625,-0.21294541606605052,0.02506612526066601,-0.03925272725168615
1761336308951870200,5.5768701171875,-0.15331775357723235,0.022413930251449346,-0.10637432569246738
1761336308961936100,5.58693603515625,-0.045483986324071884,0.0008891308594495057,-0.12264642872065305
1761336308972003300,5.59700341796875,0.03672726389467716,-0.00284340673238039,-0.09948763491865246
1761336308982069200,5.6070693359375,0.11365735884010791,0.037711379561200735,-0.024052783499658108
1761336308992136200,5.61713623046875,0.16730536239743232,0.1057844335079193,0.08750336527749895
1761336309002202400,5.627202392578125,0.1803811170697212,0.12526252950318156,0.1471842192582786
1761336309012269300,5.637269287109375,0.1053881276667118,0.05936170502901077,0.1061050802970305
1761336309022335200,5.647335205078125,0.04701134202182293,0.00893580532334745,0.0789138526411727
1761336309032401400,5.6574013671875,0.008297872745990753,-0.0304579743668437,0.05577124278899282
1761336309042468400,5.66746826171875,-0.05353986700773239,-0.06703954618051648,0.02434270635694265
1761336309052534300,5.6775341796875,-0.21788579507768152,-0.041634763550013304,0.007934154000133276
1761336309062601200,5.687601318359375,-0.4915571902632713,-0.025622224773466585,-0.01680073001217097
1761336309072667400,5.69766748046875,-0.565061402413249,-0.006919643195345998,-0.044047742975875735
1761336309082734300,5.707734375,-0.43327568168640135,0.027792773745581506,-0.008909574903547763
1761336309092800300,5.71780029296875,-0.29143267732560635,0.029138270070403812,0.05263663455769419
1761336309102867500,5.727867431640625,-0.13823475073575972,0.02999722498729825,0.015562895312905311
1761336309112933400,5.737933349609375,0.03847206173539162,0.0244517196893692,-0.1210204714866355
1761336309123000300,5.748000244140625,0.21487842995524406,-0.03385463106781244,-0.2108390914365649
1761336309133066500,5.75806640625,0.3755822021305561,-0.04315466659367084,-0.22277035224884748
1761336309143132200,5.768132080078125,0.43850773712098595,-0.04167633766941726,-0.18153551126923412
1761336309153199000,5.77819921875,0.3853706056952476,-0.02669949861615896,-0.08996657705325632
1761336309163265300,5.788265380859375,0.25854747581183907,0.015897972486168144,-0.043064613690041005
1761336309173332200,5.798332275390625,0.05469605130553245,0.03664601535201072,-0.02473309391401708
1761336309183398100,5.808398193359375,-0.23150983128249644,0.03047952861152589,0.021738917066715657
1761336309193465300,5.81846533203125,-0.479105120447278,0.023592472511529922,0.06052157912123948
1761336309203531300,5.82853125,-0.4806260464042425,-0.0527197097312659,0.057844395801238714
1761336309213598200,5.83859814453125,-0.3170756526261568,-0.1313555126160383,-0.019080365381948648
1761336309223664400,5.848664306640625,-0.15979308707118034,-0.14112806102447212,-0.03319675168097019
1761336309233730300,5.858730224609375,-0.06352876158058643,-0.1025406292811036,0.020422683368995786
1761336309243797200,5.86879736328125,-0.02731470790505409,-0.06845730402395128,0.0722541390236467
1761336309253863400,5.878863525390625,-0.09592880992591381,-0.023059315482899544,0.15106686937790362
1761336309263930400,5.888930419921875,-0.23076281230747697,0.03243928437717259,0.2103576280625537
1761336309273996300,5.898996337890625,-0.2751730319201946,0.04411700881980359,0.1347350720517337
1761336309284063200,5.909063232421875,-0.20325053600370882,0.010591317445412278,0.012345248440653085
1761336309294129400,5.91912939453125,-0.13136194235682486,-0.026636735578253863,-0.10479414382893591
1761336309304196400,5.9291962890625,-0.03231587719321251,-0.05728833282105624,-0.1540354916588403
1761336309314262300,5.93926220703125,0.08610299696028233,-0.03966309815086424,-0.08817899951674044
1761336309324329500,5.94932958984375,0.18449673569500447,0.006407528954744338,0.010514032691810279
1761336309334395400,5.9593955078125,0.220501530534029,0.04161006750017404,0.034703594313655044
1761336309344461300,5.96946142578125,0.15405892733335494,0.041641266356036065,0.014307926815748214
1761336309354528300,5.9795283203125,0.05319733718037605,0.027229879165813327,-0.051832551633194085
1761336309364594200,5.98959423828125,-0.05448445438146591,-0.013717048250511288,-0.11732190922964364
1761336309374661000,5.9996611328125,-0.1509977861970663,-0.03593487140797078,-0.10150096576875076
1761336309384727300,6.009727294921875,-0.1825648908495903,-0.0058282677620649335,-0.04206493512820452
1761336309394794200,6.019794189453125,-0.15566694705188275,0.003621405367553234,0.010590970385540277
1761336309404860200,6.029860107421875,-0.15259762260913848,0.009792422152683139,0.08113905440997332
1761336309414927400,6.03992724609375,-0.234940390253067,-0.0018783610925078391,0.17655187763776628
1761336309424993300,6.0499931640625,-0.26054127997756005,0.025052315931022164,0.18320167264947668
1761336309435060200,6.060060302734375,-0.17818039215505121,0.04460873785950243,0.1318301626567729
1761336309445126400,6.07012646484375,-0.059818216624855994,0.01379084413908422,0.024933000400289892
1761336309455192000,6.080192138671875,0.03308510800004005,-0.025375483470782636,-0.09919816871909425
1761336309465259000,6.090259033203125,0.11937106031179427,-0.07329867964051663,-0.184994602214545
1761336309475325200,6.1003251953125,0.10989245334863662,-0.05361212852634489,-0.21458156590051947
1761336309485392100,6.11039208984375,0.019663900890946388,0.03962510422803461,-0.17459256026353687
1761336309495458000,6.1204580078125,-0.07882102325856685,0.07511639658696949,-0.09770171961626037
1761336309505525000,6.13052490234375,-0.10511574046611785,0.07869871205314993,-0.06988554672878235
1761336309515591200,6.140591064453125,-0.14693419001996516,0.052004766394942996,-0.13581416339217683
1761336309525658000,6.150658203125,-0.23048457988798618,-0.005473536040261387,-0.19875923420013858
1761336309535724300,6.160724365234375,-0.27557810558974744,-0.07645553623624146,-0.18948544736038891
1761336309545790200,6.170790283203125,-0.3079308076620102,-0.13255400168560444,-0.10862186715723945
1761336309555857200,6.180857177734375,-0.31574118915200233,-0.1328919284030795,-0.03766061748834327
1761336309565923300,6.19092333984375,-0.21687807933986186,-0.10241554159671068,0.05402755919313058
1761336309575990300,6.200990234375,-0.13665771067738533,-0.06951959949322044,0.11861074346378445
1761336309586056200,6.21105615234375,-0.037029461711645124,-0.04576331472210586,0.16909177089016883
1761336309596123100,6.221123046875,0.07472995455265044,-0.01920972738265991,0.2489525855252519
1761336309606189300,6.231189208984375,0.18683306968808172,0.00859765941016376,0.28083251898661254
1761336309616256300,6.24125634765625,0.23242577708363532,0.03521291380897164,0.25564545249370857
1761336309626322200,6.251322265625,0.07140051786899566,0.023812471937760708,0.12766144387107342
1761336309636389400,6.261389404296875,-0.1009615433961153,-0.005924567743390798,-0.010026395305339246
1761336309646455300,6.271455322265625,-0.11756254958510398,-0.03743789638206362,-0.11631848607445135
1761336309656521000,6.28152099609375,-0.04939268420040607,-0.023556305219605563,-0.17027420387407763
1761336309666588200,6.291588134765625,0.04898702600896358,-0.009450988303869963,-0.18692277553183956
1761336309676654000,6.301654052734375,0.10196867461204528,0.011705123906210065,-0.18708368344828485
1761336309686721000,6.311720947265625,0.14372925649881363,-0.025932971223071217,-0.2151761890591122
1761336309696787200,6.321787109375,0.17124094828069208,-0.05347608105652034,-0.28392851224057375
1761336309706854100,6.331854248046875,0.11202303563654423,-0.0653627720747143,-0.32570494928359983
1761336309716920000,6.341920166015625,-0.004842179334163666,-0.054341904105618594,-0.24022620343519374
1761336309726987000,6.351987060546875,-0.0784311471581459,-0.03463986316137015,-0.08504583432385697
1761336309737053200,6.36205322265625,-0.13803192164003847,-0.007989245188236236,0.028174539604783055
1761336309747119000,6.372119140625,-0.18207447698414325,0.0412999055724591,0.09944550367682241
1761336309757186000,6.38218603515625,-0.21831951031982896,0.06156842129305005,0.11086290581598877
1761336309767252200,6.392252197265625,-0.22092881603538989,0.07514971433468162,-0.0024533936346415428
1761336309777319200,6.402319091796875,-0.19635610031485556,0.04434343798682094,-0.055106157343229274
1761336309787385300,6.41238525390625,-0.17369184856414793,0.023725158980488777,-0.009650145871471612
1761336309797452300,6.422452392578125,-0.1114922897607088,0.029690424060449003,-0.02539823415870778
1761336309807518200,6.432518310546875,-0.024078210201859473,0.05086531403623521,-0.03976696951729245
1761336309817585200,6.442585205078125,0.0379933383077383,0.018542641776055097,0.0276189835146768
1761336309827651300,6.4526513671875,0.12881868761479853,-0.05013137373849749,0.05988828618638217
1761336309837718300,6.46271826171875,0.12238894682824611,-0.050170536705106496,-0.01636374510070309
1761336309847784200,6.4727841796875,-0.014280454286932944,-0.04058386625759303,-0.0978532843156252
1761336309857850000,6.48285009765625,-0.20824702911674975,-0.01724405333288014,-0.07507964477315544
1761336309867917300,6.492917236328125,-0.25074586215019223,0.009036343088373542,-0.04154621761688031
1761336309877983000,6.50298291015625,-0.1574503233373165,0.0019456541750580072,-0.05787583211911842
1761336309888050200,6.51305029296875,-0.04819207623898983,-0.026713454076275227,-0.04529126306383405
1761336309898116000,6.5231162109375,-0.015031564915180205,-0.028337767342478035,-0.022258248782681764
1761336309908183000,6.53318310546875,-0.02159048503935337,-0.03761347214467823,0.012071873717725974
1761336309918249200,6.543249267578125,-0.014779635980725287,-0.05750548270307481,0.05304914261503145
1761336309928316200,6.553316162109375,-0.0519271711140871,-0.05157631184980273,0.06806130414342042
1761336309938382000,6.563382080078125,-0.17760756070315836,-0.05847045527771115,0.005991742094932123
1761336309948448300,6.5734482421875,-0.32494214821755885,-0.007775310176610946,0.04376273375572636
1761336309958515200,6.58351513671875,-0.36209143691658974,-0.007852320935577153,0.11606177136702463
1761336309968581000,6.5935810546875,-0.27523791384994983,0.014220467728003859,0.12159150370708666
1761336309978648000,6.60364794921875,-0.17513269502222537,0.04819149171710014,0.10474212138075381
1761336309988714200,6.61371435546875,-0.047535658156871795,0.03062682812772691,0.11220538819981739
1761336309998781200,6.62378125,0.17013211025595665,-0.0074663903579115865,0.08955259855804033
1761336310008847400,6.633847412109375,0.42219957639873024,-0.09088014823421835,-0.026369764338294042
1761336310018914300,6.643914306640625,0.5086456877082586,-0.15832506034523247,-0.20269027177244422
1761336310028980200,6.653980224609375,0.4358996004492044,0.02223250926993787,-0.34232659640181806
1761336310039047200,6.664047119140625,0.11698504195809363,0.1400816937766969,-0.40433052303530276
1761336310049113300,6.67411328125,-0.268738030436635,0.13985774882771074,-0.3537174301944673
1761336310059179000,6.684178955078125,-0.4315694622904062,0.12809585323296488,-0.28333270177189257
1761336310069246200,6.69424609375,-0.3145218764901161,0.10460618350878358,-0.3196518597897142
