time,seconds_elapsed,z,y,x
1761336303455582500,0.08058251953125,0.1945122331380844,-1.1084316968917847,0.2685198485851288
1761336303465648400,0.0906484375,0.22358782589435577,-1.021722674369812,0.2943514585494995
1761336303475715300,0.10071533203125,0.21613448858261108,-0.9652097821235657,0.24070830643177032
1761336303485781500,0.110781494140625,0.17036034166812897,-0.9586097002029419,0.08892995119094849
1761336303495848400,0.120848388671875,0.11776913702487946,-0.956250011920929,-0.16992776095867157
1761336303505914400,0.130914306640625,0.06768226623535156,-0.9367005228996277,-0.5213574171066284
1761336303515981300,0.140981201171875,0.03453535586595535,-0.8717039227485657,-0.895232081413269
1761336303526047500,0.151047607421875,0.025445453822612762,-0.7730401754379272,-1.2133746147155762
1761336303536114400,0.161114501953125,0.04033508151769638,-0.6600676774978638,-1.3933879137039185
1761336303546180600,0.1711806640625,0.06982746720314026,-0.5127482414245605,-1.4213732481002808
1761336303556247600,0.18124755859375,0.1526353806257248,-0.3226807415485382,-1.3269480466842651
1761336303566313500,0.1913134765625,0.28101226687431335,-0.14878351986408234,-1.1408905982971191
1761336303576379600,0.201379638671875,0.4408580958843231,-0.046530745923519135,-0.9147002696990967
1761336303586446600,0.211446533203125,0.5896071195602417,0.027170909568667412,-0.6903878450393677
1761336303596512300,0.22151220703125,0.669029951095581,0.008701011538505554,-0.5392876863479614
1761336303606579500,0.231579345703125,0.6674030423164368,-0.12760037183761597,-0.4986611306667328
1761336303616645400,0.241645263671875,0.6187047362327576,-0.27776187658309937,-0.5397488474845886
1761336303626712300,0.25171240234375,0.5723332166671753,-0.3123840391635895,-0.6109444499015808
1761336303636778200,0.2617783203125,0.5594367980957031,-0.23586304485797882,-0.6844605207443237
1761336303646845400,0.271845458984375,0.5818374156951904,-0.1397455632686615,-0.7408998012542725
1761336303656911400,0.281911376953125,0.6426189541816711,-0.05206882953643799,-0.7751907110214233
1761336303666978300,0.291978271484375,0.7410725355148315,0.04818160831928253,-0.7870151400566101
1761336303677044500,0.30204443359375,0.8887185454368591,0.19472777843475342,-0.7702861428260803
1761336303687111400,0.312111328125,1.0598106384277344,0.36698025465011597,-0.7131863832473755
1761336303697177300,0.32217724609375,1.2244536876678467,0.4851352274417877,-0.6370099782943726
1761336303707243500,0.332243408203125,1.3571494817733765,0.4660946726799011,-0.566016674041748
1761336303717310500,0.342310546875,1.4415967464447021,0.32777145504951477,-0.47960445284843445
1761336303727376400,0.35237646484375,1.469186782836914,0.16829019784927368,-0.35530993342399597
1761336303737443300,0.362443359375,1.4460029602050781,0.07961391657590866,-0.22401094436645508
1761336303747509500,0.372509521484375,1.4082432985305786,0.09646772593259811,-0.10761163383722305
1761336303757576400,0.382576416015625,1.3870108127593994,0.14197351038455963,-0.022164765745401382
1761336303767642600,0.392642578125,1.4014639854431152,0.22381643950939178,0.020538488402962685
1761336303777709600,0.40270947265625,1.4468966722488403,0.3553137183189392,-0.00016289809718728065
1761336303787775500,0.412775390625,1.5054789781570435,0.504765510559082,-0.0837339535355568
1761336303797842400,0.422842529296875,1.5815792083740234,0.5963847041130066,-0.22110028564929962
1761336303807908600,0.43290869140625,1.6398894786834717,0.6603047847747803,-0.3752341866493225
1761336303817975600,0.4429755859375,1.6876120567321777,0.6506122350692749,-0.49799680709838867
1761336303828041200,0.453041259765625,1.6907808780670166,0.5776429772377014,-0.5516901612281799
1761336303838108400,0.4631083984375,1.6553722620010376,0.46730899810791016,-0.5234233736991882
1761336303848174300,0.47317431640625,1.5871659517288208,0.29822808504104614,-0.42265254259109497
1761336303858240300,0.483240234375,1.496933937072754,0.07908319681882858,-0.2868649363517761
1761336303868307500,0.493307373046875,1.3903614282608032,-0.13895434141159058,-0.130768820643425
1761336303878373400,0.503373291015625,1.269010305404663,-0.3182869255542755,0.033876363188028336
1761336303888440300,0.5134404296875,1.1501400470733643,-0.44732826948165894,0.17671474814414978
1761336303898506500,0.523506591796875,1.0740816593170166,-0.5387828946113586,0.2623032331466675
1761336303908573400,0.533573486328125,1.0748540163040161,-0.51850825548172,0.26587265729904175
1761336303918639400,0.543639404296875,1.1341297626495361,-0.39666420221328735,0.23844404518604279
1761336303928706300,0.553706298828125,1.1835079193115234,-0.21492557227611542,0.20253850519657135
1761336303938772500,0.5637724609375,1.1351319551467896,0.019789088517427444,0.15198136866092682
1761336303948839400,0.57383935546875,1.008617639541626,0.27491405606269836,0.10237918049097061
1761336303958905300,0.5839052734375,0.860166072845459,0.5036391615867615,-0.08084888756275177
1761336303968972500,0.59397265625,0.7051272392272949,0.6444223523139954,-0.45222190022468567
1761336303979038500,0.60403857421875,0.4746788740158081,0.46306249499320984,-0.49174150824546814
1761336303989105400,0.61410546875,0.5490646958351135,0.05905536189675331,-0.010085131973028183
1761336303999171600,0.624171630859375,0.8068785667419434,0.09139588475227356,0.1621420979499817
1761336304009237500,0.634237548828125,0.6894765496253967,0.20012369751930237,0.1517682820558548
1761336304019304400,0.644304443359375,0.5657450556755066,0.2867923080921173,0.11944925785064697
1761336304029370600,0.65437060546875,0.6243745684623718,0.3837750256061554,0.1598464846611023
1761336304039437600,0.6644375,0.7416558265686035,0.1884925216436386,0.14177964627742767
1761336304049503200,0.674503173828125,0.8049383759498596,-0.00741227064281702,0.08463408052921295
1761336304059570400,0.6845703125,0.7893329858779907,-0.106912761926651,0.05380565673112869
1761336304069636400,0.69463623046875,0.6722955703735352,-0.09341293573379517,0.044922955334186554
1761336304079703300,0.704703369140625,0.5230108499526978,-0.08088367432355881,0.041824065148830414
1761336304089769500,0.71476953125,0.3904094099998474,-0.08586937189102173,0.021547023206949234
1761336304099836400,0.72483642578125,0.3117561340332031,-0.11966488510370255,-0.006816707085818052
1761336304109902300,0.73490234375,0.23843686282634735,-0.14729604125022888,-0.04084695130586624
1761336304119969300,0.74496923828125,0.15936008095741272,-0.1488749086856842,-0.06889193505048752
1761336304130035500,0.755035400390625,0.0716419443488121,-0.116972915828228,-0.0921621024608612
1761336304140102400,0.765102294921875,-0.0031632455065846443,-0.05268910527229309,-0.09432189166545868
1761336304150168300,0.775168212890625,-0.06218182295560837,0.004305202513933182,-0.09824632853269577
1761336304160234500,0.785234375,-0.08203230798244476,0.01465302612632513,-0.1322578489780426
1761336304170301400,0.795301513671875,-0.04793398827314377,-0.001976550556719303,-0.1879938244819641
1761336304180367400,0.805367431640625,0.02433374710381031,-0.01684633642435074,-0.24261824786663055
1761336304190434600,0.8154345703125,0.0994974747300148,-0.035727616399526596,-0.2685382664203644
1761336304200500500,0.82550048828125,0.15290558338165283,-0.06304409354925156,-0.2627488672733307
1761336304210567400,0.8355673828125,0.19522348046302795,-0.06852781027555466,-0.229580819606781
1761336304220633600,0.845633544921875,0.22730062901973724,-0.08739176392555237,-0.18874254822731018
1761336304230700500,0.855700439453125,0.24359065294265747,-0.08944851905107498,-0.139631450176239
1761336304240766500,0.865766357421875,0.23302561044692993,-0.09401581436395645,-0.10298977792263031
1761336304250833400,0.87583349609375,0.2018224149942398,-0.08953291177749634,-0.09767889976501465
1761336304260899600,0.885899658203125,0.16690285503864288,-0.055452682077884674,-0.11433637887239456
1761336304270966500,0.895966552734375,0.14116153120994568,-0.007991157472133636,-0.12423241883516312
1761336304281032400,0.906032470703125,0.10834880918264389,0.03870033472776413,-0.12707743048667908
1761336304291099600,0.916099609375,0.07551310211420059,0.0713094100356102,-0.11533688753843307
1761336304301165300,0.926165283203125,0.04178810492157936,0.08447548747062683,-0.09937986731529236
1761336304311231500,0.9362314453125,0.0252956822514534,0.09095069766044617,-0.0873975083231926
1761336304321298400,0.94629833984375,0.021248886361718178,0.09181321412324905,-0.08869276940822601
1761336304331364400,0.9563642578125,0.024065710604190826,0.07884868234395981,-0.10064370185136795
1761336304341431300,0.966431396484375,0.010107136331498623,-0.0987333431839943,-0.08596229553222656
1761336304351497500,0.97649755859375,0.001285415142774582,-0.302207887172699,-0.048793353140354156
1761336304361564400,0.986564453125,0.011057930998504162,-0.515274703502655,0.01065918616950512
1761336304371630300,0.99663037109375,0.030963728204369545,-0.7139934301376343,0.06787081062793732
1761336304381697500,1.006697509765625,0.043480221182107925,-0.9718171954154968,0.11458960920572281
1761336304391763500,1.016763427734375,0.039678290486335754,-1.2146855592727661,0.18133695423603058
1761336304401830400,1.026830322265625,0.006577531807124615,-1.3991055488586426,0.25754132866859436
1761336304411896600,1.036896484375,-0.03902830183506012,-1.5064791440963745,0.32650095224380493
1761336304421963500,1.046963623046875,-0.05467721074819565,-1.5089573860168457,0.36775892972946167
1761336304432029400,1.057029541015625,-0.02220289036631584,-1.38039231300354,0.3774767816066742
1761336304442095600,1.067095703125,0.07354497164487839,-1.1077611446380615,0.33389028906822205
1761336304452162600,1.07716259765625,0.2073477804660797,-0.7777251601219177,0.26112234592437744
1761336304462228500,1.087228515625,0.3514001667499542,-0.4514597952365875,0.17171801626682281
1761336304472295400,1.09729541015625,0.44367948174476624,-0.15184246003627777,0.10327424108982086
1761336304482361600,1.107361572265625,0.4477720558643341,0.13030679523944855,0.08149171620607376
1761336304492428500,1.117428466796875,0.3906398117542267,0.3966447710990906,0.10751345753669739
1761336304502494500,1.127494384765625,0.31814420223236084,0.5989804267883301,0.15074296295642853
1761336304512561700,1.137561767578125,0.2674482762813568,0.6686220765113831,0.19770780205726624
1761336304522627600,1.147627685546875,0.2596254050731659,0.6230935454368591,0.2570341229438782
1761336304532694500,1.157694580078125,0.29980236291885376,0.5486568808555603,0.33363834023475647
1761336304542760700,1.1677607421875,0.36117056012153625,0.43264126777648926,0.40061891078948975
1761336304552827600,1.17782763671875,0.41283243894577026,0.3001870810985565,0.4743485450744629
1761336304562893600,1.1878935546875,0.44129684567451477,0.26348352432250977,0.5232452154159546
1761336304572960500,1.19796044921875,0.4653153419494629,0.3406718075275421,0.5325759053230286
1761336304583026700,1.208026611328125,0.5132468342781067,0.4503050446510315,0.4937296509742737
1761336304593092400,1.21809228515625,0.604829728603363,0.5441377758979797,0.42494577169418335
1761336304603159600,1.22815966796875,0.704177737236023,0.6298336982727051,0.3723936676979065
1761336304613225500,1.2382255859375,0.9561876058578491,0.6139207482337952,0.41247209906578064
1761336304623292400,1.24829248046875,1.1311341524124146,0.5860440731048584,0.43585464358329773
1761336304633358600,1.258358642578125,1.2764396667480469,0.5304311513900757,0.45095983147621155
1761336304643425500,1.268425537109375,1.3566874265670776,0.4918130338191986,0.4500800669193268
1761336304653491500,1.278491455078125,1.386175513267517,0.4727138876914978,0.4284605383872986
1761336304663558400,1.288558349609375,1.40243399143219,0.45334291458129883,0.3847525417804718
1761336304673624600,1.29862451171875,1.4262226819992065,0.45441165566444397,0.3307971656322479
1761336304683691500,1.30869140625,1.4673813581466675,0.5112974643707275,0.2900937497615814
1761336304693757400,1.31875732421875,1.5617395639419556,0.6723310947418213,0.25962212681770325
1761336304703824600,1.32882470703125,1.678425908088684,0.8848679065704346,0.2405635416507721
1761336304713890600,1.338890625,1.7290517091751099,1.0874961614608765,0.2430621236562729
1761336304723956500,1.34895654296875,1.654543399810791,1.2716988325119019,0.2593611478805542
1761336304734023700,1.359023681640625,1.5016120672225952,1.3413447141647339,0.255450040102005
1761336304744089600,1.369089599609375,1.3622634410858154,1.1887702941894531,0.2172788381576538
1761336304754156500,1.379156494140625,1.2693417072296143,0.9211151599884033,0.17921215295791626
1761336304764222700,1.38922265625,1.2489157915115356,0.5835906863212585,0.163829505443573
1761336304774289700,1.39928955078125,1.2237709760665894,0.26903247833251953,0.16960962116718292
1761336304784355600,1.40935546875,1.2575870752334595,0.09501619637012482,0.2135017216205597
1761336304794422500,1.419422607421875,1.2836745977401733,0.05199549347162247,0.3083813488483429
1761336304804488700,1.42948876953125,1.2810028791427612,0.07766609638929367,0.40309426188468933
1761336304814555600,1.4395556640625,1.2210655212402344,0.12954260408878326,0.46812039613723755
1761336304824621300,1.449621337890625,1.1421592235565186,0.15948300063610077,0.5096248984336853
1761336304834688800,1.459688720703125,1.0764933824539185,0.15457214415073395,0.5092677474021912
1761336304844754400,1.46975439453125,1.0521910190582275,0.16841258108615875,0.47602006793022156
1761336304854820600,1.479820556640625,1.0535366535186768,0.16982007026672363,0.44082266092300415
1761336304864887600,1.489887451171875,1.0561275482177734,0.14666031301021576,0.4608041048049927
1761336304874953500,1.499953369140625,1.077628493309021,0.12947814166545868,0.5030530691146851
1761336304885020400,1.5100205078125,1.1123077869415283,0.09962248057126999,0.518841028213501
1761336304895086600,1.520086669921875,1.1747729778289795,0.06172623857855797,0.5020138025283813
1761336304905153500,1.530153564453125,1.2275630235671997,0.07206971198320389,0.48615822196006775
1761336304915219500,1.540219482421875,1.2487527132034302,0.1368100941181183,0.4697140157222748
1761336304925286700,1.55028662109375,1.251442551612854,0.22782957553863525,0.4673152565956116
1761336304935352600,1.5603525390625,1.2679188251495361,0.3048681616783142,0.4431172311306
1761336304945419500,1.57041943359375,1.301902174949646,0.33935171365737915,0.3903530538082123
1761336304955485700,1.580485595703125,1.3414647579193115,0.3170136511325836,0.32046955823898315
1761336304965552600,1.590552734375,1.3634741306304932,0.2637099623680115,0.2713567018508911
1761336304975618600,1.60061865234375,1.3885411024093628,0.22538655996322632,0.26841339468955994
1761336304985684700,1.610684814453125,1.4313544034957886,0.17614828050136566,0.2911035120487213
1761336304995751700,1.620751708984375,1.4649670124053955,0.10168790817260742,0.3078705072402954
1761336305005817600,1.630817626953125,1.462095022201538,0.027291929349303246,0.29150155186653137
1761336305015884500,1.640884521484375,1.4090968370437622,-0.011309793218970299,0.24596865475177765
1761336305025950700,1.65095068359375,1.3200198411941528,-0.046462345868349075,0.18832851946353912
1761336305036017700,1.661017578125,1.2068378925323486,-0.03916901350021362,0.13993115723133087
1761336305046083300,1.671083251953125,1.064936637878418,-0.03921300917863846,0.08826249837875366
1761336305056150800,1.68115087890625,0.9316675066947937,-0.01882171630859375,0.038779109716415405
1761336305066216400,1.691216552734375,0.8138249516487122,0.05241278558969498,-0.008024020120501518
1761336305076283400,1.701283447265625,0.706092357635498,0.12249787151813507,-0.047535210847854614
1761336305086349600,1.711349609375,0.6382869482040405,0.16090898215770721,-0.09883847832679749
1761336305096416500,1.72141650390625,0.6123781204223633,0.16375483572483063,-0.1591058224439621
1761336305106482400,1.731482421875,0.6076184511184692,0.13717655837535858,-0.20803861320018768
1761336305116548600,1.741548583984375,0.616823136806488,0.12297391146421432,-0.20883968472480774
1761336305126615600,1.751615478515625,0.6404818892478943,0.12858182191848755,-0.13899360597133636
1761336305136681500,1.761681396484375,0.7022286057472229,0.16728475689888,-0.03782358765602112
1761336305146748400,1.77174853515625,0.7563760280609131,0.20952750742435455,0.04817703366279602
1761336305156814600,1.781814697265625,0.7657138705253601,0.23241977393627167,0.09289683401584625
1761336305166881500,1.791881591796875,0.7082828879356384,0.24864462018013,0.08744437992572784
1761336305176947700,1.80194775390625,0.5907043218612671,0.2538129985332489,0.03363654017448425
1761336305187014700,1.8120146484375,0.48093050718307495,0.21421118080615997,-0.03425159305334091
1761336305197080600,1.82208056640625,0.32944539189338684,0.09023571759462357,-0.10752420872449875
1761336305207147500,1.8321474609375,0.2365594059228897,-0.02775217592716217,-0.1537388414144516
1761336305217213700,1.842213623046875,0.18520434200763702,-0.11370303481817245,-0.183500736951828
1761336305227280600,1.85228076171875,0.17094705998897552,-0.17190568149089813,-0.1682284027338028
1761336305237346600,1.8623466796875,0.1675664335489273,-0.2231036126613617,-0.11153583228588104
1761336305247412500,1.87241259765625,0.2199268639087677,-0.23396216332912445,-0.0414302796125412
1761336305257479700,1.882479736328125,0.2716854214668274,-0.22469808161258698,0.016658855602145195
1761336305267545300,1.89254541015625,0.27795904874801636,-0.19743645191192627,0.05560072511434555
1761336305277612500,1.902612548828125,0.24045749008655548,-0.17378172278404236,0.05973394960165024
1761336305287678500,1.912678466796875,0.21074409782886505,-0.14512161910533905,0.03326636180281639
1761336305297745400,1.922745361328125,0.20870278775691986,-0.1265556514263153,-0.0016977484337985516
1761336305307811600,1.9328115234375,0.20238427817821503,-0.12886808812618256,-0.010630556382238865
1761336305317878500,1.94287841796875,0.1813594102859497,-0.12128686904907227,0.008724764920771122
1761336305327944400,1.9529443359375,0.17487052083015442,-0.09097609668970108,0.02238636091351509
1761336305338011400,1.963011474609375,0.1817989945411682,-0.07079919427633286,0.011314532719552517
1761336305348077600,1.97307763671875,0.1884639412164688,-0.05654106289148331,-0.023926187306642532
1761336305358144500,1.98314453125,0.19901032745838165,-0.035476259887218475,-0.06425204128026962
1761336305368210400,1.99321044921875,0.22578251361846924,-0.04704442620277405,-0.10386084020137787
1761336305378276600,2.003276611328125,0.25430017709732056,-0.10048368573188782,-0.12138869613409042
1761336305388343600,2.013343505859375,0.2827991843223572,-0.16191934049129486,-0.12637972831726074
1761336305398409700,2.02340966796875,0.2926938831806183,-0.24658948183059692,-0.12721329927444458
1761336305408476700,2.0334765625,0.29184576869010925,-0.3257976472377777,-0.1158842071890831
1761336305418542600,2.04354248046875,0.29011258482933044,-0.39599964022636414,-0.07412690669298172
1761336305428609300,2.053609375,0.2923676371574402,-0.44702067971229553,-0.023038357496261597
1761336305438675500,2.063675537109375,0.3000870645046234,-0.4753210246562958,0.013834172859787941
1761336305448742400,2.073742431640625,0.3101532459259033,-0.5091748237609863,0.02691129595041275
1761336305458808300,2.083808349609375,0.31742048263549805,-0.5445695519447327,0.019437134265899658
1761336305468875500,2.09387548828125,0.32679563760757446,-0.5631862282752991,0.0033352598547935486
1761336305478941200,2.103941162109375,0.3501097559928894,-0.5377858281135559,-0.025566695258021355
1761336305489008000,2.114008056640625,0.38986682891845703,-0.48175689578056335,-0.07504869252443314
1761336305499074300,2.12407421875,0.4194534718990326,-0.41544926166534424,-0.13695760071277618
1761336305509140200,2.13414013671875,0.42789363861083984,-0.3794909715652466,-0.19988323748111725
1761336305519207200,2.144207275390625,0.41956672072410583,-0.33297884464263916,-0.2686963975429535
1761336305529273300,2.1542734375,0.4074474275112152,-0.26144933700561523,-0.3314765393733978
1761336305539340300,2.16434033203125,0.40393736958503723,-0.2052856683731079,-0.3801402151584625
1761336305549406200,2.17440625,0.4037525951862335,-0.1676158607006073,-0.369896799325943
1761336305559473200,2.18447314453125,0.3884578049182892,-0.13345655798912048,-0.30040162801742554
1761336305569539300,2.194539306640625,0.3643720746040344,-0.0728432685136795,-0.20523007214069366
1761336305579606300,2.204606201171875,0.34970390796661377,0.018224593251943588,-0.1080971285700798
1761336305589672400,2.21467236328125,0.3300560414791107,0.08908069878816605,-0.019960273057222366
1761336305599739400,2.224739501953125,0.3190348148345947,0.11070636659860611,0.02134828269481659
1761336305609805300,2.234805419921875,0.30970537662506104,0.13712860643863678,0.029703350737690926
1761336305619871500,2.24487158203125,0.2951336205005646,0.16463720798492432,0.029517462477087975
1761336305629938400,2.2549384765625,0.27202537655830383,0.21766921877861023,0.025041457265615463
1761336305640004400,2.26500439453125,0.25630661845207214,0.25412631034851074,0.004215270280838013
1761336305650071300,2.2750712890625,0.25750190019607544,0.2904302775859833,-0.02349139004945755
1761336305660137500,2.285137451171875,0.25271832942962646,0.29857316613197327,-0.03424789756536484
1761336305670204400,2.295204345703125,0.2428501695394516,0.2912398874759674,-0.03128650039434433
1761336305680270000,2.30527001953125,0.22038854658603668,0.28424057364463806,-0.0004668026231229305
1761336305690337500,2.315337646484375,0.18595834076404572,0.283374160528183,0.02745322696864605
1761336305700403200,2.3254033203125,0.1522299349308014,0.2928776443004608,0.05321797728538513
1761336305710470100,2.33547021484375,0.12198902666568756,0.30139967799186707,0.0753176361322403
1761336305720536300,2.345536376953125,0.10489179939031601,0.29856154322624207,0.08097978681325912
1761336305730603300,2.355603271484375,0.11477486789226532,0.2948039770126343,0.08891391009092331
1761336305740669200,2.365669189453125,0.12659263610839844,0.291424423456192,0.08699217438697815
1761336305750735400,2.3757353515625,0.12367342412471771,0.3080158531665802,0.07752446830272675
1761336305760802300,2.38580224609375,0.11592868715524673,0.3193843364715576,0.06930515170097351
1761336305770868200,2.3958681640625,0.09564486891031265,0.3135475218296051,0.07078787684440613
1761336305780935200,2.40593505859375,0.08178098499774933,0.28540509939193726,0.08192068338394165
1761336305791001300,2.41600146484375,0.07696855068206787,0.2610979378223419,0.09675825387239456
1761336305801068300,2.426068359375,0.07539728283882141,0.23678165674209595,0.12144362181425095
1761336305811134500,2.436134521484375,0.0683988630771637,0.22165942192077637,0.1517820507287979
1761336305821201400,2.446201416015625,0.05137673765420914,0.21930785477161407,0.1764431893825531
1761336305831267300,2.456267333984375,0.03051403909921646,0.2135181725025177,0.17952030897140503
1761336305841334300,2.466334228515625,0.03382860869169235,0.20400188863277435,0.14942818880081177
1761336305851400400,2.476400390625,0.05980678275227547,0.20548060536384583,0.11308342218399048
1761336305861467400,2.48646728515625,0.10191749036312103,0.21486344933509827,0.06786348670721054
1761336305871533300,2.496533203125,0.14109870791435242,0.19405031204223633,0.025606844574213028
1761336305881599200,2.50659912109375,0.16982010006904602,0.1448257863521576,-0.00825817883014679
1761336305891666400,2.51666650390625,0.1838351935148239,0.09762478619813919,-0.03663262352347374
1761336305901732000,2.526732177734375,0.18006682395935059,0.0630689337849617,-0.036126621067523956
1761336305911799300,2.53679931640625,0.16625957190990448,0.05043158307671547,-0.029199279844760895
1761336305921865200,2.546865234375,0.156131312251091,0.05020442232489586,-0.0021508843638002872
1761336305931932200,2.55693212890625,0.15279825031757355,0.04169713705778122,0.025502413511276245
1761336305941998300,2.566998291015625,0.1472138613462448,0.04775476083159447,0.04652274399995804
1761336305952065300,2.577065185546875,0.13884201645851135,0.04976693540811539,0.05281350016593933
1761336305962131200,2.587131103515625,0.12098951637744904,0.0441007986664772,0.03275430202484131
1761336305972198100,2.5971982421875,0.10651930421590805,0.03292512893676758,0.00456401240080595
1761336305982264300,2.607264404296875,0.10019296407699585,0.02293507754802704,-0.014204349368810654
1761336305992331300,2.617331298828125,0.10031198710203171,0.03441041335463524,-0.02626950293779373
1761336306002397200,2.627397216796875,0.10052131116390228,0.04464760422706604,-0.0214981846511364
1761336306012463400,2.63746337890625,0.09395603835582733,0.05284595116972923,-0.008251755498349667
1761336306022530300,2.6475302734375,0.08291669934988022,0.06283839792013168,0.013636766001582146
1761336306032596200,2.65759619140625,0.07427176088094711,0.0573989599943161,0.0213385671377182
1761336306042663400,2.667663330078125,0.061716821044683456,0.051706455647945404,0.023653917014598846
1761336306052729300,2.677729248046875,0.04821319133043289,0.04730076715350151,0.028909865766763687
1761336306062796300,2.68779638671875,0.03730142116546631,0.05055727809667587,0.042247239500284195
1761336306072862500,2.697862548828125,0.01645539700984955,0.05284539982676506,0.0490996316075325
1761336306082929400,2.707929443359375,-0.002234666608273983,0.053598809987306595,0.04267129302024841
1761336306092995300,2.717995361328125,-0.019200947135686874,0.06931491196155548,0.02198358066380024
1761336306103062300,2.728062255859375,-0.03145601600408554,0.09053631126880646,-0.004210473503917456
1761336306113128400,2.73812841796875,-0.03027602657675743,0.09706832468509674,-0.022396467626094818
1761336306123194000,2.748194091796875,-0.03393494337797165,0.08242413401603699,-0.029224012047052383
1761336306133261300,2.75826123046875,-0.041297707706689835,0.06954391300678253,-0.02522417902946472
1761336306143327200,2.7683271484375,-0.050233144313097,0.0698765441775322,-0.0066504948772490025
1761336306153394200,2.778394287109375,-0.06463150680065155,0.06590399891138077,0.0036715837195515633
1761336306163460400,2.78846044921875,-0.08319427073001862,0.06531970202922821,0.0215496513992548
1761336306173527300,2.79852734375,-0.098992258310318,0.06723083555698395,0.04240226745605469
1761336306183593200,2.80859326171875,-0.1233665719628334,0.06402518600225449,0.05604031682014465
1761336306193660200,2.81866015625,-0.15111684799194336,0.06143135577440262,0.057634387165308
1761336306203726300,2.828726318359375,-0.18369796872138977,0.0665142610669136,0.05130325257778168
1761336306213793300,2.838793212890625,-0.21803386509418488,0.09040125459432602,0.04290107637643814
1761336306223859200,2.848859130859375,-0.24878644943237305,0.12877820432186127,0.04091968387365341
1761336306233926400,2.858926513671875,-0.2669592797756195,0.1628052145242691,0.052260324358940125
1761336306243992300,2.868992431640625,-0.2812226414680481,0.1831621527671814,0.06454654783010483
1761336306254058200,2.879058349609375,-0.2974781394004822,0.18886718153953552,0.08252531290054321
1761336306264125400,2.88912548828125,-0.30956941843032837,0.1994476616382599,0.10762480646371841
1761336306274191400,2.89919140625,-0.3365124464035034,0.22818690538406372,0.12754182517528534
1761336306284258300,2.90925830078125,-0.36556196212768555,0.2766082286834717,0.14501242339611053
1761336306294324500,2.919324462890625,-0.3868842124938965,0.3141101002693176,0.15255990624427795
1761336306304391400,2.929391357421875,-0.3928329348564148,0.3329346477985382,0.13641422986984253
1761336306314457300,2.939457275390625,-0.38400959968566895,0.33866992592811584,0.11145754158496857
1761336306324524300,2.949524169921875,-0.36340126395225525,0.3309054672718048,0.09249316155910492
1761336306334590200,2.959590087890625,-0.3429338037967682,0.3013610243797302,0.06798215955495834
1761336306344657400,2.969657470703125,-0.3360860347747803,0.2654663920402527,0.02375292032957077
1761336306354723300,2.979723388671875,-0.3285965919494629,0.23419144749641418,-0.016522567719221115
1761336306364789200,2.989789306640625,-0.3186606168746948,0.2088022083044052,-0.03206424415111542
1761336306374856200,2.999856201171875,-0.2908046245574951,0.17843709886074066,-0.025090258568525314
1761336306384922400,3.00992236328125,-0.2525869309902191,0.1558321863412857,0.010180382989346981
1761336306394989300,3.0199892578125,-0.21341444551944733,0.12609921395778656,0.03724326565861702
1761336306405055200,3.03005517578125,-0.18729789555072784,0.08313283324241638,0.040342383086681366
1761336306415122200,3.0401220703125,-0.17027391493320465,0.04078381881117821,0.02787136286497116
1761336306425188400,3.050188232421875,-0.16050651669502258,0.008531072176992893,0.010496900416910648
1761336306435255300,3.06025537109375,-0.14236682653427124,-0.020711779594421387,-0.002832254860550165
1761336306445321200,3.0703212890625,-0.1175653338432312,-0.044588349759578705,-0.010867278091609478
1761336306455388400,3.080388427734375,-0.09304934740066528,-0.060504600405693054,-0.017278004437685013
1761336306465454300,3.090454345703125,-0.07526661455631256,-0.0663401186466217,-0.038345739245414734
1761336306475521300,3.100521240234375,-0.07021450996398926,-0.0729767307639122,-0.06088809669017792
1761336306485587500,3.11058740234375,-0.07243478298187256,-0.07738905400037766,-0.0882885605096817
1761336306495653400,3.1206533203125,-0.0894632562994957,-0.08027759194374084,-0.11553416401147842
1761336306505720300,3.13072021484375,-0.12885035574436188,-0.09394706785678864,-0.14920131862163544
1761336306515786500,3.140786376953125,-0.18102358281612396,-0.12008233368396759,-0.1886707842350006
1761336306525853400,3.150853515625,-0.2369137406349182,-0.13540509343147278,-0.21896396577358246
1761336306535919000,3.160919189453125,-0.284927099943161,-0.15028426051139832,-0.2296464592218399
1761336306545986300,3.170986328125,-0.3307212293148041,-0.15186138451099396,-0.20988526940345764
1761336306556052200,3.18105224609375,-0.38345733284950256,-0.10478901863098145,-0.15591084957122803
1761336306566119200,3.191119140625,-0.43591415882110596,-0.05561774596571922,-0.08658237755298615
1761336306576185300,3.201185302734375,-0.4830557405948639,-0.051672857254743576,-0.018800200894474983
1761336306586251300,3.211251220703125,-0.510067880153656,-0.019651006907224655,0.07460750639438629
1761336306596318200,3.221318115234375,-0.5148926973342896,0.04138866439461708,0.1784258633852005
1761336306606384400,3.23138427734375,-0.5118457674980164,0.062341079115867615,0.2415475696325302
1761336306616451300,3.241451416015625,-0.5069804787635803,0.0706111490726471,0.26198863983154297
1761336306626517200,3.251517333984375,-0.5049229264259338,0.07097573578357697,0.2552300691604614
1761336306636584200,3.261584228515625,-0.5097005367279053,0.08037051558494568,0.24552512168884277
1761336306646650400,3.271650390625,-0.5088714957237244,0.07876542955636978,0.23228681087493896
1761336306656717300,3.28171728515625,-0.49175816774368286,0.06052565947175026,0.21090316772460938
1761336306666783200,3.291783203125,-0.45458364486694336,0.03623123839497566,0.1612948626279831
1761336306676850400,3.301850341796875,-0.41360825300216675,-0.001224256120622158,0.08982521295547485
1761336306686916400,3.311916259765625,-0.37100571393966675,-0.03615856170654297,0.02953410893678665
1761336306696983300,3.3219833984375,-0.328496515750885,-0.017287718132138252,0.010489244014024734
1761336306707049500,3.332049560546875,-0.27518242597579956,0.0011163223534822464,0.027018951252102852
1761336306717115400,3.342115478515625,-0.2147231549024582,0.000390482135117054,0.04585622623562813
1761336306727182300,3.352182373046875,-0.1544473022222519,-0.013820677995681763,0.03600253164768219
1761336306737248500,3.36224853515625,-0.09710913896560669,-0.03531138598918915,0.015936341136693954
1761336306747315500,3.3723154296875,-0.0588323250412941,-0.05637006834149361,-0.0050360532477498055
1761336306757381000,3.382381103515625,-0.024297058582305908,-0.06551206111907959,-0.018317269161343575
1761336306767448300,3.3924482421875,0.014127828180789948,-0.06273118406534195,-0.025594623759388924
1761336306777514200,3.40251416015625,0.039028823375701904,-0.041159965097904205,-0.02257220447063446
1761336306787581200,3.412581298828125,0.06498159468173981,-0.050116442143917084,-0.04024147987365723
1761336306797647400,3.4226474609375,0.09162117540836334,-0.06986760348081589,-0.07193303108215332
1761336306807714300,3.43271435546875,0.11503036320209503,-0.09021309018135071,-0.10810941457748413
1761336306817780200,3.4427802734375,0.11937760561704636,-0.14721497893333435,-0.15487052500247955
1761336306827847200,3.45284716796875,0.11498099565505981,-0.20357997715473175,-0.1873033046722412
1761336306837913300,3.462913330078125,0.10963910073041916,-0.21376946568489075,-0.17350319027900696
1761336306847979300,3.472979248046875,0.08802887797355652,-0.18121683597564697,-0.12538066506385803
1761336306858046200,3.483046142578125,0.06168306991457939,-0.14957204461097717,-0.05848509073257446
1761336306868112400,3.4931123046875,0.04037085548043251,-0.1323653608560562,-0.023595016449689865
1761336306878179300,3.503179443359375,0.024144580587744713,-0.12384697794914246,-0.02147703990340233
1761336306888245200,3.513245361328125,0.007364002056419849,-0.11566068977117538,-0.04809027537703514
1761336306898312400,3.5233125,-0.014098185114562511,-0.12714336812496185,-0.09739864617586136
1761336306908378400,3.53337841796875,-0.03590947389602661,-0.16250509023666382,-0.15675702691078186
1761336306918445300,3.5434453125,-0.047621309757232666,-0.17206403613090515,-0.199546679854393
1761336306928511500,3.553511474609375,-0.05644542723894119,-0.15527519583702087,-0.22283628582954407
1761336306938578400,3.563578369140625,-0.06173989549279213,-0.13255348801612854,-0.24289460480213165
1761336306948644400,3.573644287109375,-0.06220408156514168,-0.11249003559350967,-0.25333526730537415
1761336306958710300,3.583710205078125,-0.06322368234395981,-0.12113617360591888,-0.2575724720954895
1761336306968777500,3.593777587890625,-0.04451817646622658,-0.13379603624343872,-0.24923411011695862
1761336306978843100,3.603843017578125,-0.01962682232260704,-0.12976433336734772,-0.2194744050502777
1761336306988910000,3.61391015625,0.015865392982959747,-0.12272959202528,-0.1619618535041809
1761336306998976300,3.623976318359375,0.03797965496778488,-0.09876711666584015,-0.05835636332631111
1761336307009043200,3.634043212890625,0.05265020951628685,-0.0699879378080368,0.045784685760736465
1761336307019109400,3.644109375,0.06276192516088486,-0.0745188295841217,0.09871590882539749
1761336307029176300,3.65417626953125,0.07123610377311707,-0.05807514488697052,0.11334944516420364
1761336307039242200,3.6642421875,0.08166678249835968,-0.022874906659126282,0.11353763937950134
1761336307049309200,3.67430908203125,0.08358398824930191,0.000292997807264328,0.10257287323474884
1761336307059375400,3.684375244140625,0.09186557680368423,-0.0031044473871588707,0.06993432343006134
1761336307069441300,3.694441162109375,0.10356058180332184,-0.02304166927933693,0.025256071239709854
1761336307079508200,3.70450830078125,0.10792573541402817,-0.03294448181986809,-0.022586138918995857
1761336307089574400,3.714574462890625,0.0994315817952156,-0.037498489022254944,-0.07163863629102707
1761336307099641300,3.724641357421875,0.09196824580430984,-0.025139793753623962,-0.09313172101974487
1761336307109707300,3.734707275390625,0.09062841534614563,-0.012587250210344791,-0.08989252150058746
1761336307119774500,3.7447744140625,0.10297751426696777,-0.007888538762927055,-0.07126350700855255
1761336307129840400,3.75484033203125,0.12506285309791565,0.00023490097373723984,-0.043315496295690536
1761336307139907300,3.7649072265625,0.14200223982334137,0.021099157631397247,-0.0015859277918934822
1761336307149973500,3.774973388671875,0.14484596252441406,0.011830027215182781,0.030677735805511475
1761336307160040400,3.78504052734375,0.13473162055015564,-0.0027756551280617714,0.03387542814016342
1761336307170106400,3.7951064453125,0.120507150888443,-0.004019085317850113,0.021899458020925522
1761336307180172300,3.80517236328125,0.11750835180282593,-0.016558736562728882,0.0062174005433917046
1761336307190239200,3.8152392578125,0.12402191758155823,-0.028742432594299316,-0.010888881981372833
1761336307200305200,3.82530517578125,0.12305576354265213,-0.01543456595391035,-0.02559441700577736
1761336307210372000,3.8353720703125,0.11592328548431396,-0.007188354153186083,-0.032730624079704285
1761336307220438300,3.845438232421875,0.10996255278587341,0.008972316049039364,-0.03784802183508873
1761336307230505200,3.855505126953125,0.10241781175136566,0.012531097047030926,-0.04545028507709503
1761336307240571100,3.865571044921875,0.1004568561911583,0.0363120399415493,-0.03870163857936859
1761336307250638300,3.875638427734375,0.08184908330440521,0.060708191245794296,-0.02377168834209442
1761336307260704300,3.885704345703125,0.058940693736076355,0.07649416476488113,-0.019960273057222366
1761336307270771200,3.895771240234375,0.050163447856903076,0.08168839663267136,-0.022437280043959618
1761336307280837400,3.90583740234375,0.04917405918240547,0.09458306431770325,-0.02824237197637558
1761336307290903300,3.9159033203125,0.04837058484554291,0.11407048255205154,-0.03557751700282097
1761336307300970200,3.92597021484375,0.04345327615737915,0.1224547028541565,-0.038232557475566864
1761336307311036400,3.936036376953125,0.041617825627326965,0.14459063112735748,-0.022347066551446915
1761336307321103400,3.946103271484375,0.038043130189180374,0.15297602117061615,-0.010618130676448345
1761336307331169300,3.956169189453125,0.02328256145119667,0.14094199240207672,-0.027130261063575745
1761336307341236500,3.966236572265625,0.006304425187408924,0.11914899945259094,-0.05919565260410309
1761336307351302400,3.976302490234375,0.006620009895414114,0.0974959060549736,-0.07914938032627106
1761336307361369300,3.986369384765625,0.011782574467360973,0.07268906384706497,-0.0798989087343216
1761336307371435500,3.996435546875,0.014089403674006462,0.049885742366313934,-0.07204870879650116
1761336307381502500,4.00650244140625,0.023569095879793167,0.03542532026767731,-0.05137508362531662
1761336307391568400,4.016568359375,0.029376648366451263,0.024951910600066185,-0.029271379113197327
1761336307401634300,4.02663427734375,0.027666954323649406,0.004580794833600521,-0.01229686290025711
1761336307411701200,4.036701171875,0.02069985866546631,-0.015460025519132614,-0.006295429542660713
1761336307421767200,4.04676708984375,0.015751365572214127,-0.030233804136514664,-0.004914612974971533
1761336307431834400,4.05683447265625,0.01607946678996086,-0.037396106868982315,-0.0076323687098920345
1761336307441900300,4.066900390625,0.013678314164280891,-0.05265461653470993,-0.012140702456235886
1761336307451967200,4.07696728515625,0.008544005453586578,-0.06881307810544968,-0.023162461817264557
1761336307462033200,4.087033203125,0.0029724021442234516,-0.06665205955505371,-0.027386996895074844
1761336307472100400,4.097100341796875,-0.009620088152587414,-0.06460462510585785,-0.01748083531856537
1761336307482166300,4.107166259765625,-0.012295425869524479,-0.05628101900219917,-0.006731487810611725
1761336307492233200,4.117233154296875,-0.013239783234894276,-0.04698712006211281,0.005229568108916283
1761336307502299400,4.12729931640625,-0.019769102334976196,-0.024876419454813004,0.002539641223847866
1761336307512366300,4.137366455078125,-0.03553155064582825,-0.01041145995259285,-0.013704842887818813
1761336307522432300,4.147432373046875,-0.05362144485116005,0.0046073077246546745,-0.03813767433166504
1761336307532498400,4.15749853515625,-0.07189126312732697,0.0038882559165358543,-0.060672543942928314
1761336307542565400,4.1675654296875,-0.08909347653388977,-0.004398053511977196,-0.0841260477900505
1761336307552631300,4.17763134765625,-0.07468311488628387,0.01658499240875244,-0.11101385205984116
1761336307562698200,4.1876982421875,-0.0652700886130333,0.02620057947933674,-0.11569671332836151
1761336307572764400,4.197764404296875,-0.08441395312547684,0.011908726766705513,-0.12411549687385559
1761336307582831400,4.207831298828125,-0.11562569439411163,-0.0025267675518989563,-0.15116888284683228
1761336307592897500,4.2178974609375,-0.15469560027122498,-0.015147487632930279,-0.1932750642299652
1761336307602964500,4.227964599609375,-0.17795541882514954,-0.040074460208415985,-0.23221997916698456
1761336307613030400,4.238030517578125,-0.2122659981250763,-0.059622060507535934,-0.2611032724380493
1761336307623097300,4.248097412109375,-0.23743517696857452,-0.05838393792510033,-0.28664931654930115
1761336307633163500,4.25816357421875,-0.2531891167163849,-0.051818445324897766,-0.3134543001651764
1761336307643229200,4.268229248046875,-0.26828548312187195,-0.047216445207595825,-0.32104822993278503
1761336307653296000,4.278296142578125,-0.2703174650669098,-0.0576602965593338,-0.30870339274406433
1761336307663362300,4.2883623046875,-0.2567457854747772,-0.029734421521425247,-0.2824566066265106
1761336307673429200,4.29842919921875,-0.2209252119064331,0.014237032271921635,-0.22688362002372742
1761336307683495200,4.3084951171875,-0.19279105961322784,0.035070985555648804,-0.14686253666877747
1761336307693562400,4.318562255859375,-0.18962402641773224,0.04646185785531998,-0.0710335448384285
1761336307703628300,4.328628173828125,-0.19270989298820496,0.06542856246232986,-0.02550743892788887
1761336307713695200,4.3386953125,-0.18987016379833221,0.07606575638055801,-0.006111902184784412
1761336307723761400,4.348761474609375,-0.17816370725631714,0.07046793401241302,-0.01079057902097702
1761336307733828400,4.358828369140625,-0.16388942301273346,0.05405380204319954,-0.01703915372490883
1761336307743894300,4.368894287109375,-0.15026326477527618,0.03770318254828453,-0.028759192675352097
1761336307753960400,4.37896044921875,-0.14435796439647675,0.0335230827331543,-0.04461352154612541
1761336307764027400,4.38902734375,-0.14332321286201477,0.029086608439683914,-0.06174040958285332
1761336307774093300,4.39909326171875,-0.1577966958284378,0.032946061342954636,-0.09600996971130371
1761336307784160300,4.40916015625,-0.16698189079761505,0.04795568436384201,-0.13774046301841736
1761336307794227500,4.4192275390625,-0.17095613479614258,0.05718594044446945,-0.15112124383449554
1761336307804293400,4.42929345703125,-0.16144996881484985,0.06939001381397247,-0.14815345406532288
1761336307814359600,4.439359619140625,-0.15429352223873138,0.07965197414159775,-0.1318645030260086
1761336307824426500,4.449426513671875,-0.15027138590812683,0.09069174528121948,-0.11663009226322174
1761336307834492400,4.459492431640625,-0.14894913136959076,0.10482620447874069,-0.0952579602599144
1761336307844559400,4.469559326171875,-0.15528516471385956,0.12805607914924622,-0.0667140930891037
1761336307854625500,4.47962548828125,-0.1579379439353943,0.15146419405937195,-0.03623022139072418
1761336307864692500,4.4896923828125,-0.1530798077583313,0.1678408980369568,-0.012687573209404945
1761336307874758100,4.499758056640625,-0.1564958393573761,0.16438864171504974,-0.018355844542384148
1761336307884825300,4.509825439453125,-0.1581610143184662,0.15492907166481018,-0.04666341841220856
1761336307894891300,4.519891357421875,-0.15460729598999023,0.13978713750839233,-0.08497272431850433
1761336307904958200,4.529958251953125,-0.14051201939582825,0.11155980080366135,-0.1159406527876854
1761336307915024400,4.5400244140625,-0.11378133296966553,0.08014195412397385,-0.1470993608236313
1761336307925091300,4.55009130859375,-0.09141336381435394,0.05721710994839668,-0.16241419315338135
1761336307935157200,4.5601572265625,-0.07754175364971161,0.03846472501754761,-0.17630816996097565
1761336307945223400,4.570223388671875,-0.07661766558885574,0.026814354583621025,-0.18295422196388245
1761336307955290400,4.580290283203125,-0.08127792924642563,0.013825584203004837,-0.19313441216945648
1761336307965356300,4.590356201171875,-0.08971323072910309,0.006632119417190552,-0.19271071255207062
1761336307975423200,4.60042333984375,-0.0880574882030487,0.008081083185970783,-0.1758352667093277
1761336307985489400,4.610489501953125,-0.08349649608135223,0.017281919717788696,-0.15534931421279907
1761336307995556400,4.620556396484375,-0.07639144361019135,0.03114926628768444,-0.13301125168800354
1761336308005622300,4.630622314453125,-0.07651123404502869,0.03374791890382767,-0.11381805688142776
1761336308015689500,4.640689453125,-0.07551121711730957,0.03893309086561203,-0.09997148811817169
1761336308025755400,4.65075537109375,-0.077469602227211,0.04932766035199165,-0.08137520402669907
1761336308035822300,4.660822265625,-0.07809784263372421,0.06625204533338547,-0.07803799957036972
1761336308045888500,4.670888427734375,-0.08894406259059906,0.061564378440380096,-0.08291184902191162
1761336308055954400,4.680954345703125,-0.09735166281461716,0.05712462216615677,-0.10845796018838882
1761336308066021400,4.691021484375,-0.11146418750286102,0.05518944561481476,-0.13090209662914276
1761336308076087300,4.70108740234375,-0.10421506315469742,0.035745978355407715,-0.1352108269929886
1761336308086154500,4.711154541015625,-0.08333809673786163,0.029013797640800476,-0.11767901480197906
1761336308096220200,4.72122021484375,-0.06199340149760246,0.042424943298101425,-0.07773186266422272
1761336308106287400,4.731287353515625,-0.05070549622178078,0.041933175176382065,-0.04789220541715622
1761336308116353300,4.741353271484375,-0.05282483994960785,0.029066644608974457,-0.03451354801654816
1761336308126420200,4.751420166015625,-0.06013831868767738,0.01776590198278427,-0.042438581585884094
1761336308136486400,4.761486328125,-0.0733657032251358,0.014059048146009445,-0.04838115721940994
1761336308146553300,4.77155322265625,-0.0723586231470108,0.009749170392751694,-0.048923276364803314
1761336308156619300,4.781619384765625,-0.06628528237342834,-0.0036393404006958008,-0.03958303853869438
1761336308166685400,4.791685546875,-0.05521826073527336,-0.019374322146177292,-0.035001903772354126
1761336308176752400,4.80175244140625,-0.04101935029029846,-0.05113384872674942,-0.04971960186958313
1761336308186818300,4.811818359375,-0.03606394678354263,-0.08095084130764008,-0.06958797574043274
1761336308196885200,4.82188525390625,-0.048222076147794724,-0.1009967178106308,-0.09637032449245453
1761336308206951400,4.831951416015625,-0.05901056528091431,-0.10566826164722443,-0.10312110185623169
1761336308217018400,4.842018310546875,-0.0692986249923706,-0.08085373044013977,-0.07559094578027725
1761336308227084300,4.852084228515625,-0.08384530991315842,-0.0618949830532074,-0.05155761539936066
1761336308237151500,4.8621513671875,-0.11153366416692734,-0.07339637726545334,-0.057437606155872345
1761336308247217400,4.872217529296875,-0.1247730702161789,-0.1159035861492157,-0.0728984847664833
1761336308257284400,4.882284423828125,-0.12415334582328796,-0.1973542422056198,-0.10493897646665573
1761336308267350500,4.8923505859375,-0.10493374615907669,-0.28361189365386963,-0.14558656513690948
1761336308277416200,4.902416259765625,-0.06703589856624603,-0.3484114110469818,-0.17720627784729004
1761336308287483400,4.9124833984375,-0.04651850089430809,-0.35425782203674316,-0.18397988379001617
1761336308297549300,4.92254931640625,-0.05657965689897537,-0.35436221957206726,-0.15621483325958252
1761336308307616300,4.9326162109375,-0.08118092268705368,-0.35806313157081604,-0.12341948598623276
1761336308317682200,4.94268212890625,-0.09136618673801422,-0.3536182940006256,-0.06836342066526413
1761336308327749400,4.952749267578125,-0.07306468486785889,-0.3403056561946869,0.002765377052128315
1761336308337815300,4.962815185546875,-0.02544577419757843,-0.3340517580509186,0.06658376753330231
1761336308347882200,4.97288232421875,0.023398123681545258,-0.32725071907043457,0.11798273772001266
1761336308357948400,4.982948486328125,0.06758129596710205,-0.3196556568145752,0.13116513192653656
1761336308368015400,4.993015380859375,0.10027191042900085,-0.29819533228874207,0.11295807361602783
1761336308378081300,5.003081298828125,0.11901336908340454,-0.3045099377632141,0.07630312442779541
1761336308388147500,5.0131474609375,0.13988745212554932,-0.3116976022720337,0.041144959628582
1761336308398214400,5.02321435546875,0.1607104390859604,-0.2692771852016449,0.03429610654711723
1761336308408280300,5.0332802734375,0.17067870497703552,-0.22308287024497986,0.0404348261654377
1761336308418347300,5.04334716796875,0.17134396731853485,-0.19038990139961243,0.047693539410829544
1761336308428414500,5.05341455078125,0.16321370005607605,-0.1582641899585724,0.03398381918668747
1761336308438481400,5.0634814453125,0.13328509032726288,-0.1287854015827179,-0.008188402280211449
1761336308448547300,5.07354736328125,0.09016301482915878,-0.10175632685422897,-0.058051031082868576
1761336308458614300,5.0836142578125,0.04315129294991493,-0.06994939595460892,-0.09880271553993225
1761336308468680400,5.093680419921875,0.00008091097697615623,-0.05710568651556969,-0.1299671232700348
1761336308478747400,5.103747314453125,-0.038174331188201904,-0.0446506142616272,-0.14112897217273712
1761336308488813300,5.113813232421875,-0.06067010387778282,-0.01817951537668705,-0.14715850353240967
1761336308498879200,5.123879150390625,-0.077550008893013,0.030099865049123764,-0.14544741809368134
1761336308508946400,5.133946533203125,-0.08613783866167068,0.07814265042543411,-0.14578774571418762
1761336308519012000,5.14401220703125,-0.095994733273983,0.09608356654644012,-0.1475294530391693
1761336308529079300,5.154079345703125,-0.10355036705732346,0.0862836241722107,-0.16725604236125946
1761336308539145200,5.164145263671875,-0.09576594084501266,0.06231490522623062,-0.20862717926502228
1761336308549212200,5.174212158203125,-0.09462920576334,0.048957955092191696,-0.2375268191099167
1761336308559278300,5.1842783203125,-0.12248320132493973,0.06034429743885994,-0.21539995074272156
1761336308569345300,5.19434521484375,-0.13828420639038086,0.12222938984632492,-0.17197246849536896
1761336308579411200,5.2044111328125,-0.14622920751571655,0.09714400768280029,-0.11718298494815826
1761336308589478100,5.21447802734375,-0.1331426352262497,0.07350727915763855,-0.06291785836219788
1761336308599544300,5.22454443359375,-0.11203867942094803,0.09504346549510956,-0.0013293265365064144
1761336308609610200,5.2346103515625,-0.11054549366235733,0.10407698154449463,0.05870351195335388
1761336308619677200,5.24467724609375,-0.10364684462547302,0.07406529039144516,0.09488628804683685
1761336308629743400,5.254743408203125,-0.08910714089870453,0.04687388986349106,0.13682924211025238
1761336308639810300,5.264810302734375,-0.07136382907629013,0.03653576597571373,0.16982820630073547
1761336308649876500,5.27487646484375,-0.05222337692975998,0.02876339480280876,0.18718811869621277
1761336308659943400,5.284943359375,-0.03524625673890114,0.018028460443019867,0.17995710670948029
1761336308670009300,5.29500927734375,-0.007855016738176346,-0.0066784946247935295,0.1615692675113678
1761336308680076300,5.305076171875,0.015484927222132683,-0.05310538411140442,0.13163214921951294
1761336308690142500,5.315142578125,0.0347149558365345,-0.09387833625078201,0.10482597351074219
1761336308700209400,5.32520947265625,0.0444091260433197,-0.1068497970700264,0.08365543931722641
1761336308710275300,5.335275390625,0.0450717955827713,-0.09951995313167572,0.051143378019332886
1761336308720341200,5.34534130859375,0.04523983970284462,-0.07736458629369736,0.022650480270385742
1761336308730408200,5.355408203125,0.038897380232810974,-0.06182881072163582,-0.011927345767617226
1761336308740474000,5.36547412109375,0.03134705126285553,-0.05141665041446686,-0.04933943226933479
1761336308750541300,5.375541259765625,0.018429484218358994,-0.028350897133350372,-0.06755971163511276
1761336308760607200,5.385607177734375,0.010140128433704376,0.003841392695903778,-0.07523813098669052
1761336308770674200,5.395674072265625,0.00737949600443244,0.03941323608160019,-0.06729765236377716
1761336308780740400,5.405740234375,0.009059417992830276,0.06456439942121506,-0.05477121099829674
1761336308790807300,5.415807373046875,0.011081245727837086,0.08298037201166153,-0.05441425368189812
1761336308800873200,5.425873291015625,0.010924652218818665,0.09127745032310486,-0.06579181551933289
1761336308810939400,5.435939453125,0.005271321628242731,0.09761946648359299,-0.0792403444647789
1761336308821006300,5.44600634765625,-0.002260630950331688,0.0880560502409935,-0.09196838736534119
1761336308831072300,5.456072265625,-0.008879028260707855,0.08724536746740341,-0.08623722940683365
1761336308841139200,5.46613916015625,-0.004142862278968096,0.09685990959405899,-0.04827786237001419
1761336308851205400,5.476205322265625,-0.004136739764362574,0.10106596350669861,-0.016043715178966522
1761336308861272300,5.486272216796875,-0.011339791119098663,0.09234757721424103,-0.0006445199251174927
1761336308871338200,5.496338134765625,-0.029829509556293488,0.08578585088253021,-0.00610640924423933
1761336308881405400,5.506405517578125,-0.04754965007305145,0.0793101042509079,-0.026818612590432167
1761336308891471400,5.516471435546875,-0.0647050142288208,0.056150294840335846,-0.03974908962845802
1761336308901538300,5.526538330078125,-0.07494965940713882,0.031300876289606094,-0.054385289549827576
1761336308911604500,5.5366044921875,-0.07346460223197937,0.0022041378542780876,-0.05848492681980133
1761336308921670100,5.546670166015625,-0.060745351016521454,-0.018586894497275352,-0.047274619340896606
1761336308931737300,5.5567373046875,-0.053651925176382065,-0.017005126923322678,-0.029992029070854187
1761336308941803300,5.56680322265625,-0.047872599214315414,-0.014086302369832993,-0.016139596700668335
1761336308951870200,5.5768701171875,-0.049259431660175323,-0.011907536536455154,-0.02184021659195423
1761336308961936100,5.58693603515625,-0.05235695466399193,0.015540598891675472,-0.03223613277077675
1761336308972003300,5.59700341796875,-0.05363810062408447,0.051733363419771194,-0.03285033628344536
1761336308982069200,5.6070693359375,-0.05547381937503815,0.06969025731086731,-0.03617555648088455
1761336308992136200,5.61713623046875,-0.04908549413084984,0.07868120819330215,-0.038573309779167175
1761336309002202400,5.627202392578125,-0.04121026024222374,0.07740209251642227,-0.04287111759185791
1761336309012269300,5.637269287109375,-0.03382974863052368,0.07309214770793915,-0.05222972854971886
1761336309022335200,5.647335205078125,-0.02678568661212921,0.06938636302947998,-0.06707631796598434
1761336309032401400,5.6574013671875,-0.026891127228736877,0.06602061539888382,-0.07049611210823059
1761336309042468400,5.66746826171875,-0.030178800225257874,0.03513087332248688,-0.06165761500597
1761336309052534300,5.6775341796875,-0.029215093702077866,0.043247006833553314,-0.011856772005558014
1761336309062601200,5.687601318359375,-0.026864588260650635,0.07771337032318115,0.05489935353398323
1761336309072667400,5.69766748046875,-0.028618548065423965,0.07750204205513,0.09500500559806824
1761336309082734300,5.707734375,-0.02714821696281433,0.06453324109315872,0.10744649171829224
1761336309092800300,5.71780029296875,-0.02588607557117939,0.0703224390745163,0.10932382941246033
1761336309102867500,5.727867431640625,-0.03351443260908127,0.07494062930345535,0.09895001351833344
1761336309112933400,5.737933349609375,-0.0496436208486557,0.08371380716562271,0.07062302529811859
1761336309123000300,5.748000244140625,-0.06659410893917084,0.08251485228538513,0.02409067377448082
1761336309133066500,5.75806640625,-0.08353396505117416,0.08336682617664337,-0.032374363392591476
1761336309143132200,5.768132080078125,-0.09617067128419876,0.09218375384807587,-0.07354150712490082
1761336309153199000,5.77819921875,-0.10102313756942749,0.10451527684926987,-0.10239491611719131
1761336309163265300,5.788265380859375,-0.10451481491327286,0.08461533486843109,-0.11548755317926407
1761336309173332200,5.798332275390625,-0.098105289041996,0.051809705793857574,-0.10302107036113739
1761336309183398100,5.808398193359375,-0.0762343481183052,0.039064351469278336,-0.06304328888654709
1761336309193465300,5.81846533203125,-0.054312605410814285,0.07833942770957947,-0.01348269172012806
1761336309203531300,5.82853125,-0.0504494234919548,0.08733052760362625,0.005146652460098267
1761336309213598200,5.83859814453125,-0.05513447895646095,0.07852349430322647,-0.0032508024014532566
1761336309223664400,5.848664306640625,-0.05415283888578415,0.06693554669618607,-0.018095795065164566
1761336309233730300,5.858730224609375,-0.04735618829727173,0.06065434217453003,-0.02054373174905777
1761336309243797200,5.86879736328125,-0.045656558126211166,0.04188491404056549,-0.01730426400899887
1761336309253863400,5.878863525390625,-0.0382377915084362,0.03894931077957153,0.0037562809884548187
1761336309263930400,5.888930419921875,-0.032099850475788116,0.050749704241752625,0.025463197380304337
1761336309273996300,5.898996337890625,-0.03063608705997467,0.05185090750455856,0.04841089993715286
1761336309284063200,5.909063232421875,-0.03521086648106575,0.051861293613910675,0.043847572058439255
1761336309294129400,5.91912939453125,-0.04435257613658905,0.062162864953279495,0.03331950679421425
1761336309304196400,5.9291962890625,-0.04815983399748802,0.07320886850357056,0.01947799324989319
1761336309314262300,5.93926220703125,-0.04639071598649025,0.08317046612501144,0.009560137055814266
1761336309324329500,5.94932958984375,-0.039616167545318604,0.08061995357275009,-0.009647112339735031
1761336309334395400,5.9593955078125,-0.03518163785338402,0.08083606511354446,-0.019113391637802124
1761336309344461300,5.96946142578125,-0.03879901021718979,0.0773843377828598,-0.03182359039783478
1761336309354528300,5.9795283203125,-0.048784781247377396,0.07675911486148834,-0.05179329216480255
1761336309364594200,5.98959423828125,-0.05773326754570007,0.08868873864412308,-0.05203377455472946
1761336309374661000,5.9996611328125,-0.0646737813949585,0.0963057279586792,-0.034706056118011475
1761336309384727300,6.009727294921875,-0.06882591545581818,0.09585032612085342,-0.017919618636369705
1761336309394794200,6.019794189453125,-0.07083594053983688,0.08724600821733475,-0.00434239162132144
1761336309404860200,6.029860107421875,-0.07108761370182037,0.0818251445889473,0.012671479023993015
1761336309414927400,6.03992724609375,-0.06368668377399445,0.09234796464443207,0.03760208934545517
1761336309424993300,6.0499931640625,-0.057066332548856735,0.11482290923595428,0.047993212938308716
1761336309435060200,6.060060302734375,-0.05047324299812317,0.12837137281894684,0.05031362175941467
1761336309445126400,6.07012646484375,-0.053522296249866486,0.13050030171871185,0.035573288798332214
1761336309455192000,6.080192138671875,-0.05679839476943016,0.1345416009426117,0.011315290816128254
1761336309465259000,6.090259033203125,-0.06515540182590485,0.10805272310972214,-0.0005506891757249832
1761336309475325200,6.1003251953125,-0.07627280801534653,0.07959172129631042,-0.01009528711438179
1761336309485392100,6.11039208984375,-0.06714455783367157,0.06137330085039139,-0.011757100000977516
1761336309495458000,6.1204580078125,-0.04860586300492287,0.0384107381105423,-0.013721145689487457
1761336309505525000,6.13052490234375,-0.03528553247451782,-0.0065135951153934,-0.02125922217965126
1761336309515591200,6.140591064453125,-0.03269660100340843,-0.043285973370075226,-0.023345738649368286
1761336309525658000,6.150658203125,-0.03003450483083725,-0.056989800184965134,-0.007713514845818281
1761336309535724300,6.160724365234375,-0.02966117486357689,-0.07478482276201248,0.018887292593717575
1761336309545790200,6.170790283203125,-0.025439530611038208,-0.08114631474018097,0.03768441453576088
1761336309555857200,6.180857177734375,-0.014456802979111671,-0.078475221991539,0.05792251601815224
1761336309565923300,6.19092333984375,0.0032968935556709766,-0.07671593874692917,0.0686875507235527
1761336309575990300,6.200990234375,0.01324470341205597,-0.07499446719884872,0.07128214836120605
1761336309586056200,6.21105615234375,0.0252920463681221,-0.06848570704460144,0.06259625405073166
1761336309596123100,6.221123046875,0.030474917963147163,-0.06950024515390396,0.03943873569369316
1761336309606189300,6.231189208984375,0.04068521410226822,-0.07102277874946594,0.002381383441388607
1761336309616256300,6.24125634765625,0.041060641407966614,-0.05437977984547615,-0.014269797131419182
1761336309626322200,6.251322265625,0.04115891084074974,-0.027911152690649033,-0.0009401431307196617
1761336309636389400,6.261389404296875,0.03622087836265564,-0.004976276308298111,0.012619607150554657
1761336309646455300,6.271455322265625,0.03152519464492798,0.017667250707745552,0.02148793451488018
1761336309656521000,6.28152099609375,0.019083296880126,0.03085384890437126,0.02102866768836975
1761336309666588200,6.291588134765625,0.009688463993370533,0.04590070620179176,0.012961686588823795
1761336309676654000,6.301654052734375,0.0025999443605542183,0.05880993604660034,-0.002096346579492092
1761336309686721000,6.311720947265625,-0.012806175276637077,0.0702522024512291,-0.027603037655353546
1761336309696787200,6.321787109375,-0.032648321241140366,0.07569397985935211,-0.047435641288757324
1761336309706854100,6.331854248046875,-0.04808080568909645,0.06962330639362335,-0.05052197724580765
1761336309716920000,6.341920166015625,-0.056715525686740875,0.06793572753667831,-0.05214960500597954
1761336309726987000,6.351987060546875,-0.05421987175941467,0.07027824223041534,-0.04499821737408638
1761336309737053200,6.36205322265625,-0.05794503539800644,0.07970932126045227,-0.03299235180020332
1761336309747119000,6.372119140625,-0.0527324303984642,0.1030266284942627,-0.014409612864255905
1761336309757186000,6.38218603515625,-0.058457065373659134,0.10897650569677353,0.004848242737352848
1761336309767252200,6.392252197265625,-0.06600818783044815,0.10770218819379807,0.02011081948876381
1761336309777319200,6.402319091796875,-0.06902751326560974,0.11582763493061066,0.028375400230288506
1761336309787385300,6.41238525390625,-0.0702967718243599,0.12442964315414429,0.02835116721689701
1761336309797452300,6.422452392578125,-0.07180610299110413,0.11824703961610794,0.04037943109869957
1761336309807518200,6.432518310546875,-0.07189185917377472,0.12205775827169418,0.047567036002874374
1761336309817585200,6.442585205078125,-0.06196221709251404,0.1182580217719078,0.027918066829442978
1761336309827651300,6.4526513671875,-0.06136726588010788,0.10394565761089325,-0.0113923205062747
1761336309837718300,6.46271826171875,-0.06485980749130249,0.09467489272356033,-0.03297829627990723
1761336309847784200,6.4727841796875,-0.05921018496155739,0.09718545526266098,-0.021543482318520546
1761336309857850000,6.48285009765625,-0.04836147651076317,0.10202329605817795,0.0034572668373584747
1761336309867917300,6.492917236328125,-0.03657512366771698,0.10215511918067932,0.022069033235311508
1761336309877983000,6.50298291015625,-0.02665717527270317,0.07880374044179916,0.02610751986503601
1761336309888050200,6.51305029296875,-0.016856476664543152,0.06091183051466942,0.016697771847248077
1761336309898116000,6.5231162109375,-0.002236085943877697,0.05925136059522629,0.00810112152248621
1761336309908183000,6.53318310546875,0.009997144341468811,0.03970775008201599,-0.002467899117618799
1761336309918249200,6.543249267578125,0.015613359399139881,0.010026860050857067,-0.017591582611203194
1761336309928316200,6.553316162109375,0.01406819373369217,-0.01623084396123886,-0.026098784059286118
1761336309938382000,6.563382080078125,0.017365703359246254,-0.022753272205591202,-0.007530704140663147
1761336309948448300,6.5734482421875,0.034047212451696396,0.014000745490193367,0.022392839193344116
1761336309958515200,6.58351513671875,0.05139370262622833,0.04962317645549774,0.044111527502536774
1761336309968581000,6.5935810546875,0.06463920325040817,0.08564109355211258,0.04847351834177971
1761336309978648000,6.60364794921875,0.08424689620733261,0.1482340544462204,0.07080518454313278
1761336309988714200,6.61371435546875,0.10019656270742416,0.19590650498867035,0.07976538687944412
1761336309998781200,6.62378125,0.09853143990039825,0.1860528588294983,0.03875729814171791
1761336310008847400,6.633847412109375,0.06564779579639435,0.1925096958875656,0.011496650986373425
1761336310018914300,6.643914306640625,0.017069630324840546,0.12009204924106598,-0.06691034138202667
1761336310028980200,6.653980224609375,-0.015914686024188995,0.09144922345876694,-0.09317123889923096
1761336310039047200,6.664047119140625,-0.03153037652373314,0.0903540849685669,-0.07605352997779846
1761336310049113300,6.67411328125,-0.03377222642302513,0.11044923961162567,-0.03626670315861702
1761336310059179000,6.684178955078125,-0.03972366079688072,0.1128963977098465,-0.00837229285389185
1761336310069246200,6.69424609375,-0.05468183755874634,0.11334434151649475,0.01370691042393446
