time,seconds_elapsed,z,y,x
1761341817843166700,0.077166748046875,-0.06802315039038657,0.008323756105918437,0.005165401672851294
1761341817853233000,0.08723291015625,-0.06503273640275001,-0.00489115130873397,0.004281143351341598
1761341817863298800,0.097298828125,-0.06891922244727611,-0.009698441992606967,0.0022209868179867043
1761341817873365000,0.107364990234375,-0.07385843241512775,-0.0002494264501146972,-0.00028479459101799875
1761341817883432000,0.117431884765625,-0.0671247402459383,-0.0007071070897392928,0.0013944408999290317
1761341817893497600,0.12749755859375,-0.0672732088059187,-0.011854706711042672,0.0003084129286231473
1761341817903563800,0.137563720703125,-0.07116320198178291,-0.0032146694638766344,0.0034067899359157307
1761341817913629700,0.147629638671875,-0.07161328383684158,-0.006159235015790909,0.005742922999593429
1761341817923695900,0.15769580078125,-0.06697568716406822,-0.00033072979170829054,0.0030294034243095666
1761341817933762800,0.1677626953125,-0.06802315039038657,-0.0027115239810198543,0.0030201424056198445
1761341817943828700,0.177828857421875,-0.06503156735897064,0.002867938385438174,0.0055269786939723415
1761341817953895000,0.18789501953125,-0.06936988882422447,-0.003159085085429251,0.00303386497029569
1761341817963960800,0.1979609375,-0.06637772127091884,0.003009100421797484,-0.007857042776467277
1761341817974027000,0.208027099609375,-0.0744575673520565,-0.009178820298984647,0.0020542519489536062
1761341817984094000,0.218093994140625,-0.0630851094663143,-0.00749800933888182,0.005558652473869733
1761341817994159900,0.228159912109375,-0.06876958484351635,-0.00579644785169512,-0.005550345869828015
1761341818004225800,0.238225830078125,-0.06068973876237869,-0.006634177317470312,-0.00568254371501971
1761341818014291700,0.248291748046875,-0.07819909196794032,-0.005505940472520888,-0.0019326942287851124
1761341818024358000,0.25835791015625,-0.0657785863339901,-0.004826707770396023,0.00629834209238179
1761341818034423800,0.268423828125,-0.06472936954200267,-0.00022361615542322395,0.003556135278730653
1761341818044490800,0.27849072265625,-0.07311082891821861,0.006141808956954628,0.0034701922946376723
1761341818054557000,0.288556884765625,-0.07774901011288166,-0.00345794016784057,0.0017812345606973393
1761341818064622800,0.298622802734375,-0.06847323224544524,-0.0036868535528890786,0.0027040028282674026
1761341818074689000,0.30868896484375,-0.07191431261003017,-0.001461688316706568,0.0028215556601760908
1761341818084754700,0.318754638671875,-0.056954643887281414,-0.008148198609612882,-0.001507966010691598
1761341818094822000,0.32882177734375,-0.06728314567804336,-0.0009254260155372321,0.0003810671728802845
1761341818104887800,0.3388876953125,-0.06563947012424469,0.0018821787510998546,0.00878433652210515
1761341818114953700,0.34895361328125,-0.0690805504888296,-0.002955214810092002,0.00696816764534451
1761341818125020000,0.35902001953125,-0.06653437313735484,-0.006193575676809996,-0.0014357866904698311
1761341818135085800,0.3690859375,-0.06803250274062156,0.005259491430781782,0.00041421595723368224
1761341818145152800,0.37915283203125,-0.06713233903050422,0.00039389468841254707,0.0063339157292619346
1761341818155219000,0.389218994140625,-0.061896776464581485,-0.0029566578485071657,-0.0011444938600063323
1761341818165284900,0.399284912109375,-0.060550622552633285,-0.0012981865843757986,0.0015750124980695545
1761341818175350800,0.409350830078125,-0.06085282036960125,0.0018304850964806973,-0.00202987555952277
1761341818185417000,0.4194169921875,-0.0660924745887518,-0.008095993498340249,0.0024811584244016555
1761341818195484000,0.42948388671875,-0.06414777026176452,-0.0011672902137041092,0.00449082687953487
1761341818205549800,0.4395498046875,-0.06489771184623241,0.00011544307321310043,-0.004689897682168521
1761341818215615700,0.44961572265625,-0.06474807424247264,-0.004646510631591081,-0.004918751701712608
1761341818225681700,0.459681640625,-0.062200143325328826,-0.006310808848310262,-0.0007359495917335152
1761341818235747800,0.469747802734375,-0.06489128210544585,-0.003408602867089212,0.00011958039221353828
1761341818245814800,0.479814697265625,-0.06608721389174461,-0.00611360577577725,0.0020400270607788115
1761341818255881000,0.489880859375,-0.06444178477227687,0.0008116634427569806,0.011974150105938315
1761341818265947000,0.49994677734375,-0.06444295381605625,-0.002721479119453579,0.0039076658298727125
1761341818276012800,0.5100126953125,-0.07372282333672046,-0.0010950104287825524,0.006690154421562329
1761341818286079000,0.520078857421875,-0.06355038889050484,-0.001883895784150809,0.007693737406958825
1761341818296144600,0.53014453125,-0.06878595145642757,0.0017615845787338912,0.007919216725905426
1761341818306211600,0.540211669921875,-0.06953004782199859,0.0010095241024158895,0.01725741057137493
1761341818316277800,0.55027783203125,-0.060256023520231246,0.00128388406438753,0.005272277847118675
1761341818326343700,0.56034375,-0.06833528507947921,-0.002365687951724976,0.001171039373637177
1761341818336409900,0.570409912109375,-0.07177519640028476,0.0019083726382814346,0.011215837985347024
1761341818346475800,0.580475830078125,-0.06070435180962085,-0.004863806644082069,0.008251471754419617
1761341818356542700,0.590542724609375,-0.07522329102754592,-0.006522497103922068,0.004950201719324104
1761341818366609000,0.60060888671875,-0.07223287703990935,-0.0005886866081506013,0.005406265790597536
1761341818376674800,0.6106748046875,-0.06909048736095429,-0.004737129790801555,-0.0008773171240696683
1761341818386741000,0.620740966796875,-0.080762220454216,-0.0011766973628662527,0.00010709536997601389
1761341818396806700,0.630806640625,-0.06953706208467483,-0.0027590163845568894,-0.00046096857525408267
1761341818406872800,0.640872802734375,-0.06115794079601764,-0.005587152482569217,-0.00007698335950262844
1761341818416939800,0.650939697265625,-0.06968319255709647,-0.003077690412290394,0.006497746255155652
1761341818427005700,0.661005615234375,-0.06369768840670585,-0.008033632319234311,0.0034623697477858513
1761341818437072000,0.67107177734375,-0.06429448525607585,0.005635905261430889,-0.00037507582351099697
1761341818447137800,0.6811376953125,-0.06803250274062156,-0.0015036277622915803,0.0019551069899927825
1761341818457204000,0.691203857421875,-0.06803250274062156,-0.004348769794031977,0.006873995689023285
1761341818467271000,0.70127099609375,-0.07147358310520649,0.0026558482710272073,0.00638835389681626
1761341818477336800,0.7113369140625,-0.07477028656303882,-0.0015183321410790086,0.003426782411173917
1761341818487403000,0.721403076171875,-0.07387479902803898,0.00305754267340526,0.0045235509722027925
1761341818497468700,0.73146875,-0.07133037524223328,0.000521229128818959,0.004172207650728524
1761341818507534800,0.741534912109375,-0.061608022651076316,0.001599507618509233,0.005543564502592198
1761341818517601800,0.751601806640625,-0.06984042894542217,-0.002829122478701174,0.0066286106597865
1761341818527667700,0.761667724609375,-0.07612813091278076,-0.0013412037421949208,0.0004303907738998532
1761341818537734000,0.77173388671875,-0.061762336429953574,0.0010355353265069425,-0.0016541375823086128
1761341818547799800,0.7817998046875,-0.0649070641964674,0.0019131766775622964,0.006359397230390459
1761341818557866000,0.791865966796875,-0.0695469989567995,-0.0053684864968992765,0.0012994652260094881
1761341818567933000,0.801932861328125,-0.0686491733342409,-0.0035713922133669253,-0.0015435990130761637
1761341818577998800,0.811998779296875,-0.06760346367359162,-0.003655289370846003,0.003763804946350865
1761341818588065000,0.82206494140625,-0.07059621574878693,0.00382593323001638,0.0072196490552276366
1761341818598130700,0.832130615234375,-0.07074585335254668,0.008739113707467914,0.0023203509726561606
1761341818608196600,0.842196533203125,-0.07074234622120856,-0.0038522367150522767,0.0020825510282535104
1761341818618262800,0.8522626953125,-0.06580488981902599,-0.002968750145100057,0.004241226899484172
1761341818628329700,0.862329833984375,-0.06565875934660434,0.006727554689347744,-0.001123259275732562
1761341818638396000,0.87239599609375,-0.0764355894267559,0.0024943375663831827,-0.0038907923268852755
1761341818648461800,0.8824619140625,-0.07000292603075504,0.006317275121714919,0.00414290392443072
1761341818658527700,0.89252783203125,-0.07284720954596996,0.0035071313381195065,0.004433288006018847
1761341818668594000,0.902593994140625,-0.07434709271490574,-0.004754628914874047,-0.0027114783152472227
1761341818678660900,0.912660888671875,-0.0715033937215805,0.0016811214873567223,-0.004455011214059777
1761341818688726800,0.922726806640625,-0.0670154346525669,-0.008591686327103524,0.000829815587378107
1761341818698793000,0.93279296875,-0.061332128319144245,-0.007256437401659786,0.002499543464463204
1761341818708858600,0.942858642578125,-0.06926292131841183,-0.0005450849284417927,0.0057090070302598175
1761341818718924800,0.9529248046875,-0.0643272184818983,0.0010375080878846346,0.0021950897583272308
1761341818728991700,0.96299169921875,-0.07120821016728877,0.001236647389177233,0.00012889164325315504
1761341818739057700,0.9730576171875,-0.06192892516851425,0.003703348029963672,0.004284216657839715
1761341818749123800,0.983123779296875,-0.07330138305425643,-0.0024554851270280776,0.007657848676247522
1761341818759189800,0.993189697265625,-0.07180676058232784,0.0024026589612476524,0.0022311702852835878
1761341818769256000,1.003255859375,-0.07285714641809463,0.0019038608599454164,0.0012176138951443135
1761341818779323000,1.013322998046875,-0.06327858621180057,-0.0005378514700569212,0.002869938546279445
1761341818789388800,1.023388916015625,-0.06327975525557994,-0.0032048787222243844,0.008592910169810055
1761341818799455000,1.033455078125,-0.06642389850020408,0.0033042657097801563,0.0007883008334785699
1761341818809520600,1.043520751953125,-0.07241057169437408,0.0005042597277089953,-0.0038610091099748386
1761341818819586800,1.0535869140625,-0.06642448302209376,-0.0010294526455923913,-0.0020934742810670287
1761341818829652700,1.06365283203125,-0.07150982346236705,-0.0012653620270080864,0.004236559857521206
1761341818839719700,1.0737197265625,-0.0658218409538269,0.0013526384516619144,0.0062743036296684295
1761341818849785900,1.083785888671875,-0.06058627838790416,0.007333137633372098,-0.002662597672222182
1761341818859851800,1.093851806640625,-0.0581926612496376,0.0004663023374974727,0.001139593922602944
1761341818869918000,1.10391796875,-0.06896656872034072,-0.006475680553819984,-0.0006764607897261157
1761341818879983900,1.11398388671875,-0.06582125643193722,-0.0011839856201782822,0.004341276040743105
1761341818890050800,1.12405078125,-0.06148059687912464,-0.004806560031510889,-0.00571192963970825
1761341818900117000,1.134116943359375,-0.06537175909876823,-0.002686097278818488,-0.00348570039102342
1761341818910182700,1.1441826171875,-0.06941489700973033,0.0008732574368827045,0.00482545196164865
1761341818920248800,1.154248779296875,-0.06926701297163963,0.0001756305615417659,-0.00047837180120404804
1761341818930314800,1.164314697265625,-0.062386021286249156,-0.001956467830017209,-0.003988521646894515
1761341818940381000,1.174380859375,-0.05894844805300235,0.002417363340035081,0.001541356823639944
1761341818950447900,1.18444775390625,-0.06762918263673783,-0.005604907334968447,0.0025296372086275366
1761341818960513800,1.194513671875,-0.06104395902752876,0.0018159085818566382,0.007265077365841716
1761341818970580000,1.204580078125,-0.0583493131160736,0.003218578454013914,0.004727686109021306
1761341818980646000,1.21464599609375,-0.06313654739260673,-0.0005589125243946909,-0.0037933324349345636
1761341818990711800,1.2247119140625,-0.06523673454225062,-0.0029046354003250596,0.007288823567610234
1761341819000779000,1.234779052734375,-0.07302022802531719,-0.0019364662216044962,0.001215659400075674
1761341819010844700,1.2448447265625,-0.07391630008220672,-0.0006712868576869368,0.006163354068482295
1761341819020910800,1.254910888671875,-0.06972820074260234,-0.0013584654042497275,0.0011479370592627674
1761341819030976800,1.264976806640625,-0.06568856996297837,0.0032989319475367662,0.0036572849651100112
1761341819041042700,1.275042724609375,-0.06898468889892101,0.0037382732128724452,0.005767883910913952
1761341819051110000,1.28510986328125,-0.07182488076090812,0.007023834222182631,0.01524360936381854
1761341819061175800,1.29517578125,-0.06913198841512203,-0.0008665354351513087,-0.0030763798046158624
1761341819071241700,1.30524169921875,-0.07122399225831032,0.003200184280797839,-0.008745739811076783
1761341819081308000,1.315307861328125,-0.0782569596350193,-0.010377692961040883,-0.006437106675677933
1761341819091373800,1.325373779296875,-0.05955342820882797,0.0026897140080109237,-0.0001628395786276087
1761341819101439700,1.335439697265625,-0.07047755780518054,0.003600727905705571,0.00309091065346729
1761341819111506700,1.345506591796875,-0.06927928793132304,-0.00047905222121626134,-0.00038472956784535195
1761341819121572600,1.355572509765625,-0.07346797179281711,-0.005632927853055298,-0.002552515760716051
1761341819131638800,1.365638671875,-0.0694295100569725,-0.0019306575353257357,0.0024920908103697
1761341819141704700,1.37570458984375,-0.07377016960978508,-0.003979151030350477,-0.0051064288940746334
1761341819151771000,1.38577099609375,-0.06674012484252452,-0.0020585582313127813,-0.0027304478771984575
1761341819161837800,1.395837890625,-0.07167641220092773,-0.00222732066065073,-0.0005567068675765768
1761341819171903700,1.40590380859375,-0.07421966694295407,-0.004913016080670058,-0.000025549999787472187
1761341819181970000,1.415969970703125,-0.07092647061645985,-0.0024390454488806427,-0.00372009366878774
1761341819192035800,1.426035888671875,-0.07302081254720687,-0.003672368369810283,0.002432921668770723
1761341819202101800,1.436101806640625,-0.07077566396892071,0.0024519962619990107,0.003647635787352919
1761341819212169000,1.4461689453125,-0.07077391040325165,0.0001232427871786058,0.01115959145319648
1761341819222234600,1.456234619140625,-0.07316285136640072,-0.006512450633943081,0.002685581255587749
1761341819232300800,1.46630078125,-0.06792495071291924,0.004075268348585814,0.00557969526189845
1761341819242366700,1.47636669921875,-0.06597673925459384,-0.001734148582536727,-0.0035267676203511655
1761341819252433000,1.486432861328125,-0.0638829818457365,-0.003647306993789971,0.003482750382111408
1761341819262498800,1.496498779296875,-0.06373100615441799,-0.008669847863540053,0.005456557505996898
1761341819272565800,1.506565673828125,-0.06777472858726978,-0.002556717011798173,0.0016906291012186556
1761341819282632000,1.5166318359375,-0.07121347086429596,-0.002837324051465839,-0.0037461596918059513
1761341819292697900,1.52669775390625,-0.06433131013512611,-0.004748071309924125,0.0020417349606752394
1761341819302763800,1.536763671875,-0.06268412744998932,-0.005835172426886856,0.0018919603595975785
1761341819312829700,1.54682958984375,-0.06867080064415931,-0.004602105234283954,0.0016933918804628773
1761341819322896600,1.556896728515625,-0.06388473541140556,-0.0043854302763007575,-0.006666065726499073
1761341819332962800,1.566962890625,-0.07121873156130314,0.0022133834668435154,-0.0043490026894723996
1761341819343028700,1.57702880859375,-0.07002455334067344,0.0013231566288508475,-0.0008170839699683711
1761341819353095000,1.587094970703125,-0.0778039551705122,0.0020009462925605474,0.006418013816140592
1761341819363160800,1.597160888671875,-0.06777882024049758,0.005412946693133563,0.0013017485146410762
1761341819373227000,1.60722705078125,-0.06732815386354923,0.0009885361133143305,0.005970850003953091
1761341819383294000,1.6172939453125,-0.07226677930951118,0.006070424221176654,0.008176031898031942
1761341819393360000,1.62735986328125,-0.063887658020854,0.002062558552995324,0.0030339745681500063
1761341819403426000,1.637426025390625,-0.07271978377401829,-0.00198428741870448,-0.003505432571377605
1761341819413491700,1.64749169921875,-0.06569149257242679,-0.001173993949126452,0.0002902516508474946
1761341819423557600,1.6575576171875,-0.06913549554646015,0.0017758505661040543,-0.003510738934157416
1761341819433624800,1.667624755859375,-0.07527005277872086,-0.0048624549372121685,-0.002350280320039019
1761341819443690800,1.677690673828125,-0.07332242584228515,0.0032655959335155782,0.0010549935122253372
1761341819453757000,1.6877568359375,-0.06299684666097163,0.006402432654518633,0.002579778226977214
1761341819463822800,1.69782275390625,-0.07033318089842797,0.0031165063190273937,-0.002505680944304913
1761341819473888800,1.707888671875,-0.07976151897907256,0.004664028021972627,0.003923183059412986
1761341819483956000,1.7179560546875,-0.06524959402382373,-0.0012091748603619635,-0.0021165126633597535
1761341819494022000,1.72802197265625,-0.05716740985512733,0.005008494078088552,0.0014946270385058596
1761341819504087800,1.738087890625,-0.0646539662182331,0.006848788182530552,0.00521499470192939
1761341819514153700,1.74815380859375,-0.07078969249427318,0.0013442724821157753,0.0019070985632250084
1761341819524219600,1.7582197265625,-0.07153437338173389,-0.004595291901007294,-0.0025551506757969036
1761341819534285800,1.768285888671875,-0.07527531347572804,-0.002056147078517824,0.0028592070897109803
1761341819544352800,1.778352783203125,-0.07796762129962444,0.00015504443123936652,-0.0012987574065336956
1761341819554418700,1.788418701171875,-0.07063537871539592,-0.00017475377870723605,-0.000386359835928306
1761341819564484900,1.79848486328125,-0.06988952878415584,-0.004912303694617003,0.00408818719566334
1761341819574550800,1.80855078125,-0.06779401780962943,-0.0014621632407419384,0.0035895078253699465
1761341819584617000,1.818616943359375,-0.058814592540264124,0.0005877550263889133,0.004419337112479843
1761341819594684000,1.828683837890625,-0.0646539662182331,-0.0028276063750497997,-0.010210122408368624
1761341819604749800,1.838749755859375,-0.06271218450069427,0.004220850831735879,0.005641563250659965
1761341819614815700,1.848815673828125,-0.07363514505326747,-0.0013243987378664314,-0.005130622620414942
1761341819624881700,1.858881591796875,-0.06809796919226646,-0.0022313757812604308,-0.0010483537088846787
1761341819634947800,1.86894775390625,-0.06406009197831153,-0.0022557978364638985,0.001768571441946551
1761341819645013800,1.879013671875,-0.06675999858677387,-0.0024369082907214758,-0.0007914243723265826
1761341819655080700,1.889080810546875,-0.06721300305128097,-0.0032832046554423866,0.006323234505043364
1761341819665147000,1.89914697265625,-0.07185235328972339,-0.000759056472685188,0.00413447858938016
1761341819675212800,1.909212890625,-0.07379939570426941,-0.0006851509862579405,0.008389450886426493
1761341819685279000,1.919279052734375,-0.06646189242303371,-0.0057128977540880435,0.0008400629867566749
1761341819695345000,1.929344970703125,-0.06900397812128066,0.004047558357752859,-0.00005822386010549962
1761341819705411800,1.939411865234375,-0.07827800242304801,0.0004401084503158927,0.0029034069910412654
1761341819715477800,1.949477783203125,-0.073337623411417,0.01097092788014561,0.007571389668923802
1761341819725543700,1.959543701171875,-0.0728892951220274,0.0020442922439426183,-0.0008300850154366343
1761341819735609900,1.96960986328125,-0.06735796447992325,-0.004444339122995734,-0.0051523914942285046
1761341819745675800,1.97967578125,-0.06107727677524089,0.004247263914626091,-0.00009776585262734443
1761341819755742000,1.989741943359375,-0.08128186041414737,0.003807776518817991,0.007309615193889476
1761341819765809000,1.999808837890625,-0.07110358074903488,-0.0013910707659088074,0.003327655718522146
1761341819775874800,2.009874755859375,-0.06242459973096847,0.0029654256768524645,-0.004739225849765352
1761341819785941000,2.01994091796875,-0.07020750869214534,0.00003817658592015505,-0.0013506885231705382
1761341819796007000,2.0300068359375,-0.06975976492464542,0.004974756205268204,0.0065600069695618
1761341819806072800,2.04007275390625,-0.07230594227612018,0.0014424904258921742,-0.0035936725438339636
1761341819816140000,2.05014013671875,-0.06991232513785361,0.00014083324279636145,-0.0038572279840009284
1761341819826205700,2.060205810546875,-0.07141045474112033,-0.0056305532328784465,0.004523834099993109
1761341819836271900,2.07027197265625,-0.06542378154695033,-0.001318224725406617,0.0021570136371068657
1761341819846337800,2.080337890625,-0.07709551464021205,0.0021156404471024868,0.003772924401145428
1761341819856403700,2.09040380859375,-0.07499708105623722,0.0004858655544929206,-0.007682649757363833
1761341819866470000,2.100469970703125,-0.0688631083458662,-0.0024801446442492305,0.010719665665971115
1761341819876536800,2.110536865234375,-0.07036065342724322,0.004281805505044758,0.006588036620803177
1761341819886602800,2.120602783203125,-0.0723094494074583,0.004429251151718199,0.003137092449329793
1761341819896669000,2.1306689453125,-0.06961538801789284,0.0027766616391018033,0.00105141788222827
1761341819906734600,2.140734619140625,-0.07919394822418689,0.008662139481119812,-0.0012238975054584442
1761341819916800800,2.15080078125,-0.06887012260854244,-0.002370254528988153,0.00036251773603726176
1761341819926867700,2.16086767578125,-0.06797288150787353,0.003286346460599452,0.005392776121362112
1761341819936933600,2.17093359375,-0.07111293309926986,0.0037906609872356053,-0.004152594201383181
1761341819946999800,2.180999755859375,-0.06228314543366432,0.0019396628256887196,-0.0004930305142188445
1761341819957065700,2.191065673828125,-0.07051672077178954,-0.0037737646513618527,-0.008323039153288117
1761341819967132000,2.2011318359375,-0.06513093608021736,-0.001162084315624088,0.0007069518261123448
1761341819977197800,2.21119775390625,-0.07171206803619862,-0.0016861264560371636,0.003404492947552353
1761341819987264800,2.2212646484375,-0.07664777087271213,-0.0014550028475932776,0.014138141473103313
1761341819997331000,2.2313310546875,-0.06871873143911361,-0.003316211875900626,-0.0021366375693585723
1761341820007396900,2.24139697265625,-0.07544891647696494,0.003391688264906406,-0.0051586111724609505
1761341820017462800,2.251462890625,-0.07155658521354198,-0.004447791455406695,-0.0010843748703366146
1761341820027528700,2.26152880859375,-0.07709317655265331,0.005260441278852522,-0.0007052621925249695
1761341820037595600,2.271595703125,-0.06602350100576877,0.006299319339916109,-0.0012166275144554674
1761341820047661800,2.281661865234375,-0.07066168220043181,-0.000006959463749080896,-0.002091464987071231
1761341820057727700,2.291727783203125,-0.07111351762115956,0.0016042568588629364,0.0029516026474768293
1761341820067794000,2.3017939453125,-0.06602759265899658,-0.003421992071624845,0.006061227134568616
1761341820077859800,2.31185986328125,-0.06887304521799087,0.005791315018851309,-0.0038593012100784107
1761341820087926000,2.321926025390625,-0.07276771456897259,0.000586165857501328,-0.002753573024459183
1761341820097993000,2.331992919921875,-0.06034837797880172,0.000023307810351252554,0.0008537946845870465
1761341820108059000,2.342058837890625,-0.06169511641263961,0.002089117766357958,0.004154119438189082
1761341820118124800,2.352124755859375,-0.08069967661201953,0.0007582892877049744,0.005676342303096316
1761341820128190700,2.362190673828125,-0.06812544172108173,-0.0007866020667366683,-0.0032289126183604818
1761341820138257000,2.3722568359375,-0.07111819379627704,-0.007535729267075657,0.00166188249734696
1761341820148323800,2.38232373046875,-0.07770224836170674,-0.0009565518061630427,0.0036588741339975968
1761341820158389800,2.3923896484375,-0.07231880175769329,0.0013448752703145146,-0.0018898369011702014
1761341820168456000,2.4024560546875,-0.06693243254423141,-0.0030702194918878377,0.001495362257445231
1761341820178521900,2.41252197265625,-0.0681312869399786,-0.0025701062163338063,0.0005136577437166124
1761341820188587800,2.422587890625,-0.06678396398425102,-0.004545790203474462,0.0006551668399479239
1761341820198654000,2.432654052734375,-0.06334113005399704,-0.006674417996313423,-0.010652358883689157
1761341820208721000,2.442720947265625,-0.07905366297066212,-0.0033660241006873547,-0.0092610460891854
1761341820218786800,2.452786865234375,-0.07127075400948524,0.0039123511381447314,-0.003923881745734252
1761341820228852700,2.462852783203125,-0.07306932786405086,-0.0019595183036290108,-0.000226438300171867
1761341820238918700,2.472918701171875,-0.07396423087716102,0.006474164450168609,0.007546524655725807
1761341820248984800,2.48298486328125,-0.0714162999600172,0.0004884411040693521,-0.0029665125222411003
1761341820259051800,2.4930517578125,-0.06797346602976322,-0.004053677571285516,-0.0019232596801593898
1761341820269118000,2.503117919921875,-0.06707388684153556,-0.0027993483949452637,-0.00603171791229397
1761341820279184000,2.513183837890625,-0.06841770266592502,-0.0024437764229252932,-0.011633309912169352
1761341820289249800,2.523249755859375,-0.06527589750885963,-0.006158266901411116,0.007282293362123891
1761341820299316000,2.53331591796875,-0.06227788473665714,0.003393935020919889,-0.0006552536049159244
1761341820309381600,2.543381591796875,-0.06182488027215004,-0.0003768339557573199,-0.004275750223593786
1761341820319448800,2.55344873046875,-0.0651157385110855,0.0046569224277511236,0.003355498140095733
1761341820329514800,2.5635146484375,-0.06586509557366371,0.008122881505265831,-0.00001757675588596612
1761341820339580700,2.57358056640625,-0.06870996361076831,0.005056607536133378,0.0011221404643030836
1761341820349646800,2.583646728515625,-0.06945756710767746,0.0015724917474202811,-0.0005718724706675857
1761341820359712800,2.593712646484375,-0.06736614778637885,-0.001149918953794986,0.004145890465960838
1761341820369779700,2.60377978515625,-0.06766834560334682,0.005713573607522994,0.005938144177594222
1761341820379846000,2.613845947265625,-0.0688631083458662,0.0033686361828818914,0.0016004802994662895
1761341820389911800,2.623911865234375,-0.07170739186108112,0.0020926796966232357,0.0035159265659283844
1761341820399978000,2.63397802734375,-0.06677168902456761,0.005760225760843604,-0.003082293522171676
1761341820410043600,2.644043701171875,-0.07395078687369823,0.0003872274856083095,0.00012103256378322838
1761341820420109800,2.65410986328125,-0.07095628123283386,0.002106653423048556,0.006594324797694571
1761341820430176800,2.6641767578125,-0.07005611752271652,0.002338233689218759,0.0053837753975763914
1761341820440242700,2.67424267578125,-0.06766133134067058,-0.007258428429346531,0.00927632585670799
1761341820450308900,2.684308837890625,-0.054795420026779174,-0.003511789246927947,0.00591567205088213
1761341820460374800,2.694374755859375,-0.06737140848338603,0.003326897666696459,0.0035802696395665404
1761341820470441000,2.70444091796875,-0.06722352444529534,0.00890299903228879,0.014884265398979185
1761341820480508000,2.7145078125,-0.07321195120513439,-0.001426306476071477,0.005491226960578933
1761341820490573800,2.72457373046875,-0.07246317866444588,-0.00007355842655524611,0.004997817420447245
1761341820500640000,2.734639892578125,-0.06722293992340564,0.004893124070111662,-0.004570824180031195
1761341820510705700,2.74470556640625,-0.061685179540514945,0.0024591201225295663,-0.0014799500591820105
1761341820520771800,2.754771728515625,-0.06737199300527572,0.005945665330346674,0.010685462002269924
1761341820530838800,2.7648388671875,-0.06528115820586682,0.006863364697154611,0.004517230829270556
1761341820540904700,2.77490478515625,-0.063486676004529,-0.0037578729624859987,0.009326252245926297
1761341820550971000,2.784970947265625,-0.06602934622466564,0.006355597838107496,0.010176544365752488
1761341820561036800,2.795036865234375,-0.06542787320017815,0.0002542122230865061,0.0022856449854560196
1761341820571103000,2.80510302734375,-0.06333177770376205,-0.005919873301964253,-0.004421652367152274
1761341820581169000,2.8151689453125,-0.07096446453928947,-0.005260806605033576,-0.001260434690141119
1761341820591235800,2.82523583984375,-0.06288403393626213,-0.00017131971260532736,-0.0032027278643334284
1761341820601302000,2.835302001953125,-0.06198796187937259,0.002439337709825486,0.003657262132223695
1761341820611367700,2.84536767578125,-0.06004501111805439,-0.002399480623472482,0.0003763133659493178
1761341820621433900,2.855433837890625,-0.06693360158801079,-0.0006513035155832767,0.0021342355497181416
1761341820631499800,2.865499755859375,-0.06648468877673148,0.004268416300509125,0.0011273052631877362
1761341820641565700,2.875565673828125,-0.06423837115466595,0.004332457980047911,-0.0059518165099201725
1761341820651633000,2.8856328125,-0.06304302389025687,-0.003983772406540811,0.0012278338950593023
1761341820661698800,2.89569873046875,-0.0706716190725565,-0.0025725356354378164,0.008807959426287561
1761341820671764700,2.9057646484375,-0.07037818908393383,0.0000681150664575398,0.0017710739262867719
1761341820681831000,2.915830810546875,-0.07306991238594054,0.007628248122427612,0.0021257417160086335
1761341820691896800,2.925896728515625,-0.06918284181952476,0.00044785336535423993,-0.004149073370313272
1761341820701963800,2.9359638671875,-0.07217793198227881,0.0008394282325170934,0.0032805332077434283
1761341820712030000,2.946030029296875,-0.06275485459864139,0.002661017636489123,0.0029028224691515785
1761341820722095600,2.956095703125,-0.06080839670598506,-0.0005131006212905049,-0.00005370294861495495
1761341820732161800,2.966161865234375,-0.07682254291772841,0.003055642977263778,-0.0027463989315787327
1761341820742227700,2.976227783203125,-0.06859072114527225,-0.003458177629858255,0.0034951395062264054
1761341820752294000,2.9862939453125,-0.06888999635279178,-0.008577055013552307,-0.008131800030660816
1761341820762360800,2.99636083984375,-0.06978957554101943,-0.007314396400284022,-0.0015306801659986376
1761341820772426800,3.0064267578125,-0.06529986290633678,0.001953928813058883,0.01402456156341359
1761341820782493000,3.016492919921875,-0.06096095691919327,-0.00042960532261058685,0.005312705755629576
1761341820792558600,3.02655859375,-0.06470072796940803,0.0027906718981452285,0.006625272491807117
1761341820802624800,3.036624755859375,-0.06754442696273326,0.0011708521439693868,-0.0013077992295147851
1761341820812691700,3.046691650390625,-0.06350479618310928,0.0010254523239098489,-0.0025905233832774683
1761341820822757600,3.056757568359375,-0.07068681664168834,0.008923840890917927,-0.002248185352166183
1761341820832823800,3.06682373046875,-0.06380348686873913,-0.0003200622672215104,0.003871946062520146
1761341820842889700,3.0768896484375,-0.0652986938625574,-0.0008655855870805681,-0.006147366481483914
1761341820852956000,3.086955810546875,-0.06649462564885616,-0.001280212536267936,-0.004415400722878985
1761341820863021800,3.097021728515625,-0.06694646106958389,-0.00431773533495143,-0.0006278769742231816
1761341820873088800,3.1070888671875,-0.07203121698796748,-0.005774162954650819,0.002272689605760388
1761341820883155000,3.117155029296875,-0.07083879233300686,-0.0030199871419928966,-0.0024789071018109098
1761341820893220600,3.127220703125,-0.07114157467186451,0.0010108758092857897,-0.0005584421669365838
1761341820903286800,3.137286865234375,-0.06725684219300747,-0.002963343317620456,0.0016627501470269635
1761341820913352700,3.147352783203125,-0.06411562155783176,0.0032161125022917986,-0.003862936205579899
1761341820923419600,3.157419677734375,-0.06291852072775364,-0.00006049801558256149,-0.0005192335345549509
1761341820933485800,3.16748583984375,-0.06037585050761699,0.001171272269077599,0.007106060012383386
1761341820943551700,3.1775517578125,-0.07533902636170386,0.009391988125629722,0.001028977721557021
1761341820953618000,3.187617919921875,-0.06546352903544903,0.004763889933563768,0.0027237669746624305
1761341820963683800,3.197683837890625,-0.07638532054424285,-0.007899630676023662,-0.004423739292961545
1761341820973749800,3.207749755859375,-0.07324526895284653,0.006546517300326377,0.0034477019016165285
1761341820983817000,3.21781689453125,-0.07713760021626949,0.009454276239499449,0.015845356382941825
1761341820993883000,3.2278828125,-0.06201894153952598,0.0009789645673707126,-0.002070486131124198
1761341821003948800,3.23794873046875,-0.07458440860211848,0.0018545966244302688,0.006204161002906039
1761341821014014700,3.2480146484375,-0.0708417149424553,0.0009032507163472473,-0.005120443719695322
1761341821024080600,3.25808056640625,-0.06336334188580513,-0.00419763435292989,0.0003887572889914736
1761341821034147800,3.26814794921875,-0.07054886947572231,0.0017351349632255732,0.002057544451160356
1761341821044213800,3.2782138671875,-0.06860416514873505,-0.0013818462798371911,-0.005269469402101822
1761341821054279700,3.28827978515625,-0.07264262688457965,-0.0015981011127121747,-0.0008833541392115875
1761341821064345900,3.298345947265625,-0.0690507398724556,0.0041661797687411305,0.007520065907062962
1761341821074411800,3.308411865234375,-0.06650690060853957,0.005478614074178039,-0.005050648152804933
1761341821084477700,3.318477783203125,-0.06755436383485794,0.006345222574565559,0.000043556013936176893
1761341821094545000,3.328544921875,-0.06455985819399357,0.005350092323683202,-0.001968295265128836
1761341821104610600,3.338610595703125,-0.06815525233745574,0.0095416987946257,-0.00009926825654692948
1761341821114676700,3.3486767578125,-0.07803133418560028,0.0016118008445017038,0.0000190152277238667
1761341821124742700,3.35874267578125,-0.06890285583436488,0.0014563180218450725,0.0045486580139957366
1761341821134808800,3.368808837890625,-0.056932432055473325,0.0016114355183206497,0.0015654546518577262
1761341821144875800,3.378875732421875,-0.06725216601788997,-0.004137373799365013,0.0075091243879403914
1761341821154941700,3.388941650390625,-0.06979191362857819,-0.0020559461491182446,-0.0015697792005259542
1761341821165008000,3.3990078125,-0.062008420145511625,0.002319711651839316,0.002599135947995819
1761341821175073800,3.40907373046875,-0.0660480509251356,0.0036166378608904776,0.0028392054812982678
1761341821185140000,3.419139892578125,-0.06784253312647343,0.002046429402101785,-0.005039729466568678
1761341821195205600,3.42920556640625,-0.06843991449773311,-0.001589881273638457,-0.0014678166633937508
1761341821205272600,3.4392724609375,-0.06978782197535037,-0.004826945232413709,0.002303500302555039
1761341821215338800,3.4493388671875,-0.07293021165430545,-0.003484152321331203,0.003035212110588327
1761341821225404700,3.45940478515625,-0.07562251947820187,0.005147920815087854,-0.0025125490765087305
1761341821235470800,3.469470947265625,-0.06784077956080437,0.0010653276765719055,-0.0028946071966551245
1761341821245536800,3.479536865234375,-0.07068564759790896,-0.0012990085682831705,0.002081158222188242
1761341821255603700,3.489603759765625,-0.06694353846013545,0.004181121609546244,-0.004398303457605652
1761341821265670000,3.499669921875,-0.0751724376231432,0.0074208524494431905,0.0012429172997595742
1761341821275735800,3.50973583984375,-0.05602583860456943,0.00230522646876052,0.005229320054803975
1761341821285802000,3.519802001953125,-0.06829729115664959,0.0036661212921142577,-0.0029875827097333965
1761341821295867600,3.52986767578125,-0.06844517519474029,0.0005946779575198888,-0.009769621232408099
1761341821305933800,3.539933837890625,-0.07473287716209888,0.001296926209051162,-0.005658039461425506
1761341821316000800,3.550000732421875,-0.07233750645816325,0.006908683409914374,-0.0029002195201115683
1761341821326066700,3.560066650390625,-0.06231587865948677,0.006606339462473988,-0.0059545610228553415
1761341821336132900,3.5701328125,-0.059327802759408944,-0.0050318932199850674,0.0022268183371517807
1761341821346198800,3.58019873046875,-0.07115326510965823,0.003988667777366936,0.005526745798531919
1761341821356264700,3.5902646484375,-0.0650198769211769,-0.0020537176594138144,-0.00024652667355258014
1761341821366332000,3.600331787109375,-0.06875964797139167,0.008334368831478058,-0.00799882586733438
1761341821376397800,3.610397705078125,-0.07354922033548354,-0.00031989787044003605,0.003106857141270302
1761341821386464000,3.620464111328125,-0.06756546975076198,-0.0016430910319089889,0.0038506749456282702
1761341821396529700,3.63052978515625,-0.0747492437750101,0.000629438743647188,-0.0019279815210495144
1761341821406595600,3.640595703125,-0.06681552816629409,0.007051891272887587,-0.007339841368794441
1761341821416661800,3.650661865234375,-0.07818973961770534,0.01126932630483061,-0.002727324338350445
1761341821426728700,3.660728759765625,-0.07280103231668472,0.012100717361364513,0.0006494951509870588
1761341821436795000,3.670794921875,-0.06636427726745606,0.003602901596482843,-0.004031347008468583
1761341821446860800,3.68086083984375,-0.055288171979784966,0.0058721434364095325,-0.003928261093329638
1761341821456926700,3.6909267578125,-0.06621288609802722,0.004610672133229673,0.0004310940267983824
1761341821466993000,3.700992919921875,-0.06276771408021449,0.0037014666001312434,0.0018342205566819756
1761341821477058800,3.711058837890625,-0.07009703405499458,0.005732771498337388,-0.006187547794822603
1761341821487125800,3.721125732421875,-0.058871291163563724,0.0033664076931774613,-0.0022752697219140827
1761341821497191700,3.731191650390625,-0.060519642892479894,0.001203183510992676,-0.00009809921276755631
1761341821507257600,3.741257568359375,-0.07698211739361285,0.002155808060709387,0.005169488759501837
1761341821517323800,3.75132373046875,-0.06920096199810505,0.0012136866386979817,0.001275367397791706
1761341821527389700,3.7613896484375,-0.061117024263739585,0.0004754172257147729,-0.0002602446716511622
1761341821537456600,3.77145654296875,-0.07173895604312419,0.0016856880646198987,-0.0029238652571802956
1761341821547522800,3.781522705078125,-0.0662052873134613,0.006592475333902985,0.0043556516259675845
1761341821557588700,3.791588623046875,-0.06620411826968192,0.0030741832809522748,-0.0034515880588674914
1761341821567655000,3.801655029296875,-0.07084346850812434,-0.002431190935987979,-0.0009262662657536565
1761341821577720800,3.811720947265625,-0.07398468914330006,0.003468370230309665,0.0006287765899440273
1761341821587786800,3.821786865234375,-0.07533142757713794,0.005278543191123753,-0.0017780379566131159
1761341821597853700,3.831853759765625,-0.07009761857688426,0.004804167145024985,-0.00643231633612886
1761341821607919600,3.841919677734375,-0.06770224787294864,0.006601882483065128,0.0017694162587402387
1761341821617985800,3.85198583984375,-0.07084814468324184,0.0030231472134590147,-0.0020824825295945627
1761341821628051700,3.8620517578125,-0.06995441071391105,-0.0032899814561009404,0.008266678456705994
1761341821638118000,3.872117919921875,-0.06412029773294925,-0.0010072956127114593,-0.0016039143655681982
1761341821648184800,3.882184814453125,-0.06142623634338379,0.0011554719117470085,-0.006612353644729591
1761341821658250800,3.892250732421875,-0.07129764201641083,-0.0002421564591117203,-0.003967168331611901
1761341821668317000,3.90231689453125,-0.07099719776511192,0.0039040947664529084,-0.005593335628183559
1761341821678382800,3.9123828125,-0.06785714617371559,0.0007130071075633167,-0.007823647396941668
1761341821688448800,3.92244873046875,-0.0594780248850584,0.0004135309706442058,0.008105597010324709
1761341821698514700,3.9325146484375,-0.06366729326844214,0.0008210523256100714,0.0017364592706318944
1761341821708581600,3.94258154296875,-0.06845628111064433,0.0025956790490075945,-0.005295740921096876
1761341821718647800,3.952647705078125,-0.06561375116109848,-0.004122979947831481,-0.003685885438509285
1761341821728713700,3.962713623046875,-0.06920622269511223,0.00776743739740923,-0.0023839268613141027
1761341821738780000,3.97277978515625,-0.07039981639385223,0.002720602336619049,-0.005854612346296199
1761341821748846300,3.982846435546875,-0.07174538578391075,0.0013121055118739604,-0.0007884469639509916
1761341821758913300,3.992913330078125,-0.06860358062684535,0.001792582505196333,-0.008136713667795992
1761341821768978400,4.002978515625,-0.06591127280294895,0.004188428133167326,-0.004233363253436983
1761341821779044400,4.01304443359375,-0.07428688696026801,0.006697597942501306,0.0019938087322982027
1761341821789110300,4.0231103515625,-0.06964227602481841,0.008270381950866431,-0.0006085923184407874
1761341821799176200,4.03317626953125,-0.06605155805647372,0.006938658423069864,-0.003467598478752188
1761341821809243100,4.0432431640625,-0.0667979925096035,-0.00045203635012730953,0.0025717684504576025
1761341821819309300,4.053309326171875,-0.06679740798771382,0.005792301399540156,-0.005093162987125106
1761341821829375200,4.063375244140625,-0.06964344506859779,-0.005333250786736608,0.000644554114388302
1761341821839441400,4.07344140625,-0.0660527271002531,-0.0017249971617013214,-0.008830006861314178
1761341821849507300,4.08350732421875,-0.06500351030826568,-0.004035813121031969,-0.0008783994028810411
1761341821859573200,4.0935732421875,-0.06470423510074615,0.0022378420546650887,-0.00783775355410762
1761341821869640400,4.103640380859375,-0.062011927276849746,0.0022506467373110354,-0.004666530506312847
1761341821879706400,4.113706298828125,-0.06335515857934951,-0.0032857436724007126,0.0005894857591716572
1761341821889772300,4.123772216796875,-0.06829086141586303,-0.003676898414455354,0.00465208642242942
1761341821899838200,4.133838134765625,-0.07622106989324093,-0.0010200089638121425,0.0011818119294010102
1761341821909904100,4.143904052734375,-0.06424830802679062,-0.0036390506220981477,-0.0038902991365408522
1761341821919971300,4.153971435546875,-0.0649941579580307,0.0010634097141213714,-0.008327614863705821
1761341821930037200,4.164037353515625,-0.056311085286736486,0.0037793724082410335,-0.008506948919408022
1761341821940103200,4.174103271484375,-0.060652329361438745,0.0011486951110884545,-0.004485616414877586
1761341821950169300,4.18416943359375,-0.06604220570623874,-0.00021811799639835953,-0.00487988099604845
1761341821960235300,4.1942353515625,-0.06783785695135593,0.002144373351242393,-0.008748210329376161
1761341821970301400,4.204301513671875,-0.0730716659516096,-0.002779657313786447,-0.000973018883774057
1761341821980368400,4.214368408203125,-0.06738543700873852,-0.0025085670211352404,-0.005809174902527593
1761341821990434000,4.22443408203125,-0.06170271519720554,0.0030611959352158007,0.0007001795920310542
1761341822000500200,4.234500244140625,-0.0652905105561018,0.004247282180935144,-0.007796088103158399
1761341822010566100,4.244566162109375,-0.06888181304633617,0.0010943711079657078,-0.008771623171004467
1761341822020632300,4.25463232421875,-0.0730716659516096,-0.00067934229997918,0.006374827694962732
1761341822030699300,4.26469921875,-0.07337327924668788,0.0013250197923742233,0.001205923457350582
1761341822040765200,4.27476513671875,-0.06574351502060889,0.0007949132373556494,-0.011899555066344327
1761341822050831400,4.284831298828125,-0.06963643080592155,0.005374678775668144,-0.010101611399441025
1761341822060897300,4.294897216796875,-0.07128010635972022,-0.0027994762591086325,-0.009515281145158223
1761341822070963500,4.30496337890625,-0.06380231782495975,-0.0012989172367379067,-0.004898439566045999
1761341822081029000,4.315029052734375,-0.06424830802679062,0.0074330543438903985,-0.007166179002053104
1761341822091096000,4.325095947265625,-0.05796586675643921,-0.0021862579979002473,-0.007597743386309593
1761341822101162200,4.335162353515625,-0.05736614729762077,-0.0019315891170874238,-0.0028040565361035987
1761341822111228200,4.345228271484375,-0.059760933479666704,0.007624010338727384,-0.0013000771473627537
1761341822121294300,4.35529443359375,-0.07577215708196162,0.0026950843028724194,-0.00039243338368833065
1761341822131360300,4.3653603515625,-0.06888882730901241,-0.001960851744189858,-0.004471523957443423
1761341822141426400,4.375426513671875,-0.06605097353458404,0.0013904314450919628,-0.008003351345402188
1761341822151493400,4.385493408203125,-0.0721872843325138,0.0047180780304595825,0.00042860524218995123
1761341822161559300,4.395559326171875,-0.06276128433942794,0.0007006042837165296,0.0012782991403946652
1761341822171626200,4.405626220703125,-0.07308452543318271,-0.004760912525188178,0.0007858759809518232
1761341822181692400,4.4156923828125,-0.06231120248436928,0.00498087541880086,-0.0025022057790076357
1761341822191758300,4.42575830078125,-0.06934066272974014,0.006478000375069678,-0.006280377177428454
1761341822201824300,4.43582421875,-0.08131284007430076,-0.003200567873287946,-0.011380421996489167
1761341822211890200,4.44589013671875,-0.06949205389916896,-0.008719020767509937,-0.003251891635148786
1761341822221956400,4.455956298828125,-0.06740005005598068,0.0015724004158750176,-0.008849314349982887
1761341822232023300,4.466023193359375,-0.06440846702456474,0.003867361218947917,-0.00435624984758906
1761341822242089200,4.476089111328125,-0.054981297987699504,-0.004512490722071379,-0.0034195626525208352
1761341822252155400,4.4861552734375,-0.07503098332583903,0.0008319025131873786,-0.006961696805362589
1761341822262221300,4.49622119140625,-0.06455752010643481,0.005222337758168578,-0.0033098825998138636
1761341822272287500,4.50628759765625,-0.059174658024311065,0.001208024082891643,-0.0004896147144259885
1761341822282354400,4.5163544921875,-0.07309329326152801,0.006256704040896147,0.0013202111865160985
1761341822292420400,4.52642041015625,-0.06710837363302707,-0.0012227832606062292,-0.000960775890131481
1761341822302486300,4.536486328125,-0.06651216130554675,-0.006070405954867601,0.0010946177031379192
1761341822312552200,4.54655224609375,-0.06576338876485824,-0.0008411817981861531,-0.00002672361014410853
1761341822322618400,4.556618408203125,-0.054990065816044806,-0.0036953473865985868,-0.005088765373220667
1761341822332684300,4.566684326171875,-0.06412146677672863,0.009476816864870488,-0.0010890053796814754
1761341822342751200,4.576751220703125,-0.06785831521749495,-0.002227704253140837,-0.002326337755448185
1761341822352817400,4.5868173828125,-0.0678565616518259,-0.0012907339302822946,-0.003790619888040237
1761341822362883300,4.59688330078125,-0.062168579143285746,0.00535966386962682,-0.005259454898163676
1761341822372949200,4.60694921875,-0.06979951241314411,-0.0007741992428898811,0.002712268333113752
1761341822383015400,4.617015380859375,-0.0677040014386177,-0.005124247678555548,-0.010357924248068593
1761341822393082400,4.627082275390625,-0.06516074669659137,0.0029843313067220148,0.0006669577424414456
1761341822403148300,4.637148193359375,-0.0699479809731245,0.0016175547318533063,0.0007875290819210931
1761341822413214200,4.647214111328125,-0.07114566632509231,-0.0022346819831989702,-0.0039016196815762666
1761341822423280000,4.657280029296875,-0.06396072325706481,0.0060718489932827645,-0.006716311776125803
1761341822433346300,4.66734619140625,-0.07099485967755317,-0.002402932955883443,0.001271202679327689
1761341822443412200,4.677412109375,-0.06725684219300747,0.002179316800460219,-0.010936523287044838
1761341822453479200,4.687479248046875,-0.059628247010707854,-0.003960446329880505,-0.012561270378087647
1761341822463545300,4.69754541015625,-0.06606032588481903,0.004037785882409662,-0.005942834052443504
1761341822473611300,4.707611328125,-0.053343467652797696,-0.0004091653227806091,-0.0028218661874299866
1761341822483677400,4.717677490234375,-0.06037701955139636,0.0037756460811942815,-0.003979278894513845
1761341822493743000,4.7277431640625,-0.07279577161967754,-0.0020058599296957254,-0.008368006239598616
1761341822503810000,4.73781005859375,-0.0693511841237545,-0.0014676796660758554,0.0017245861697476356
1761341822513876200,4.747876220703125,-0.07054653138816357,0.0005931618538685142,0.005253271752549335
1761341822523942100,4.757942138671875,-0.053933834761381146,-0.007192761048302054,0.0004929757152916863
1761341822534008300,4.76800830078125,-0.0662052873134613,-0.001639346438553184,0.00038484829885419456
1761341822544074200,4.77807421875,-0.06919687034487725,0.005332976792100817,0.00024176830004435032
1761341822554140400,4.788140380859375,-0.06276420694887638,-0.004776694616209715,-0.0009562915112590417
1761341822564207400,4.798207275390625,-0.06695230628848076,-0.003051313862018287,-0.0026622232128866016
1761341822574273300,4.808273193359375,-0.0667979925096035,0.0033056904818862675,-0.007323935980186797
1761341822584339500,4.81833935546875,-0.06500058769881725,0.005012823193334043,-0.0060647890648338944
1761341822594405000,4.828405029296875,-0.06140986973047256,0.005936696572601795,-0.0023374436713522297
1761341822604471300,4.83847119140625,-0.06021510698795318,0.004880538583174348,-0.008279168045520782
1761341822614537200,4.848537109375,-0.06215513513982296,0.007703852375596761,-0.00275220305128023
1761341822624604200,4.858604248046875,-0.07188333294987678,0.002072751153446734,0.00033864367010537534
1761341822634670300,4.86867041015625,-0.06814940711855888,0.001742350155301392,-0.007985025670845062
1761341822644736300,4.878736328125,-0.06306231311261654,-0.0023011530818417667,-0.011357196384528652
1761341822654802400,4.888802490234375,-0.06455635106265545,0.005551514913607388,-0.00639712172516156
1761341822664868400,4.898868408203125,-0.06844809780418873,0.003809128225687891,-0.00966307841828093
1761341822674935300,4.908935302734375,-0.057525721773505206,0.0028023440696299073,0.0015564539280720055
1761341822685001500,4.91900146484375,-0.05977087035179138,0.0006081584936007857,-0.001986940600094385
1761341822695067100,4.929067138671875,-0.07054945399761199,0.00767623371630907,-0.00513223005561158
1761341822705133300,4.93913330078125,-0.07219546763896942,0.002705295169632882,-0.0049646869024029
1761341822715199200,4.94919921875,-0.05962473987936973,-0.0008924187950789928,-0.007854791453876532
1761341822725265200,4.95926513671875,-0.07264262688457965,0.0002795293274335563,-0.0027657475194428115
1761341822735332400,4.969332275390625,-0.07279167996644974,-0.0003642119362019002,0.0011042440480086952
1761341822745398000,4.97939794921875,-0.06964929028749466,0.0013143157352693377,-0.007289654684672132
1761341822755464000,4.9894638671875,-0.06470832675397396,-0.0005806859647855162,-0.006631295807217248
1761341822765529900,4.99952978515625,-0.06680033059716224,0.003801730370521545,-0.005958675508969463
1761341822775595800,5.009595703125,-0.06306114406883716,0.001362593590095639,0.003844770361226983
1761341822785663000,5.0196630859375,-0.06590192045271397,0.00022940657539293168,-0.003534749997407198
1761341822795729000,5.02972900390625,-0.06964519863426685,0.004817318887542933,-0.004661899996967986
1761341822805795000,5.039795166015625,-0.062166241055727,0.005812613535206765,-0.007074267501477152
1761341822815861000,5.049861083984375,-0.05707914704978466,0.0019656923160888255,-0.009711461304384283
1761341822825927000,5.059927001953125,-0.06770107882916927,0.006246566239371896,-0.007964873365382664
1761341822835993000,5.0699931640625,-0.0688935034841299,-0.0018769911193288861,-0.0055717220179969445
1761341822846060000,5.08006005859375,-0.07098433828353881,0.008486782914213835,-0.000995559509145096
1761341822856126000,5.0901259765625,-0.06709317606389523,0.005349087676685303,-0.002982911101193167
1761341822866192000,5.10019189453125,-0.06379881069362163,0.004772310702037066,-0.0027058614252135154
1761341822876257800,5.1102578125,-0.06739245127141476,-0.0006734605484642088,0.0031956451029982414
1761341822886324000,5.120323974609375,-0.07233107671737671,0.004588679497130215,-0.0011630478634266181
1761341822896390000,5.130389892578125,-0.06679565442204476,0.0001742971209809184,0.0011574035739293322
1761341822906456800,5.140456787109375,-0.06768880386948585,-0.00573737460821867,0.00006674965985585004
1761341822916523000,5.15052294921875,-0.06993278340399264,-0.005035564748104662,-0.004318278757645748
1761341822926589000,5.1605888671875,-0.06678864015936851,0.0026816950983367858,-0.008474457722180523
1761341822936655000,5.170655029296875,-0.06977846962511539,0.0007648834252730011,-0.01160751788378693
1761341822946720800,5.180720703125,-0.06334405266344546,-0.004170125291496515,-0.006276714782463387
1761341822956787700,5.19078759765625,-0.07157412087023257,0.00012220160756260155,-0.007023409530497155
1761341822966854000,5.20085400390625,-0.06379413451850414,-0.00004139145631343126,-0.0026144431149819863
1761341822976919800,5.210919921875,-0.06169745450019836,0.0029954189563170075,-0.008053264034888707
1761341822986986000,5.220986083984375,-0.06244622704088688,-0.006134264971315861,-0.004488922616816125
1761341822997052000,5.231052001953125,-0.07665887678861617,-0.00986406261678785,-0.003773248628131114
1761341823007118000,5.2411181640625,-0.0783089820832014,-0.004344933869130909,-0.0014701867169933393
1761341823017185000,5.25118505859375,-0.07053016477525234,-0.003515424242429435,-0.002005389572237618
1761341823027251000,5.2612509765625,-0.07157704347968101,0.0018757672766223548,-0.006988890772964805
1761341823037317000,5.271317138671875,-0.06005085633695125,0.003969013228826225,-0.004101868661143817
1761341823047382800,5.2813828125,-0.06618833617866039,0.0005008804605342447,-0.0066940268790815025
1761341823057449000,5.291448974609375,-0.06155249307155609,0.00392422423902899,-0.004009445703914389
1761341823067515000,5.301514892578125,-0.0652946022093296,-0.0059086760545149445,-0.0018682598236016929
1761341823077581800,5.311581787109375,-0.059606035178899765,-0.001508121274318546,0.005201687695784494
1761341823087648000,5.32164794921875,-0.0730722504734993,-0.006051244596671313,-0.006348862136644311
1761341823097714000,5.3317138671875,-0.07082476380765437,-0.00225506718410179,-0.0027959234619978814
1761341823107780000,5.341780029296875,-0.07276829909086227,0.00019892010558396578,-0.00541932620157022
1761341823117846000,5.351845947265625,-0.06454115349352359,-0.0032600064429454505,-0.0033114672021241857
1761341823127913000,5.361912841796875,-0.07097381688952445,0.0014610307295806705,-0.005925997082074173
1761341823137979100,5.371979248046875,-0.06588789192736148,0.0036192316767759618,0.0016429175019729882
1761341823148044800,5.382044921875,-0.061249710732698436,0.004511230346746742,-0.010474518098752014
1761341823158111000,5.392111083984375,-0.07247311553657054,0.0019510427362285554,-0.008370193630107678
1761341823168177000,5.402177001953125,-0.06858312236070632,0.0037388760010711847,-0.0030446238263277334
1761341823178242800,5.412242919921875,-0.0625976182103157,-0.0022144429127685726,0.0009119500460335984
1761341823188310000,5.42231005859375,-0.06664426325261592,0.0006049253568984567,-0.005684740238683298
1761341823198376000,5.4323759765625,-0.07068798568546772,-0.0035470797560177743,-0.0034188137338496743
1761341823208441900,5.44244189453125,-0.07368073776066303,0.0006474858569912612,-0.00579072593038436
1761341823218508000,5.452508056640625,-0.07023790383040905,0.0029588680719025433,-0.005504976924718357
1761341823228574000,5.462573974609375,-0.06649930182397365,-0.00011359817599877715,-0.015274881284916773
1761341823238639900,5.472639892578125,-0.0675432579189539,0.004956873488705605,-0.010098222999111749
1761341823248707000,5.48270703125,-0.06649637921452523,0.0012417071567848324,-0.0048977591460337856
1761341823258772700,5.492772705078125,-0.06515197886824607,0.00563314704876393,-0.008790209140465594
1761341823268839000,5.5028388671875,-0.06364975761175155,0.0020789616985246537,-0.008862023134506307
1761341823278904800,5.51290478515625,-0.06634440352320671,-0.00025943638747558,-0.006997827564668841
1761341823288971000,5.522970947265625,-0.06948737772405147,-0.008460187168233097,-0.005528056406206451
1761341823299038000,5.533037841796875,-0.06604746640324592,0.002812006947118789,-0.00470099446491804
1761341823309103900,5.543103759765625,-0.07008651266098022,0.006493636335618794,0.00195993386215996
1761341823319170000,5.553170166015625,-0.07412731248438358,0.003504336592834443,-0.0029941357481060547
1761341823329236000,5.563236083984375,-0.06440028371810913,-0.0017367789310403167,-0.010015723214275202
1761341823339302000,5.573302001953125,-0.06858779853582382,-0.0040665187865495675,-0.0028917211198247967
1761341823349367800,5.583367919921875,-0.06844108354151249,-0.004356752171088009,-0.00639943697983399
1761341823359434800,5.593434814453125,-0.06694879915714264,0.011681359438132494,-0.004742933910503052
1761341823369501000,5.6035009765625,-0.06619885757267474,0.0027707981538958844,-0.005342712734825909
1761341823379566800,5.61356689453125,-0.06814297737777232,-0.002510119657404721,-0.01851776306312531
1761341823389633000,5.623633056640625,-0.07293196521997451,0.002289754904992878,-0.007146519886935129
1761341823399699000,5.633698974609375,-0.06350654974877834,0.0020199615202844143,-0.00670687722750008
1761341823409765000,5.64376513671875,-0.06335925023257732,-0.0077405859231017525,-0.008583539553266017
1761341823419832000,5.65383203125,-0.07368541393578053,0.003727678753621876,-0.009203237787610851
1761341823429898000,5.66389794921875,-0.0684492668479681,0.002918097670096904,-0.0020624443885637446
1761341823439964200,5.673964111328125,-0.06470891127586365,-0.003661920041032135,-0.003923196759144775
1761341823450029800,5.68402978515625,-0.05737842225730419,0.0005991897358559072,-0.0009423040851019323
1761341823460096000,5.694095947265625,-0.07488543737530708,0.009157028592284767,0.00347802397464402
1761341823470163000,5.704162841796875,-0.07324117729961872,0.0021972360496409237,-0.007329014014103449
1761341823480228900,5.714228759765625,-0.07204173838198184,0.0046270570124499494,-0.006880804455722682
1761341823490295000,5.724294921875,-0.06919687034487725,-0.002141505540721118,-0.004275562993925996
1761341823500361000,5.73436083984375,-0.07353343824446201,-0.0015576412381604313,-0.0008055213963380083
1761341823510427000,5.744427001953125,-0.06455576654076575,-0.0031747027796693145,-0.009126039798976852
1761341823520493000,5.7544931640625,-0.06425999846458434,0.002049826935585588,-0.00561977611053735
1761341823530560000,5.76456005859375,-0.0636608635276556,-0.0006743921302258968,0.0002155059142038226
1761341823540626200,5.774626220703125,-0.06680033059716224,-0.005281429267954081,-0.010130189039953984
1761341823550691800,5.78469189453125,-0.056771688535809516,-0.0027239816037937996,0.003327829248458147
1761341823560757800,5.7947578125,-0.062309448918700217,0.00018269962314516305,-0.009304154578549786
1761341823570824000,5.804823974609375,-0.06560322976708412,0.0007128975097090006,-0.00035627522491849954
1761341823580889900,5.814889892578125,-0.05797288101911544,0.0011462291593663395,-0.005933815062348731
1761341823590956800,5.824956787109375,-0.058871291163563724,-0.0012114216163754462,-0.009515536873484961
1761341823601023000,5.83502294921875,-0.0641091918170452,0.0010389511262997985,-0.003859205311955884
1761341823611089000,5.8450888671875,-0.06994038218855858,0.0019343107971362768,-0.0038947652491042387
1761341823621155000,5.855155029296875,-0.07203355507552624,0.0005116210502572357,0.002534505179990083
1761341823631221000,5.865220947265625,-0.06799333977401256,0.004918313310295343,-0.011611824166146107
1761341823641287000,5.875286865234375,-0.06425473776757716,0.0005136303442530334,-0.009737070669676176
1761341823651353900,5.885353759765625,-0.06261106221377849,0.0015038104253821073,-0.005928810093668289
1761341823661419800,5.895419677734375,-0.061118777829408645,0.0019342925308272242,-0.007262702745664864
1761341823671486000,5.90548583984375,-0.058874213773012156,-0.0018540851677767932,-0.006062693005870096
1761341823681552000,5.9155517578125,-0.06561024402976036,0.001975574389286339,0.004647117986367084
1761341823691618000,5.9256181640625,-0.06710662006735801,-0.002092606631387025,-0.0028654861334478482
1761341823701685000,5.93568505859375,-0.06486088696718216,-0.000968023048248142,-0.013864005273417569
1761341823711751000,5.9457509765625,-0.0611205313950777,0.0032395299104973673,-0.009858148899232037
1761341823721817000,5.955817138671875,-0.06830021376609802,-0.0028600838725455105,-0.0012039369962411
1761341823731883000,5.965883056640625,-0.07039397117495537,0.0021491225915960966,-0.0006707662678789347
1761341823741949000,5.975948974609375,-0.05722410847842693,-0.0007549465531483292,-0.008547669088863768
1761341823752015000,5.98601513671875,-0.06425824489891528,-0.0005599902366288005,-0.00808748596489895
1761341823762082000,5.99608203125,-0.08012099994122981,0.0018672186439856885,-0.006694602267816662
1761341823772148200,6.006148193359375,-0.07383855867087841,0.005063219940010458,-0.00742631407584995
1761341823782214100,6.016214111328125,-0.06665478464663029,0.0056187349309213454,-0.0007279900475637987
1761341823792280300,6.0262802734375,-0.06815116068422794,0.006785221427027136,-0.001378425913467072
1761341823802346200,6.03634619140625,-0.06515782408714293,0.0036056050102226435,-0.010694275496387854
1761341823812412200,6.046412109375,-0.06471183388531207,0.005667231981456279,-0.006573697568196803
1761341823822479400,6.056479248046875,-0.07578501656353473,0.0012027816521935164,-0.002009193531097844
1761341823832545000,6.066544921875,-0.06755319479107856,-0.0015687654203735291,-0.0035205159760778766
1761341823842611200,6.076611083984375,-0.0654600219041109,0.003119410662166774,-0.007743704895372502
1761341823852677000,6.086677001953125,-0.06920330008566379,0.0073816346839070315,-0.014416154696885496
1761341823862743000,6.096742919921875,-0.07085223633646964,0.002686663534399122,-0.012292230478627606
1761341823872810200,6.106810302734375,-0.06726268741190433,-0.002344352902751416,-0.003401698202267289
1761341823882876200,6.116876220703125,-0.0681616820782423,0.0033590829032473265,-0.0066238111870829015
1761341823892942000,6.126942138671875,-0.07130699436664581,0.0027492073765955864,-0.004247551608993672
1761341823903008300,6.13700830078125,-0.0608329466253519,0.003978219448588788,0.0021049683560384435
1761341823913074200,6.14707421875,-0.06068272449970245,0.001109751340188086,0.0018347320133354514
1761341823923140000,6.15714013671875,-0.07010872449278831,-0.008367942307516932,-0.003100934290559962
1761341823933207000,6.16720703125,-0.06412146677672863,-0.0019839220925234255,-0.0060141913887578995
1761341823943273000,6.17727294921875,-0.07339899820983409,0.00249276666380465,-0.01537178862101864
1761341823953339100,6.187339111328125,-0.06561492020487784,-0.003183927265740931,-0.003942600145936012
1761341823963405000,6.197405029296875,-0.06292261238098144,-0.0005912256251089274,-0.012861047909106128
1761341823973471200,6.20747119140625,-0.06337386327981949,0.0029386107351630926,-0.01006785982688889
1761341823983537200,6.217537109375,-0.06052841072082519,-0.00151469714557752,-0.011170281810569576
1761341823993604000,6.22760400390625,-0.0698041885882616,0.0020288754791021346,-0.009244094954384491
1761341824003670300,6.237670166015625,-0.06995674880146979,-0.005024294435419142,-0.005640270909294485
1761341824013736200,6.247736083984375,-0.05454290657043457,0.0004938844641670584,-0.0018556743366643785
1761341824023802000,6.257802001953125,-0.06920856078267097,0.00011544307321310043,-0.0028453292614081874
1761341824033868000,6.267867919921875,-0.0739957950592041,0.00018202376971021293,-0.0026434545803349463
1761341824043934200,6.277934326171875,-0.0741483552724123,-0.005088938903156668,-0.003516584153054282
1761341824054001200,6.288001220703125,-0.0614256518214941,0.0036132403274066745,-0.008527032726211473
1761341824064067000,6.298067138671875,-0.060228550991415976,-0.0009991123062558472,-0.0027530889672692863
1761341824074133200,6.30813330078125,-0.07099719776511192,-0.005578147192206233,-0.0062797652560751885
1761341824084199200,6.31819921875,-0.066959320551157,-0.0019112221824936569,-0.01907115002903156
1761341824094265300,6.328265380859375,-0.07983049256205559,-0.00060454176440835,-0.0062860077671939504
1761341824104332300,6.338332275390625,-0.0701005411863327,-0.0012869710706174373,-0.004762136367894709
1761341824114398200,6.348398193359375,-0.06875088014304638,-0.0009560038168914616,-0.012192911989730782
1761341824124464000,6.358464111328125,-0.07264438045024871,0.0027603132924996316,-0.009497179232886992
1761341824134530000,6.368530029296875,-0.06142272921204567,-0.000018375906907021997,-0.00450819357286673
1761341824144596200,6.37859619140625,-0.059328387281298633,0.0016442783419974146,0.0004314502198249101
1761341824154662100,6.388662109375,-0.0558878914386034,0.007401618026010691,-0.002350006325403228
1761341824164729000,6.39872900390625,-0.059032034683227534,0.0022273389269597825,0.006135123487841338
1761341824174795300,6.408795166015625,-0.06517068356871604,-0.004057860556058585,-0.0024358945105690507
1761341824184861200,6.418861083984375,-0.06501636978983878,0.0010226210460066794,-0.015477979808696545
1761341824194927000,6.428927001953125,-0.06846037276387214,-0.00026657851431518794,-0.010471138831577263
1761341824204993300,6.4389931640625,-0.06007832886576652,0.004271959964465349,-0.0028353695563971995
1761341824215059000,6.449058837890625,-0.06516659191548824,0.0067103843588382,-0.009428173683863133
1761341824225126100,6.459126220703125,-0.058281508576869964,-0.00024770941706374284,-0.008156939038494602
1761341824235192000,6.469192138671875,-0.06232406196594238,0.001671641272958368,-0.004059956615022384
1761341824245258000,6.479258056640625,-0.07249766545593739,0.0015944661172106861,-0.005302166095306165
1761341824255324200,6.48932421875,-0.0681616820782423,0.0021680464877747,-0.003076831895764917
1761341824265390000,6.49939013671875,-0.07115209606587887,-0.0028497816742397842,-0.005022983827744611
1761341824275457000,6.50945703125,-0.06561550472676754,-0.00208285242235288,-0.007779123268625699
1761341824285523200,6.519523193359375,-0.06426935081481933,0.0060345491901971395,-0.0007260720851132646
1761341824295589000,6.529589111328125,-0.0727975251853466,0.0037258521227166055,0.0009295679011149332
1761341824305655300,6.5396552734375,-0.05993161387145519,0.00028862594934180377,-0.0027684965989552435
1761341824315721000,6.549720947265625,-0.06337561684548855,-0.0005023052326403557,-0.008100541809294372
1761341824325787100,6.559787109375,-0.07235270402729511,-0.0012877017229795456,-0.004617690962483175
1761341824335854000,6.56985400390625,-0.0774380444675684,0.002218735495395958,-0.011772015129961073
1761341824345920000,6.579919921875,-0.07325228321552277,0.0052311969180591405,-0.001161157300439663
1761341824355986200,6.589986083984375,-0.06726794810891151,-0.0032668197762221094,-0.007014440772752277
1761341824366052000,6.600052001953125,-0.06607201632261275,0.00020903964079916476,-0.008271578394109382
1761341824376118300,6.6101181640625,-0.0650198769211769,-0.005090217544790357,-0.007005928672733717
1761341824386184200,6.62018408203125,-0.06935819838643073,0.002075600697658956,-0.0006005460093030706
1761341824396251100,6.630251220703125,-0.0693552757769823,0.0012274046367965637,-0.0024767060115700587
1761341824406317300,6.6403173828125,-0.06486848575174808,-0.0047894627662375565,-0.005643536012037657
1761341824416383200,6.65038330078125,-0.06770750856995582,0.00392044311305508,-0.006512541965488344
1761341824426449200,6.66044921875,-0.06710778911113739,0.0008979169541038572,-0.0003462287549395114
1761341824436515000,6.67051513671875,-0.0638175153940916,-0.0011139891238883138,-0.0007018007269594818
1761341824446581200,6.680581298828125,-0.06381108565330505,0.0019455080445855855,-0.0040704186435323204
1761341824456648200,6.690648193359375,-0.07009352692365646,-0.0035435178257524967,-0.0018130316381808368
1761341824466714000,6.700714111328125,-0.07204290742576122,-0.002026628723088652,-0.003734039995749481
1761341824476780300,6.7107802734375,-0.06890051774680614,-0.0028014672867953776,-0.004003659850521944
1761341824486846200,6.72084619140625,-0.05468143825829029,-0.003494819845817983,-0.011877918623271397
1761341824496912100,6.730912109375,-0.06859598184227943,0.004068345417454838,-0.006781435734475962
1761341824506979300,6.740979248046875,-0.0647065731883049,0.005011964676808566,-0.004522993849776685
1761341824517045200,6.751045166015625,-0.07368366037011147,0.0003679930621758103,-0.0026258504249854014
1761341824527111200,6.761111083984375,-0.0581231031447649,0.005061155847087502,-0.004171887990320101
1761341824537177000,6.771177001953125,-0.06440729798078537,0.0008557217801921069,0.000925033289892599
1761341824547243000,6.781242919921875,-0.06799743142724037,-0.00030490123070776463,-0.005229036927013658
1761341824557309200,6.79130908203125,-0.0700964495331049,0.005267492074146866,-0.006849824795569293
1761341824567376100,6.801376220703125,-0.06500877100527286,-0.0023817988363094627,0.0008465794925112276
1761341824577442000,6.811442138671875,-0.06351297948956489,-0.005240074344258755,-0.007173581423796713
1761341824587508200,6.82150830078125,-0.06920271556377411,-0.006582027005124837,-0.010296494650724344
1761341824597574100,6.83157421875,-0.06936170551776885,0.0011343195258639751,-0.010248888082755729
1761341824607640300,6.841640380859375,-0.06442600268125534,0.003330039471853524,-0.011249205965409055
1761341824617706000,6.8517060546875,-0.054252399191260334,-0.0004499174582771957,-0.011754333342798054
1761341824627773000,6.86177294921875,-0.05933832415342331,-0.0021578173547051847,-0.004486000007367693
1761341824637839000,6.871839111328125,-0.06457797837257385,0.0021810520998202265,-0.005876760246022604
1761341824647905000,6.881905029296875,-0.06472936954200267,0.000587280102353543,-0.004422058792528696
1761341824657971200,6.89197119140625,-0.062333414316177366,0.004721658227033913,-0.006597576200705953
1761341824668037000,6.902037109375,-0.06607084727883339,0.006267645560018718,-0.010950999336969107
1761341824678103300,6.912103271484375,-0.06577215659320354,-0.001052888320107013,-0.004368835334526375
1761341824688170200,6.922170166015625,-0.07280453944802284,0.004303213619254529,-0.005622520623472519
1761341824698236200,6.932236083984375,-0.06427578055560589,0.0001371617146767676,-0.001394244537106715
1761341824708302300,6.94230224609375,-0.06846504893898964,-0.0025716405862942337,-0.0022721872822614383
1761341824718368000,6.952367919921875,-0.07250351067483425,0.006535411384422331,-0.005101602021907456
1761341824728434200,6.96243408203125,-0.06681611268818378,-0.0014766849564388394,-0.003224903163523413
1761341824738501000,6.972501220703125,-0.06411912868916989,-0.0033982641361653804,0.0019162545506376772
1761341824748566300,6.982566162109375,-0.06486556314229965,0.005635813929885626,-0.0014013957971008495
1761341824758632400,6.992632568359375,-0.06860650323629379,0.003959606079664081,-0.005130727651691995
1761341824768698400,7.002698486328125,-0.06845335850119591,-0.00021251023951917886,-0.006821356752910651
1761341824778764500,7.0127646484375,-0.07608487629294396,-0.0013982311590574681,-0.004738408432435244
1761341824788830500,7.02283056640625,-0.07398994984030723,-0.0006290916837751865,-0.005278794352873228
1761341824798897400,7.0328974609375,-0.06994915001690387,0.004139291761815548,-0.002533317869901657
1761341824808963600,7.042963623046875,-0.06366729326844214,-0.0053289034051820635,-0.009289952523261308
1761341824819029200,7.053029296875,-0.05678162540793419,-0.00004710881104692816,-0.011489567759656347
1761341824829095400,7.063095458984375,-0.07204466099143028,0.004884264910221099,-0.0043301335922209545
1761341824839161300,7.073161376953125,-0.06410860729515552,0.0036052214177325365,-0.007489794066385365
1761341824849227500,7.0832275390625,-0.06574877571761607,-0.0026191512561403213,-0.010260633319476619
1761341824859294500,7.09329443359375,-0.07622574606835841,0.002540021605324,-0.003903848171280697
1761341824869360400,7.1033603515625,-0.07083762328922748,0.005337598168291151,-0.007774145699408836
1761341824879426600,7.113426513671875,-0.06694353846013545,0.002669310540799051,-0.0068407007741974665
1761341824889492500,7.123492431640625,-0.05945932018458843,0.0019466222894378006,-0.007034131853911094
1761341824899558700,7.13355859375,-0.07113397588729858,0.0007283873397856951,-0.0016825690923491492
1761341824909625600,7.14362548828125,-0.06589724427759647,0.007141085659991949,-0.008238488975260406
1761341824919691300,7.153691162109375,-0.06454992132186889,0.0015789580208249389,-0.004203602869412862
1761341824929757400,7.16375732421875,-0.06110358026027679,-0.0012912819195538758,0.0004915600763401016
1761341824939823400,7.1738232421875,-0.0637958880841732,0.002255048917792737,0.001295999193866737
1761341824949889500,7.1838896484375,-0.07098083115220069,-0.0007793503420427441,-0.004979057921050116
1761341824959955500,7.19395556640625,-0.07307809569239616,-0.002351476763281971,-0.006832544867205433
1761341824970022400,7.2040224609375,-0.06709200702011585,-0.0007017185285687446,0.001007985165878199
1761341824980088600,7.214088623046875,-0.06619476591944694,-0.0006821918441914022,-0.006042960825515911
1761341824990154500,7.224154541015625,-0.07726677955389022,-0.00042978798570111394,0.003267061804817058
1761341825000220400,7.234220458984375,-0.06439969919621943,-0.008264445400424302,-0.005534184752893634
1761341825010286300,7.244286376953125,-0.06096212596297264,-0.00046553515251725907,-0.008229949475778266
1761341825020352300,7.254352294921875,-0.06635141778588295,0.0038374775373376906,-0.0033508539310190826
1761341825030419500,7.26441943359375,-0.0694908848553896,0.003471530301775783,-0.015769048876874147
1761341825040485400,7.2744853515625,-0.06784604025781155,-0.00038151013087481256,-0.0038368656159844246
1761341825050551300,7.28455126953125,-0.06769348004460335,-0.003614190175477415,-0.007467490903032012
1761341825060617500,7.294617431640625,-0.06380348686873913,-0.000729008394293487,-0.009048554115975275
1761341825070683400,7.304683349609375,-0.07188976269066333,-0.0003410137237049639,-0.012240404393267817
1761341825080749600,7.31474951171875,-0.057524552729725835,-0.000010466595087200402,-0.005090738134598359
1761341825090816500,7.32481640625,-0.05902092876732349,0.003840454945713281,-0.0009932944868225604
1761341825100882400,7.33488232421875,-0.069943304798007,-0.00024577318830415603,-0.007909900908288546
1761341825110948400,7.3449482421875,-0.07054010164737701,-0.00690102982642129,0.0009431671682046726
1761341825121014300,7.35501416015625,-0.06469897440373897,0.001224354163184762,-0.00542726291285362
1761341825131080400,7.36508056640625,-0.06125964760482311,0.0022424999634735286,-0.011339605928910895
1761341825141146400,7.375146484375,-0.06918927156031131,-0.01067442915160209,-0.0068893850544001906
1761341825151213300,7.38521337890625,-0.06844283710718155,0.002116517229937017,-0.006890695662074722
1761341825161279500,7.395279541015625,-0.06993745957911014,-0.00006141133103519677,-0.00985940470797941
1761341825171345400,7.405345458984375,-0.06484978105127812,-0.002782342461217195,0.000053981509828008705
1761341825181411600,7.41541162109375,-0.07831891895532607,-0.00003112579062581062,-0.0037873456521425393
1761341825191477500,7.4254775390625,-0.07069090829491614,0.0006867584214545786,-0.0017737225410994141
1761341825201544400,7.43554443359375,-0.06784896286725997,0.0031190088033676146,0.0013030180231202392
1761341825211610600,7.445610595703125,-0.06665303108096123,0.002858677366748452,-0.0037795505047542974
1761341825221676300,7.45567626953125,-0.0642535687237978,0.0032699433150701223,-0.007287796087726019
1761341825231742500,7.465742431640625,-0.06619593496322632,0.0027057335610501465,-0.0005142924979561939
1761341825241808400,7.475808349609375,-0.0591600449770689,0.0043678032880648966,-0.005004589654528536
1761341825251874600,7.48587451171875,-0.0540752890586853,-0.0010300554337911308,-0.010160657243453898
1761341825261941500,7.49594140625,-0.06425239968001842,-0.000040715602878481145,-0.0035865806493442505
1761341825272007400,7.50600732421875,-0.07038695691227913,0.00036399274049326777,0.0010505913317436352
1761341825282073600,7.516073486328125,-0.07113689849674701,-0.000281410757265985,0.005596203438704833
1761341825292139500,7.526139404296875,-0.06993629053533076,0.005684895502310246,0.0002799403193872422
1761341825302205400,7.536205322265625,-0.057367316341400146,0.0016474932123906908,-0.010068563079787417
1761341825312271400,7.546271240234375,-0.0641010085105896,0.0007618329516611993,-0.005156967204646207
1761341825322338300,7.55633837890625,-0.07083411615788936,-0.0037494887266308068,-0.005085500270477496
1761341825332404500,7.566404541015625,-0.06679156276881694,-0.0029319800649769603,-0.0023862466825637966
1761341825342470400,7.576470458984375,-0.07008242100775242,-0.010308883774839342,-0.0021624843966681507
1761341825352536300,7.586536376953125,-0.05616203220486641,0.005377327390480786,-0.0051911800015019246
1761341825362602500,7.5966025390625,-0.06663724898993968,-0.008223693264927714,-0.004905293998518027
1761341825372668400,7.60666845703125,-0.06184300045073032,-0.00069176339013502,-0.007341357472445816
1761341825382735600,7.616735595703125,-0.06992050844430923,0.0011598923585377633,-0.001342587415105663
1761341825392801500,7.626801513671875,-0.06887304521799087,-0.0021266732977703214,-0.007593414271064102
1761341825402867500,7.636867431640625,-0.06962181775867939,0.0005947692890651523,-0.004795394750102423
1761341825412933400,7.646933349609375,-0.06573124006092548,-0.0022143698475323615,-0.005354695433564483
1761341825422999300,7.656999267578125,-0.06483399896025657,0.002888670646212995,-0.007497073190542869
1761341825433065500,7.6670654296875,-0.07351122641265392,-0.0013506474239751696,-0.0055222568530822165
1761341825443132400,7.67713232421875,-0.06424012472033501,-0.0003638648763298988,-0.001978437633230351
1761341825453198300,7.6871982421875,-0.06588380027413368,0.0059882988956756885,0.003854734632815234
1761341825463264500,7.697264404296875,-0.07231997080147266,-0.005632361597474664,0.0012604803559137507
1761341825473330400,7.707330322265625,-0.0666325728148222,-0.0017937150163576006,-0.0009873625029576942
1761341825483396600,7.717396728515625,-0.060195817765593525,0.003101674076076597,0.003823467278294265
1761341825493463600,7.727463623046875,-0.06453589279651642,-0.0010398827080614864,-0.0001391527423635125
1761341825503529500,7.737529541015625,-0.06917465851306914,-0.0015102949650958178,-0.005300791555549949
1761341825513595400,7.747595458984375,-0.06662965020537376,-0.00245725695900619,0.0007256747928913683
1761341825523661300,7.757661376953125,-0.06483166087269783,0.004797901801019907,-0.0004066080395132303
1761341825533727500,7.7677275390625,-0.06737608465850353,0.008542787417769431,-0.013929645254998468
1761341825543793400,7.77779345703125,-0.06901859116852282,-0.005379738543275743,-0.00337750447592698
1761341825553860400,7.7878603515625,-0.06961831062734126,-0.005382460223324596,-0.00025970581553410736
1761341825563926500,7.797926513671875,-0.07590367450714111,-0.00014185615610331297,-0.006155887714657001
1761341825573992400,7.807992431640625,-0.06752338417470455,0.005671780292410404,-0.00419015886595007
1761341825584058600,7.81805859375,-0.07291267599761486,-0.006363050492201,-0.0025780520607717335
1761341825594124500,7.82812451171875,-0.07066460480988025,-0.004826744303014129,-0.009945356825226917
1761341825604190500,7.8381904296875,-0.07156243043243884,0.0009525880170986056,-0.009085219164821318
1761341825614257400,7.84825732421875,-0.06497837586700916,-0.004259155281819403,-0.0013668039743322878
1761341825624323300,7.8583232421875,-0.06513035155832766,-0.0080500902636908,0.0014941155818523838
1761341825634389500,7.868389404296875,-0.06947159563302993,-0.0030590405107475817,0.0003204047605162486
1761341825644455400,7.878455322265625,-0.07007248413562774,-0.004151329259481281,-0.007407728106388822
1761341825654521300,7.888521240234375,-0.07202011107206344,0.0019131766775622964,-0.007672397791408002
1761341825664587500,7.89858740234375,-0.06603402239978313,-0.001549092605523765,-0.0035834753768052906
1761341825674654500,7.908654541015625,-0.0640881490290165,-0.0018955131567083298,-0.01130822897653561
1761341825684720600,7.918720703125,-0.06199497614204883,-0.001849756052531302,-0.006781285037426278
1761341825694786600,7.92878662109375,-0.0651379503428936,-0.0001451075591146946,-0.003537937468336895
1761341825704852200,7.938852294921875,-0.06185001471340656,-0.007790635609906166,-0.006510194744775071
1761341825714918400,7.94891845703125,-0.06110065765082836,0.0017139460447244345,-0.005800183311896398
1761341825724984300,7.958984375,-0.06678630207180976,0.002911887125018984,-0.009434041735646314
1761341825735051500,7.969051513671875,-0.06633271308541297,-0.0073051536479033525,-0.0025416655731387433
1761341825745117400,7.979117431640625,-0.06573533171415329,0.0008372545417398214,-0.00368701338309329
1761341825755183600,7.98918359375,-0.07157470539212227,-0.005000730896741152,-0.005965730870841071
1761341825765249800,7.999249755859375,-0.06977671605944633,-0.0007600793859921395,-0.005032130682002753
1761341825775315700,8.009315673828125,-0.06783142721056938,0.0007096278403885662,-0.005147779251192696
1761341825785381600,8.019381591796876,-0.06738076083362102,0.0034608810435980556,0.0016696456786943598
1761341825795447600,8.029447509765625,-0.06947568728625773,0.0004847330433316529,-0.003074786069151014
1761341825805513700,8.039513671875,-0.06917816564440726,0.005294398347381502,-0.008743269292777404
1761341825815579600,8.04957958984375,-0.05705518165230751,0.005169986516423523,-0.007045680727809667
1761341825825646600,8.059646484375,-0.06319149245023727,-0.0017978797348216175,-0.011962071509077212
1761341825835712800,8.069712646484374,-0.06080196696519851,0.0031724377573467788,0.003546011176938191
1761341825845778700,8.07977880859375,-0.05885550907254219,0.0010370696964673697,-0.002453261203900911
1761341825855844900,8.089844970703124,-0.06513853486478328,-0.0014247355734929442,-0.003709896501759067
1761341825865910800,8.099910888671875,-0.0657347471922636,-0.00017930208966135977,-0.00494857145124115
1761341825875977700,8.109977783203124,-0.0612426964700222,0.005506378863938152,-0.007829688978660852
1761341825886043600,8.120043701171875,-0.06303367154002189,0.0027694829796440896,0.0013198686932213604
1761341825896109600,8.130109619140624,-0.06662438950836658,-0.002588445590622723,0.0002633408110355958
1761341825906175500,8.140175537109375,-0.06183598618805408,0.005635759130958468,-0.007186354140401818
1761341825916241700,8.15024169921875,-0.06707505588531494,-0.00023782734386622905,-0.00562357093624305
1761341825926307600,8.1603076171875,-0.07081716502308845,-0.002622092131897807,0.00012204634393565356
1761341825936374800,8.170374755859376,-0.06094108317494392,-0.0017047215586528182,-0.0010674648347310722
1761341825946440700,8.180440673828125,-0.060492170363664624,-0.0008197006187401711,0.00045956206945702434
1761341825956506600,8.190506591796876,-0.06348199982941151,0.002640084446314722,-0.010391730619547889
1761341825966572800,8.20057275390625,-0.05869242746531963,-0.0025135354571975766,-0.009066907189995982
1761341825976638500,8.210638427734375,-0.06542495059072971,-0.0037500367159023877,-0.0043669767375802615
1761341825986704600,8.22070458984375,-0.05629121154248714,-0.0026059995136223733,0.0039872658381471405
1761341825996771600,8.230771484375,-0.06018237376213073,0.0032297574351541694,-0.003454236673680134
1761341826006837500,8.24083740234375,-0.06601765578687191,-0.004740983982011676,-0.002838753390149213
1761341826016903700,8.250903564453125,-0.06840951935946941,-0.0024261494346894323,-0.005526426138123497
1761341826026969600,8.260969482421874,-0.0669154814094305,0.005607884743344039,-0.00396554263010621
1761341826037035800,8.271035888671875,-0.07155424712598324,-0.003098495738301426,-0.010253737787809223
1761341826047101700,8.281101806640624,-0.07484627440869808,-0.0033908480146899816,-0.004215421171369962
1761341826057168600,8.291168701171875,-0.061381228157877915,0.006314754371065646,-0.00025516207115724684
1761341826067234800,8.30123486328125,-0.06228197638988495,-0.0017135259196162222,0.0001390568442409858
1761341826077300500,8.311300537109375,-0.07425356921255588,0.0085118625565432,0.0008392318696947768
1761341826087366700,8.32136669921875,-0.061385319811105725,-0.001151215861737728,-0.007312939662137068
1761341826097432600,8.3314326171875,-0.06542728867828845,-0.005858187976293266,-0.008295717321522534
1761341826107498800,8.341498779296876,-0.06916530616283416,-0.0023810133850201962,-0.006165381628787145
1761341826117565700,8.351565673828125,-0.06946341232657433,0.0022041407144628464,-0.012009143787506036
1761341826127631600,8.361631591796876,-0.06377776790559292,-0.003643105742707848,-0.007536715647764504
1761341826137697800,8.37169775390625,-0.07110767240226268,-0.01200206102617085,-0.008779011893016286
1761341826147763700,8.381763671875,-0.06467091735303401,-0.005068462370708585,-0.011317850754829124
1761341826157830000,8.391829833984374,-0.06646539955437183,-0.002276183037366718,-0.001618015956156887
1761341826167895600,8.4018955078125,-0.07364858905673026,-0.004364752814453095,-0.0081058710049605
1761341826177962500,8.41196240234375,-0.05988192951083183,-0.000629931933991611,-0.002345028756186366
1761341826188028700,8.422028564453125,-0.050906595894694325,0.005318308945931494,-0.005037281781155616
1761341826198094600,8.432094482421874,-0.057193713340163224,-0.008514438106119633,-0.0014175295145716518
1761341826208160500,8.442160400390625,-0.07185936755239963,-0.007572188819944858,0.008895601177122443
1761341826218226700,8.452226806640626,-0.06946516589224339,-0.00011767156291753053,-0.006140270020416937
1761341826228293600,8.462293701171875,-0.06602408552765845,-0.0014157485494390128,-0.006937882104935124
1761341826238359800,8.47235986328125,-0.06333528483510018,0.0029704489118419584,-0.0035462395058013497
1761341826248425700,8.48242578125,-0.06587737053334712,-0.0007209894846193492,-0.0013795081922784447
1761341826258491600,8.49249169921875,-0.05719838951528072,-0.0007624905387870966,-0.008521023110533132
1761341826268557600,8.5025576171875,-0.06527940464019776,-0.005374879705067724,-0.004025771217630245
1761341826278623500,8.51262353515625,-0.0754553462177515,-0.007300660135876387,-0.006126063398551196
1761341826288690700,8.522690673828125,-0.05974339782297611,-0.002480802231375128,-0.018174415818438865
1761341826298756600,8.532756591796876,-0.060491585841774935,-0.008012151139788329,-0.007960608182218857
1761341826308822500,8.542822509765625,-0.061984454748034476,-0.0024415844658389686,-0.000515689870598726
1761341826318888700,8.552888671875,-0.06842062527537346,-0.003596143062133342,-0.005099990020133555
1761341826328954600,8.56295458984375,-0.06228489899933338,0.0023648659678176046,0.0012730521431192755
1761341826339020800,8.573020751953125,-0.06902502090930938,0.002643189718853682,-0.005248134353128262
1761341826349087700,8.583087646484374,-0.06648235068917274,0.003729962042253464,-0.00818261233586818
1761341826359153700,8.593153564453125,-0.05929974570870399,0.007043525303341448,-0.010343160503776743
1761341826369219600,8.603219482421874,-0.0572036502122879,-0.00019216157123446464,-0.004926656446955166
1761341826379285500,8.613285400390625,-0.062439212778210636,-0.0032819077474996444,-0.006926876653730869
1761341826389351700,8.6233515625,-0.06557809532582759,-0.004897946375701576,-0.004574733170168474
1761341826399417600,8.63341748046875,-0.07291326051950454,0.0036084362881258127,-0.00491491577681154
1761341826409484500,8.643484619140626,-0.06498539012968539,-0.003926288331951946,-0.009158750191912986
1761341826419550700,8.65355078125,-0.056605099797248835,0.004168280394282192,-0.005647298871702514
1761341826429616600,8.66361669921875,-0.06304419293403625,0.0022691322420723735,-0.004426789766573347
1761341826439682800,8.673682861328125,-0.07053074929714202,0.005741977718099952,-0.006868629960739054
1761341826449748700,8.683748779296875,-0.06649345660507679,-0.0024910496307536958,-0.005030920539028011
1761341826459814700,8.693814697265625,-0.06364741952419281,-0.0027686975283548235,-0.013995079740602523
1761341826469881600,8.703881591796875,-0.0751677614480257,-0.0008746274100616574,-0.010652039223280734
1761341826479947500,8.713947509765624,-0.0693336484670639,-0.0009878054609522224,-0.005121448366693221
1761341826490013700,8.724013671875,-0.06469663631618022,-0.003165843619778752,-0.005898186626541428
1761341826500079600,8.73407958984375,-0.05975976443588733,-0.0013087993099354207,-0.004025565721653402
1761341826510145800,8.744145751953125,-0.07577391064763069,0.005700220935605466,-0.004813204401428811
1761341826520212700,8.754212646484374,-0.07187865677475928,-0.00215144241284579,-0.00736459678413812
1761341826530278700,8.764278564453125,-0.0585585719525814,0.0026845811751671136,-0.010714692663331516
1761341826540344800,8.7743447265625,-0.06109948860704899,-0.0020682576414197684,-0.009147936536953784
1761341826550410800,8.78441064453125,-0.06708791536688805,-0.005561670981440693,-0.011178533615684137
1761341826560476400,8.794476318359376,-0.0631944150596857,-0.005371153378020971,-0.00948967177986633
1761341826570542600,8.80454248046875,-0.06484042870104313,-0.0011533712862059474,-0.008933942159824073
1761341826580609500,8.814609619140626,-0.06409107163846492,0.005844908369611948,0.00171126546387095
1761341826590675700,8.82467578125,-0.07142331422269343,-0.007960293088387697,-0.010101552033936605
1761341826600741600,8.83474169921875,-0.06932838777005672,0.0016154541063122451,0.0011195786144584416
1761341826610807600,8.8448076171875,-0.07336801854968071,0.003192914289794862,-0.0016873685650527477
1761341826620873700,8.854873779296875,-0.06439151588976383,-0.004533533510100096,-0.011643575577856972
1761341826630939600,8.864939697265624,-0.06528817246854304,0.0006505363306030631,-0.010302691496070474
1761341826641006600,8.875006591796875,-0.060201078462600706,0.005883048422913998,-0.0010233790978323668
1761341826651072800,8.88507275390625,-0.05900047050118446,0.0027597470369189977,-0.007658492563641629
1761341826661138400,8.895138427734375,-0.05914952358305454,0.0031853155052289366,-0.008523397730709984
1761341826671204600,8.90520458984375,-0.059601359003782266,0.005857091997750103,-0.005829651434975676
1761341826681270500,8.9152705078125,-0.06603811405301094,-0.001227075843233615,-0.01184252764948178
1761341826691336700,8.925336669921874,-0.07710720507800578,-0.0015510836332105098,-0.005680287825851701
1761341826701403600,8.935403564453125,-0.06468669944405556,0.0012905695335008202,-0.0038452087526442483
1761341826711469600,8.945469482421874,-0.07097264784574508,-0.006891640943568199,-0.0032550882392330094
1761341826721535700,8.95553564453125,-0.07471300341784953,-0.0039335400566458695,-0.0047306406845105805
1761341826731601700,8.9656015625,-0.06139584120512008,-0.0020971732086502016,-0.00442765741625335
1761341826741667800,8.975667724609375,-0.06753156748116015,0.00014525368958711622,-0.0037088964213384313
1761341826751733200,8.985733154296875,-0.06588438479602336,-0.00288404927002266,-0.013239206172269768
1761341826761800200,8.99580029296875,-0.06768120508491993,0.0005952076804824173,-0.006324243718618527
1761341826771866000,9.0058662109375,-0.05945230592191219,0.0018757490103133022,-0.010645467918599024
1761341826781932000,9.01593212890625,-0.05570961226224899,-0.0036977402730844914,-0.010405302487174048
1761341826791998200,9.025998291015625,-0.06618249095976353,-0.0010789360768161714,-0.010950634010788052
1761341826802064100,9.036064208984374,-0.06199439162015914,-0.007235686874575912,-0.0018111913075437769
1761341826812130300,9.04613037109375,-0.06842705501616,-0.006872552650608122,-0.0005068535435944796
1761341826822197200,9.056197265625,-0.06408990259468555,0.001114847640413791,-0.003459547603037208
1761341826832263200,9.06626318359375,-0.0622924977838993,-0.0030079496443271635,-0.006412305594561621
1761341826842329300,9.076329345703124,-0.06318681627511978,-0.002871847375575453,-0.00720608175417874
1761341826852395300,9.086395263671875,-0.061838324275612824,0.0023145240200683473,-0.00245958591341041
1761341826862461200,9.096461181640626,-0.06513035155832766,-0.004127564791403711,-0.0028869810126256196
1761341826872527000,9.106527099609375,-0.07111527118682862,-0.0034780148414894937,-0.0055108906422741705
1761341826882594000,9.116593994140626,-0.06572773292958736,0.002182951795961708,-0.007255670216679572
1761341826892660200,9.12666015625,-0.06557867984771729,0.0030487383124418554,-0.005053082138486206
1761341826902726100,9.13672607421875,-0.06856558670401573,-0.0007916801006533205,-0.008537353190826252
1761341826912792300,9.146792236328125,-0.07170739186108112,-0.010234923489484935,-0.002704427519952878
1761341826922858200,9.156858154296875,-0.07380290283560753,0.0036862507646903396,-0.010037967012124135
1761341826932925200,9.16692529296875,-0.06213175426423549,0.0002444032151252031,-0.014466085652681067
1761341826942991400,9.176991455078126,-0.055845221340656274,0.006287921163067221,-0.0024483612664975224
1761341826953057300,9.187057373046875,-0.07380056474804877,0.00023797347433865068,-0.0016190799686592071
1761341826963123200,9.197123291015625,-0.06841653362214564,0.001514569281414151,-0.006645091437129304
1761341826973189000,9.207189208984374,-0.0631856472313404,-0.0009495558097958564,-0.017639674187498167
1761341826983255000,9.217255126953125,-0.060195817765593525,-0.0003907894158735871,-0.006331979500502348
1761341826993322200,9.227322265625,-0.06573182458281517,0.0018129494397900999,-0.006656973671168088
1761341827003388200,9.23738818359375,-0.05869885720610618,0.0006301328633911907,-0.009146644195588305
1761341827013454000,9.2474541015625,-0.058251113438606256,-0.0037873365189880132,-0.00937070787558332
1761341827023520300,9.257520263671875,-0.05421382074654102,-0.009070062694884836,-0.011545444399048574
1761341827033586200,9.267586181640626,-0.07067687976956367,-0.0019445764628238974,-0.0020574394198833034
1761341827043652400,9.27765234375,-0.06500000317692756,0.0012825140912085772,-0.005864078860962763
1761341827053719300,9.28771923828125,-0.061712652069330215,0.0019315343181602657,-0.013184818237065337
1761341827063785000,9.297784912109375,-0.06845218945741653,0.000374221873562783,-0.01951262388594914
1761341827073851100,9.30785107421875,-0.058273909792304034,0.0033152254952117798,-0.008833048201771453
1761341827083917000,9.3179169921875,-0.06306055954694748,-0.0021161701700650156,-0.003448469086596742
1761341827093983200,9.327983154296875,-0.06859598184227943,0.0003212313110008836,-0.008101053265947847
1761341827104049200,9.338049072265624,-0.07622691511213779,0.0076570175591856235,-0.000969886211771518
1761341827114116000,9.3481162109375,-0.06949614555239678,-0.0017692564285360275,-0.0103234602894634
1761341827124182300,9.358182373046875,-0.0762310067653656,-0.0020129837902262806,-0.008546851671533658
1761341827134248200,9.368248291015625,-0.06740647979676723,0.004462002643849701,-0.0005387465192005038
1761341827144314400,9.378314453125,-0.06486147148907184,0.005151464479044079,0.002087250036257319
1761341827154380000,9.388380126953125,-0.06261690743267535,0.004109024487715214,-0.00043183381231501697
1761341827164446200,9.3984462890625,-0.05977496200501919,0.00400273283533752,-0.0056403257082216435
1761341827174513200,9.40851318359375,-0.06171849728822708,-0.0034119090690277517,-0.0005952305133687332
1761341827184579000,9.4185791015625,-0.0530383472263813,0.0043218817871063945,-0.01004547903172206
1761341827194645200,9.428645263671875,-0.05842237835228443,-0.0008748831383883953,-0.0005558711839374154
1761341827204711200,9.438711181640626,-0.06545359216332436,0.0057544901398010545,-0.004350135200633667
1761341827214777300,9.44877734375,-0.07069383090436458,-0.003725121470354497,-0.006699132312461734
1761341827224843300,9.45884326171875,-0.06245908652245998,0.0047526013545691964,-0.0073518469004193315
1761341827234910200,9.46891015625,-0.05662263545393943,-0.0020171485086902976,-0.00704423312281724
1761341827244976400,9.478976318359376,-0.054825815165042875,-0.0014504180040210484,-0.004507325923186726
1761341827255042000,9.4890419921875,-0.06350128905177116,0.0011069748612120747,-0.012686463093757629
1761341827265108200,9.499108154296875,-0.06649521017074585,0.003105455202050507,-0.006081155677745118
1761341827275174100,9.509174072265624,-0.05961188039779663,-0.0017152977515943347,-0.004343892689514905
1761341827285240000,9.519239990234375,-0.06963818437159061,0.0016207513359375297,0.005267647337773814
1761341827295307300,9.529307373046874,-0.07562778017520905,-0.0021105076142586767,0.0011509646999882533
1761341827305373200,9.539373291015625,-0.059768532264232635,0.0019969459708780047,-0.007597693153959698
1761341827315439000,9.549439208984374,-0.062166241055727,0.0020077778921462593,-0.005323300214880145
1761341827325505300,9.55950537109375,-0.05991933891177177,0.005049282746203244,-0.008343008795659988
1761341827335571200,9.5695712890625,-0.06590367401838303,0.0036262094068340955,-0.01795563110176008
1761341827345637000,9.57963720703125,-0.07069032377302646,0.002214406380150467,-0.009748277050280012
1761341827355704300,9.589704345703124,-0.06321253523826599,-0.0013781016864813863,-0.007739170284150168
1761341827365770000,9.59977001953125,-0.07129471940696239,0.005836597198992967,-0.008477152002765796
1761341827375836200,9.609836181640626,-0.06800619925558567,-0.0021245544059202075,-0.0045719521246152
1761341827385902000,9.619902099609375,-0.058280924054980275,-0.004031885864585638,-0.0018984996982384472
1761341827395968300,9.62996826171875,-0.06426876629292964,-0.0032105778106488285,-0.008550399902067147
1761341827406034200,9.6400341796875,-0.07833177843689917,0.004282517891097813,-0.0030918559349607674
1761341827416101000,9.65010107421875,-0.057086161312460894,0.00019159531565383076,-0.0025528947866288944
1761341827426167300,9.660167236328125,-0.054846273431181904,-0.0003691621059551835,-0.008782793018990195
1761341827436233200,9.670233154296875,-0.07010638640522956,0.003972465561237186,-0.007312140511116012
1761341827446299100,9.680299072265624,-0.06322247211039066,0.0004104256981052458,-0.012825410340144299
1761341827456365000,9.690364990234375,-0.06486907027363777,0.0016442966083064674,-0.007439091359032318
1761341827466431200,9.70043115234375,-0.07249766545593739,0.0031785569708794354,-0.0021468941018916664
1761341827476498200,9.710498291015625,-0.06471709458231925,0.00038498072959482666,-0.0013203710167203097
1761341827486564000,9.720564208984374,-0.061279521349072455,0.00410913408556953,-0.009020935456687584
1761341827496630300,9.73063037109375,-0.07265197923481465,0.003961103917006403,-0.0021541138605447483
1761341827506696200,9.7406962890625,-0.06577215659320354,-0.00023715149043127893,-0.015699088913202285
1761341827516762400,9.750762451171875,-0.06847030963599682,0.004561754957586527,-0.01715686367319431
1761341827526828300,9.760828369140626,-0.07101707150936126,0.005720167745091021,-0.011180803204583934
1761341827536895200,9.770895263671875,-0.060095280000567436,0.006083320235367864,-0.014828726686304434
1761341827546961400,9.78096142578125,-0.06294131708145141,-0.004550320248119533,-0.01250149844828993
1761341827557027000,9.791027099609375,-0.062491235226392744,-0.00830514273699373,-0.011153202811605296
1761341827567093200,9.80109326171875,-0.06638064388036727,0.0013752156096510587,-0.001404364072321914
1761341827577159200,9.8111591796875,-0.06922434287369252,-0.002937441691383719,-0.006828010255983099
1761341827587225000,9.82122509765625,-0.06278758782446384,0.0007392740599811077,-0.002313400642061606
1761341827597292300,9.831292236328125,-0.06278174260556697,0.00280992458788678,-0.008093326617218554
1761341827607358200,9.841358154296875,-0.06098842944800854,-0.00037467853128910064,-0.005714674152643419
1761341827617424100,9.851424072265624,-0.07281330727636813,0.003318440365605056,-0.006870255662244744
1761341827627490300,9.861490234375,-0.06338789180517196,0.0008482143271714448,-0.0015125006219139322
1761341827637556000,9.871555908203124,-0.06698270142674445,0.0020623028246685863,-0.008194184042653069
1761341827647622100,9.8816220703125,-0.05980185001194477,-0.0023442433048970995,-0.007645404753205366
1761341827657689000,9.891689208984374,-0.06473872189223766,0.0038932263125665482,-0.011988699221098794
1761341827667755000,9.901755126953125,-0.0743131904453039,0.010794310937914997,-0.00524148998321034
1761341827677821200,9.9118212890625,-0.07491174086034298,0.001058532609604299,-0.003185657998523675
1761341827687887000,9.92188720703125,-0.0653343496978283,-0.0006039024435915052,-0.004063134952797554
1761341827697953300,9.931953369140626,-0.07386720024347306,0.006117423434369266,-0.00481285734155681
1761341827708019200,9.942019287109375,-0.07146890693008899,0.008482965255621821,-0.002612488619913347
1761341827718086100,9.952086181640626,-0.06877484554052353,-0.0024930041258223352,-0.004917016402352601
1761341827728152300,9.96215234375,-0.0743137749671936,0.0051009764008224006,-0.00893527560038492
1761341827738218200,9.97221826171875,-0.05486088647842407,0.0048200771002098915,-0.008310567830782383
1761341827748284200,9.9822841796875,-0.06503916614353657,-0.007608611840195953,-0.009441932781157084
1761341827758350000,9.99235009765625,-0.07267185297906398,0.004548511883523315,-0.013196326011768542
1761341827768416300,10.002416259765624,-0.06997369993627071,0.0019519560516811907,-0.0015514398262370377
1761341827778483200,10.012483154296875,-0.06518646565973758,0.008706398747954517,-0.00505994570411276
1761341827788549000,10.022549072265624,-0.07311433604955672,0.001355214001238346,-0.010446282951533794
1761341827798615300,10.032615234375,-0.07565642174780368,-0.0009475647821091114,-0.008912844572868197
1761341827808681200,10.04268115234375,-0.06667407386898994,-0.004702295939438045,-0.004433562000654637
1761341827818747400,10.052747314453125,-0.06382920583188534,-0.002960877365898341,-0.01153087701757904
1761341827828814300,10.062814453125,-0.0735556500762701,-0.002048329098243266,-0.005493167755915783
1761341827838880300,10.07288037109375,-0.06834756003916263,0.0025545981199480592,-0.004428557031974196
1761341827848946200,10.0829462890625,-0.15497896478772163,0.01055865728482604,-0.04704689739239402
1761341827859012000,10.09301220703125,0.0609463438719511,-0.018700261756870895,0.029543270674720404
1761341827869078300,10.103078369140626,-0.11727321124970912,0.008994622838497161,-0.02238357621238101
1761341827879144200,10.113144287109375,-0.02823006918430328,-0.004363547238055617,0.009717781447316519
1761341827889211100,10.123211181640626,-0.0741612147539854,-0.00021685762107372282,-0.006900979594071395
1761341827899277300,10.13327734375,-0.07355798816382884,-0.0012150018129497766,-0.013216309353872201
1761341827909343200,10.14334326171875,-0.07295768418312072,0.002458243339695036,-0.009995607441430911
1761341827919409200,10.1534091796875,-0.07325403678119183,0.002925550324190408,-0.0034409342341125007
