time,seconds_elapsed,z,y,x
1761341817843166700,0.077166748046875,-0.0013296962715685368,-0.0002489769831299782,0.0005814027972519398
1761341817853233000,0.08723291015625,0.0010242159478366375,0.00025317538529634476,-0.00046850135549902916
1761341817863298800,0.097298828125,0.0013206256553530693,0.0005256170406937599,-0.002726329490542412
1761341817873365000,0.107364990234375,0.0011911340989172459,0.002336675301194191,0.0010138745419681072
1761341817883432000,0.117431884765625,-0.0003399173729121685,-0.0001099705696105957,-0.0021217307075858116
1761341817893497600,0.12749755859375,-0.0007833126001060009,-0.0009716097265481949,0.002366085071116686
1761341817903563800,0.137563720703125,0.00032722530886530876,-0.0012280717492103577,-0.0010065422393381596
1761341817913629700,0.147629638671875,0.0007521887309849262,0.0016667377203702927,0.002383786253631115
1761341817923695900,0.15769580078125,0.0009721657261252403,-0.00025499891489744186,-0.0015816600061953068
1761341817933762800,0.1677626953125,-0.0010869489051401615,0.0010547377169132233,0.002422564197331667
1761341817943828700,0.177828857421875,-0.0008616456761956215,-0.00018043629825115204,-0.000052045099437236786
1761341817953895000,0.18789501953125,0.0016939900815486908,0.0002892902120947838,-0.0011965692974627018
1761341817963960800,0.1979609375,0.0008015651255846024,0.0008392333984375,0.0010609920136630535
1761341817974027000,0.208027099609375,-0.0036958218552172184,0.00045121461153030396,-0.001436601858586073
1761341817984094000,0.218093994140625,0.0009860149584710598,-0.0007866229861974716,-0.002252061851322651
1761341817994159900,0.228159912109375,0.0018300889059901237,0.0008661309257149696,-0.0006101410835981369
1761341818004225800,0.238225830078125,0.0010085036046802998,-0.002628468908369541,0.001226907130330801
1761341818014291700,0.248291748046875,0.0010190336033701897,0.0003155488520860672,-0.00035035982728004456
1761341818024358000,0.25835791015625,0.000017152633517980576,0.0006622923538088799,-0.002467573154717684
1761341818034423800,0.268423828125,0.00020242156460881233,-0.0003722943365573883,0.0009143548086285591
1761341818044490800,0.27849072265625,-0.0005496549420058727,0.0008474336937069893,0.0003396449610590935
1761341818054557000,0.288556884765625,-0.0005345032550394535,-0.0006103171035647392,0.003361987415701151
1761341818064622800,0.298622802734375,0.000936360564082861,0.0002991529181599617,0.00016938988119363785
1761341818074689000,0.30868896484375,-0.0025632549077272415,-0.0010388828814029694,-0.00011282600462436676
1761341818084754700,0.318754638671875,-0.0001570885069668293,-0.0017001461237668991,0.0030249105766415596
1761341818094822000,0.32882177734375,0.0004391786642372608,-0.0017464831471443176,-0.0008277008309960365
1761341818104887800,0.3388876953125,0.0021939356811344624,-0.0019928254187107086,-0.00154116190969944
1761341818114953700,0.34895361328125,0.0010114875622093678,0.0005435245111584663,-0.0004624556750059128
1761341818125020000,0.35902001953125,-0.0015925513580441475,-0.0004967059940099716,-0.001219059806317091
1761341818135085800,0.3690859375,0.0000897473655641079,-0.0017030080780386925,0.0025038383901119232
1761341818145152800,0.37915283203125,0.0002324925735592842,-0.0004577143117785454,-0.0005920864641666412
1761341818155219000,0.389218994140625,-0.00041349558159708977,-0.001139654777944088,0.00014074752107262611
1761341818165284900,0.399284912109375,-0.00005796365439891815,-0.001084527000784874,0.000995356123894453
1761341818175350800,0.409350830078125,0.0005648760125041008,0.00027847569435834885,-0.0006072521209716797
1761341818185417000,0.4194169921875,0.0006224000826478004,-0.00017079990357160568,0.0006396397948265076
1761341818195484000,0.42948388671875,-0.00006969412788748741,-0.0009408239275217056,0.0012548710219562054
1761341818205549800,0.4395498046875,0.0013492382131516933,-0.001177845522761345,0.0015246490947902203
1761341818215615700,0.44961572265625,-0.00039433082565665245,-0.0003768680617213249,0.0006447001360356808
1761341818225681700,0.459681640625,0.001633932814002037,0.0005661575123667717,-0.0011691786348819733
1761341818235747800,0.469747802734375,0.00045204395428299904,-0.0009376741945743561,0.00136551633477211
1761341818245814800,0.479814697265625,0.0015093185938894749,0.0007837926968932152,-0.0004733959212899208
1761341818255881000,0.489880859375,-0.002431503962725401,-0.0012366920709609985,0.000012530013918876648
1761341818265947000,0.49994677734375,0.000443111639469862,0.00025414489209651947,-0.0011158515699207783
1761341818276012800,0.5100126953125,0.0014581461437046528,0.00044349953532218933,0.002488657832145691
1761341818286079000,0.520078857421875,0.0015193987637758255,0.00010341405868530273,-0.00019341148436069489
1761341818296144600,0.53014453125,-0.0015939520671963692,-0.0001810183748602867,-0.003328857943415642
1761341818306211600,0.540211669921875,0.000494765117764473,-0.0006212387233972549,0.0013306080363690853
1761341818316277800,0.55027783203125,-0.0008738180622458458,0.0014700805768370628,0.0012486344203352928
1761341818326343700,0.56034375,-0.0014690347015857697,0.0007520923390984535,-0.0008496702648699284
1761341818336409900,0.570409912109375,0.0015068668872117996,-0.00026492029428482056,0.0025484757497906685
1761341818346475800,0.580475830078125,-0.00021806266158819199,0.0011481530964374542,0.0004706773906946182
1761341818356542700,0.590542724609375,-0.0015507647767663002,0.0018640635535120964,0.0028587118722498417
1761341818366609000,0.60060888671875,-0.00010733166709542274,-0.0014483761042356491,-0.0001368117518723011
1761341818376674800,0.6106748046875,-0.0026928684674203396,-0.0008166925981640816,0.0004494069144129753
1761341818386741000,0.620740966796875,-0.001113614533096552,-0.0012300154194235802,-0.0006211837753653526
1761341818396806700,0.630806640625,-0.000676221214234829,0.0017352094873785973,0.0002741171047091484
1761341818406872800,0.640872802734375,-0.0027044848538935184,-0.0006126333028078079,0.00023097405210137367
1761341818416939800,0.650939697265625,-0.001287710852921009,0.0003602001816034317,-0.0006431522779166698
1761341818427005700,0.661005615234375,-0.0005838372744619846,0.00024062395095825195,0.0015542213805019855
1761341818437072000,0.67107177734375,-0.002619572915136814,-0.000983131118118763,-0.0026579429395496845
1761341818447137800,0.6811376953125,-0.0016403291374444962,-0.0009274706244468689,-0.0004592370241880417
1761341818457204000,0.691203857421875,0.0012821736745536327,0.0019880346953868866,-0.0003542061895132065
1761341818467271000,0.70127099609375,0.000049396418035030365,0.001551009714603424,-0.00031931884586811066
1761341818477336800,0.7113369140625,0.000915162730962038,0.0005106767639517784,0.0017452132888138294
1761341818487403000,0.721403076171875,-0.00039724307134747505,-0.0008712373673915863,-0.0011230106465518475
1761341818497468700,0.73146875,0.001723090186715126,0.00013876520097255707,-0.0007499060593545437
1761341818507534800,0.741534912109375,0.0021510603837668896,0.0009465012699365616,0.0024573393166065216
1761341818517601800,0.751601806640625,-0.0012020566500723362,-0.0002940446138381958,0.0013113976456224918
1761341818527667700,0.761667724609375,-0.002628978807479143,0.000860169529914856,0.001066387165337801
1761341818537734000,0.77173388671875,0.000264609232544899,0.000243273563683033,-0.0010745828039944172
1761341818547799800,0.7817998046875,-0.0004315413534641266,-0.0024742158129811287,0.003221096470952034
1761341818557866000,0.791865966796875,0.00024297134950757027,0.0021330788731575012,0.0007635666988790035
1761341818567933000,0.801932861328125,-0.0011125775054097176,-0.0008693691343069077,0.0008695605210959911
1761341818577998800,0.811998779296875,-0.0011328794062137604,-0.000023934058845043182,0.0006127213127911091
1761341818588065000,0.82206494140625,0.0010309386998414993,-0.0007760105654597282,-0.00018090102821588516
1761341818598130700,0.832130615234375,-0.0005864291451871395,0.0015303129330277443,-0.0026177777908742428
1761341818608196600,0.842196533203125,-0.0010825763456523418,0.0011119302362203598,-0.0020601116120815277
1761341818618262800,0.8522626953125,0.0018163779750466347,0.0027202246710658073,0.0015250775031745434
1761341818628329700,0.862329833984375,0.0024576671421527863,0.0011247247457504272,0.0021178978495299816
1761341818638396000,0.87239599609375,-0.0009264596737921238,0.0011780345812439919,0.003258040174841881
1761341818648461800,0.8824619140625,-0.0009355144575238228,-0.0001309085637331009,0.0013317754492163658
1761341818658527700,0.89252783203125,0.001783131156116724,0.0015712138265371323,-0.0005840607918798923
1761341818668594000,0.902593994140625,0.0014600898139178753,0.0018652267754077911,0.0016002641059458256
1761341818678660900,0.912660888671875,-0.0000650486908853054,-0.0017104391008615494,-0.0015912330709397793
1761341818688726800,0.922726806640625,-0.0016347160562872887,-0.0007748706266283989,0.0001842961646616459
1761341818698793000,0.93279296875,-0.0011624796316027641,-0.0005545634776353836,0.0016012638807296753
1761341818708858600,0.942858642578125,0.000633822288364172,0.0018036654219031334,0.00147929135710001
1761341818718924800,0.9529248046875,-0.0006128288805484772,0.0007948018610477448,0.00046668434515595436
1761341818728991700,0.96299169921875,0.00005828775465488434,0.00008320529013872147,0.0004312642849981785
1761341818739057700,0.9730576171875,-0.00011881347745656967,-0.000041260384023189545,0.001751104835420847
1761341818749123800,0.983123779296875,-0.0016376147978007793,0.0017270781099796295,0.00015134364366531372
1761341818759189800,0.993189697265625,0.0006401808932423592,0.00037782173603773117,0.002293454483151436
1761341818769256000,1.003255859375,0.00015362119302153587,-0.0008727982640266418,-0.003461103420704603
1761341818779323000,1.013322998046875,-0.0005762348882853985,-0.000791255384683609,0.00011790404096245766
1761341818789388800,1.023388916015625,-0.001295821275562048,0.0008045108988881111,0.00048355571925640106
1761341818799455000,1.033455078125,-0.0005696061998605728,-0.0013779429718852043,0.0014692801050841808
1761341818809520600,1.043520751953125,0.001107652671635151,-0.00005381926894187927,0.0007843156345188618
1761341818819586800,1.0535869140625,-0.0032631540670990944,-0.001733105629682541,-0.0017388430424034595
1761341818829652700,1.06365283203125,-0.0007318193092942238,0.0001209871843457222,-0.0012629362754523754
1761341818839719700,1.0737197265625,0.0003934917040169239,0.0003102170303463936,0.0004817820154130459
1761341818849785900,1.083785888671875,-0.00027176598086953163,0.0017832107841968536,0.0005678026936948299
1761341818859851800,1.093851806640625,0.00150294229388237,0.0015655802562832832,-0.00033712340518832207
1761341818869918000,1.10391796875,-0.0010877810418605804,0.0015868861228227615,-0.0002918494865298271
1761341818879983900,1.11398388671875,-0.0005653183907270432,-0.0016604112461209297,-0.004108431749045849
1761341818890050800,1.12405078125,0.001441639382392168,0.00020167138427495956,0.002540682442486286
1761341818900117000,1.134116943359375,-0.00007911724969744682,-0.0015762420371174812,0.00012482190504670143
1761341818910182700,1.1441826171875,0.001007984858006239,0.0008557569235563278,0.0011045983992516994
1761341818920248800,1.154248779296875,-0.0023008352145552635,0.0006698658689856529,0.0017139064148068428
1761341818930314800,1.164314697265625,-0.0002736365422606468,-0.001020975410938263,0.0020478665828704834
1761341818940381000,1.174380859375,-0.0014398740604519844,0.00037544872611761093,0.000019476283341646194
1761341818950447900,1.18444775390625,0.00043232785537838936,0.0008838465437293053,-0.00007320195436477661
1761341818960513800,1.194513671875,-0.0009437543340027332,0.0016298694536089897,-0.0010686470195651054
1761341818970580000,1.204580078125,0.0004922221414744854,0.00025061797350645065,-0.0011948812752962112
1761341818980646000,1.21464599609375,-0.0013001412153244019,0.00007556099444627762,0.00283703301101923
1761341818990711800,1.2247119140625,-0.00048761069774627686,0.0015661315992474556,0.003268730826675892
1761341819000779000,1.234779052734375,0.001089355442672968,0.00183896254748106,-0.0000944044440984726
1761341819010844700,1.2448447265625,-0.0003197230398654938,0.001278100535273552,0.0006321058608591557
1761341819020910800,1.254910888671875,-0.0011963266879320145,0.0019093481823801994,0.0006859637796878815
1761341819030976800,1.264976806640625,0.0014852099120616913,0.002099231816828251,0.0008026100695133209
1761341819041042700,1.275042724609375,-0.00006210338324308395,0.0003230161964893341,-0.0011981818825006485
1761341819051110000,1.28510986328125,-0.0016101989895105362,-0.0010636914521455765,-0.0024322904646396637
1761341819061175800,1.29517578125,-0.0007530832663178444,-0.0010276390239596367,0.0010691490024328232
1761341819071241700,1.30524169921875,-0.00007956987246870995,0.0013995654881000519,-0.0010904083028435707
1761341819081308000,1.315307861328125,-0.000474472064524889,-0.00007201638072729111,0.0024132821708917618
1761341819091373800,1.325373779296875,-0.001482478342950344,-0.0007247570902109146,-0.0004304409958422184
1761341819101439700,1.335439697265625,0.001296835020184517,0.0000538090243935585,0.0007838252931833267
1761341819111506700,1.345506591796875,0.0018824641592800617,-0.0009158477187156677,-0.0003293757326900959
1761341819121572600,1.355572509765625,-0.0014496850781142712,0.0011735232546925545,0.0013509532436728477
1761341819131638800,1.365638671875,-0.0010020076297223568,0.0005306359380483627,-0.000012319069355726242
1761341819141704700,1.37570458984375,-0.0009406884200870991,0.00053359754383564,0.0009480458684265614
1761341819151771000,1.38577099609375,0.000371717382222414,-0.002163918688893318,-0.002153471577912569
1761341819161837800,1.395837890625,-0.0005640997551381588,-0.001294681802392006,0.001210973598062992
1761341819171903700,1.40590380859375,-0.0010163048282265663,0.0012773992493748665,0.0005132248625159264
1761341819181970000,1.415969970703125,-0.0012963577173650265,-0.00036665424704551697,0.0005811359733343124
1761341819192035800,1.426035888671875,-0.0005996748805046082,-0.0017672106623649597,-0.00043805595487356186
1761341819202101800,1.436101806640625,0.001183249056339264,0.0007540136575698853,0.003127212170511484
1761341819212169000,1.4461689453125,0.003184348111972213,-0.0007093930616974831,-0.0025905948132276535
1761341819222234600,1.456234619140625,0.0007791630923748016,0.0010508978739380836,-0.0015369746834039688
1761341819232300800,1.46630078125,0.000008977018296718597,-0.0009217048063874245,-0.002568150870501995
1761341819242366700,1.47636669921875,-0.00023968657478690147,-0.0007537445053458214,-0.0005370420403778553
1761341819252433000,1.486432861328125,0.0009747152216732502,-0.0003864942118525505,-0.00026060594245791435
1761341819262498800,1.496498779296875,0.0008363006636500359,-0.000667249783873558,-0.000334983691573143
1761341819272565800,1.506565673828125,-0.0017853151075541973,0.00042517855763435364,0.000983014702796936
1761341819282632000,1.5166318359375,-0.0006460570730268955,-0.0008014561608433723,-0.003075256012380123
1761341819292697900,1.52669775390625,-0.00013100169599056244,-0.0010363468900322914,-0.00047680968418717384
1761341819302763800,1.536763671875,-0.0004663183353841305,0.0014534499496221542,0.0002817818894982338
1761341819312829700,1.54682958984375,0.0004516732878983021,0.001856120303273201,0.0008583562448620796
1761341819322896600,1.556896728515625,0.001567736268043518,0.0021567465737462044,0.00016444921493530273
1761341819332962800,1.566962890625,-0.0006810366176068783,0.0015870966017246246,0.0008355663157999516
1761341819343028700,1.57702880859375,-0.0006219344213604927,-0.0022371243685483932,-0.00007863249629735947
1761341819353095000,1.587094970703125,-0.00021527009084820747,0.00211421400308609,-0.0010315114632248878
1761341819363160800,1.597160888671875,-0.00028807157650589943,0.0019834814593195915,-0.000520769041031599
1761341819373227000,1.60722705078125,-0.0013338946737349033,-0.0010927356779575348,-0.0003806869499385357
1761341819383294000,1.6172939453125,-0.0007425909861922264,0.0009789597243070602,0.0010936814360320568
1761341819393360000,1.62735986328125,0.0024079286959022284,0.0003592418506741524,0.00044653331860899925
1761341819403426000,1.637426025390625,-0.0008322042413055897,-0.00001067575067281723,0.0035537411458790302
1761341819413491700,1.64749169921875,0.00020349910482764244,-0.0005856519564986229,0.001734802033752203
1761341819423557600,1.6575576171875,-0.00029236963018774986,-0.0007339091971516609,-0.0007451237179338932
1761341819433624800,1.667624755859375,0.00020271167159080505,0.0007420144975185394,0.00002452963963150978
1761341819443690800,1.677690673828125,-0.0014542252756655216,-0.0010183267295360565,-0.002269366290420294
1761341819453757000,1.6877568359375,0.00008987542241811752,0.0001241695135831833,0.00035917339846491814
1761341819463822800,1.69782275390625,-0.0016637998633086681,0.0019642310217022896,0.0035379971377551556
1761341819473888800,1.707888671875,-0.0008443454280495644,0.0004094773903489113,-0.0004468904808163643
1761341819483956000,1.7179560546875,0.001901743933558464,0.00047766976058483124,0.0022263294085860252
1761341819494022000,1.72802197265625,0.00030118413269519806,-0.0010264832526445389,0.00044973473995923996
1761341819504087800,1.738087890625,-0.002459579147398472,-0.0004997793585062027,0.0005076886154711246
1761341819514153700,1.74815380859375,-0.0014678179286420345,-0.001302722841501236,-0.002474252600222826
1761341819524219600,1.7582197265625,-0.00018974067643284798,-0.002822370268404484,-0.0007519484497606754
1761341819534285800,1.768285888671875,-0.0005905465222895145,0.000826958566904068,0.0004917480982840061
1761341819544352800,1.778352783203125,-0.0006237467750906944,0.001296299509704113,0.0013961209915578365
1761341819554418700,1.788418701171875,0.0009491164237260818,0.0019556982442736626,0.0005476376973092556
1761341819564484900,1.79848486328125,0.001142178662121296,0.0004419209435582161,-0.0010729692876338959
1761341819574550800,1.80855078125,-0.001531901303678751,-0.0006505073979496956,-0.0010021291673183441
1761341819584617000,1.818616943359375,-0.0002482202835381031,0.00013152789324522018,0.0006201253272593021
1761341819594684000,1.828683837890625,-0.0011582225561141968,-0.0048624323680996895,0.001190308015793562
1761341819604749800,1.838749755859375,0.0017720423638820648,0.00018910598009824753,0.002509934362024069
1761341819614815700,1.848815673828125,-0.0012618307955563068,-0.00147963035851717,-0.001058435533195734
1761341819624881700,1.858881591796875,0.00007141102105379105,-0.003096521832048893,-0.0006782910786569118
1761341819634947800,1.86894775390625,-0.0009315353818237782,-0.0009510787203907967,0.001045040786266327
1761341819645013800,1.879013671875,0.0006621666252613068,-0.0007276237010955811,0.003780159167945385
1761341819655080700,1.889080810546875,0.0006312737241387367,0.0012359246611595154,-0.00019088061526417732
1761341819665147000,1.89914697265625,0.002377847908064723,0.0009208368137478828,0.0004849429242312908
1761341819675212800,1.909212890625,-0.00047919154167175293,0.0005333470180630684,-0.0029398826882243156
1761341819685279000,1.919279052734375,0.001209956593811512,0.0017949976027011871,-0.00021688686683773994
1761341819695345000,1.929344970703125,0.0006696009077131748,0.002121501602232456,-0.0019543333910405636
1761341819705411800,1.939411865234375,-0.0020077102817595005,-0.002564198337495327,-0.00012733321636915207
1761341819715477800,1.949477783203125,-0.0022157025523483753,-0.0005236836150288582,0.001366166863590479
1761341819725543700,1.959543701171875,0.0005853273905813694,-0.0009642923250794411,0.0005677845329046249
1761341819735609900,1.96960986328125,0.001495063304901123,0.0001270705834031105,0.004514056257903576
1761341819745675800,1.97967578125,0.0013974625617265701,0.0010688435286283493,0.0024375058710575104
1761341819755742000,1.989741943359375,-0.0021080560982227325,-0.0004936335608363152,-0.0018587056547403336
1761341819765809000,1.999808837890625,0.0009391256608068943,-0.0010889433324337006,-0.0006624017842113972
1761341819775874800,2.009874755859375,0.0007471120916306973,0.00093053188174963,0.002765086479485035
1761341819785941000,2.01994091796875,0.0009166905656456947,0.0021822489798069,-0.002838841173797846
1761341819796007000,2.0300068359375,0.0003931131213903427,0.003933542408049107,0.0013439194299280643
1761341819806072800,2.04007275390625,-0.0008770567364990711,-0.0005129259079694748,-0.0003018965944647789
1761341819816140000,2.05014013671875,-0.001475202850997448,0.0010964227840304375,0.0034552915021777153
1761341819826205700,2.060205810546875,0.0008791782893240452,-0.0015858365222811699,-0.0003858390264213085
1761341819836271900,2.07027197265625,0.0004219138063490391,-0.0006063254550099373,0.0014006095007061958
1761341819846337800,2.080337890625,0.00021328777074813843,0.0014500096440315247,-0.0013797441497445107
1761341819856403700,2.09040380859375,0.00030303606763482094,-0.0008248621597886086,0.0005707545205950737
1761341819866470000,2.100469970703125,0.0008109207265079021,0.000909760594367981,-0.0008656056597828865
1761341819876536800,2.110536865234375,0.0006607184186577797,0.0018575796857476234,-0.0006797169335186481
1761341819886602800,2.120602783203125,0.0013865926302969456,0.001261519268155098,0.00169740105047822
1761341819896669000,2.1306689453125,0.00297143985517323,-0.0010578278452157974,0.000023072119802236557
1761341819906734600,2.140734619140625,0.00115254707634449,0.000356161966919899,-0.0027110865339636803
1761341819916800800,2.15080078125,-0.0012690653093159199,0.001889876089990139,0.0016724765300750732
1761341819926867700,2.16086767578125,0.00004586111754179001,0.0026137754321098328,-0.0001839357428252697
1761341819936933600,2.17093359375,0.0011790362186729908,-0.0007292907685041428,-0.001646809745579958
1761341819946999800,2.180999755859375,0.0012682839296758175,0.001984391361474991,0.002034928649663925
1761341819957065700,2.191065673828125,0.0007353858090937138,-0.0012031467631459236,0.002880748361349106
1761341819967132000,2.2011318359375,0.0006919284351170063,-0.0020042527467012405,-0.00012852344661951065
1761341819977197800,2.21119775390625,0.004633406642824411,0.00004371814429759979,-0.0020744954235851765
1761341819987264800,2.2212646484375,-0.0009306599386036396,-0.0011614905670285225,0.0025284658186137676
1761341819997331000,2.2313310546875,-0.0020185615867376328,-0.0008957069367170334,-0.001374663319438696
1761341820007396900,2.24139697265625,0.001161905936896801,-0.00003280024975538254,-0.00034300656989216805
1761341820017462800,2.251462890625,-0.0012703589163720608,-0.0003723530098795891,-0.0026074922643601894
1761341820027528700,2.26152880859375,0.002681864658370614,0.001558125950396061,0.0013025975786149502
1761341820037595600,2.271595703125,0.001217658631503582,0.0010787565261125565,0.0003598383627831936
1761341820047661800,2.281661865234375,0.0019383616745471954,-0.000777064822614193,-0.0003966623917222023
1761341820057727700,2.291727783203125,0.004454782698303461,-0.0006801262497901917,0.002142395358532667
1761341820067794000,2.3017939453125,-0.0008889986202120781,-0.0003877999261021614,0.0005859574303030968
1761341820077859800,2.31185986328125,-0.003478656057268381,-0.0013598529621958733,0.0022277962416410446
1761341820087926000,2.321926025390625,-0.0009479927830398083,-0.00006144773215055466,0.0008282056078314781
1761341820097993000,2.331992919921875,0.00003844220191240311,0.00025440286844968796,-0.001260511577129364
1761341820108059000,2.342058837890625,0.000653829425573349,-0.0007314784452319145,0.0012742923572659492
1761341820118124800,2.352124755859375,0.0007616872899234295,-0.0008678324520587921,-0.002162783406674862
1761341820128190700,2.362190673828125,-0.00048049865290522575,0.0005731293931603432,-0.0019480646587908268
1761341820138257000,2.3722568359375,0.0002958127297461033,0.0008096182718873024,-0.0011629648506641388
1761341820148323800,2.38232373046875,0.002228520344942808,-0.0007691392675042152,0.0005927914753556252
1761341820158389800,2.3923896484375,0.00031637074425816536,-0.0024064509198069572,0.003816015087068081
1761341820168456000,2.4024560546875,0.0031007668003439903,-0.000857706181704998,0.001883932389318943
1761341820178521900,2.41252197265625,0.00032308977097272873,0.0016909390687942505,0.0005936305969953537
1761341820188587800,2.422587890625,0.000904393382370472,-0.000968538224697113,0.0016181808896362782
1761341820198654000,2.432654052734375,-0.0002548806369304657,-0.0005576126277446747,0.00162936607375741
1761341820208721000,2.442720947265625,-0.00037073902785778046,0.0018958663567900658,-0.0004753763787448406
1761341820218786800,2.452786865234375,-0.0010783406905829906,-0.0019212430343031883,0.0005712462589144707
1761341820228852700,2.462852783203125,-0.0011678384616971016,0.0016854973509907722,0.0006482228636741638
1761341820238918700,2.472918701171875,-0.000050642527639865875,-0.0010042954236268997,-0.0011893580667674541
1761341820248984800,2.48298486328125,0.0008803363889455795,0.0009011775255203247,-0.002568043302744627
1761341820259051800,2.4930517578125,0.00015462469309568405,0.0020295586436986923,-0.0013871975243091583
1761341820269118000,2.503117919921875,0.00019872980192303658,0.00009583868086338043,-0.00034059351310133934
1761341820279184000,2.513183837890625,-0.0006785155273973942,-0.0010399995371699333,-0.0010567177087068558
1761341820289249800,2.523249755859375,0.002493753097951412,-0.0021457578986883163,0.0002731108106672764
1761341820299316000,2.53331591796875,-0.0012874030508100986,-0.0013023344799876213,-0.0021346532739698887
1761341820309381600,2.543381591796875,0.0005799881182610989,0.0007596835494041443,-0.0005914880894124508
1761341820319448800,2.55344873046875,-0.0013960772193968296,0.0006542224436998367,-0.0006740461103618145
1761341820329514800,2.5635146484375,0.0007092319428920746,0.0015085693448781967,0.003487067297101021
1761341820339580700,2.57358056640625,0.0012282822281122208,-0.00038094352930784225,-0.0008158017881214619
1761341820349646800,2.583646728515625,0.0009342627599835396,0.0014987718313932419,0.0016980981454253197
1761341820359712800,2.593712646484375,-0.0016828253865242004,0.0008316496387124062,0.0011023487895727158
1761341820369779700,2.60377978515625,-0.0011714305728673935,-0.001097099855542183,-0.0013422518968582153
1761341820379846000,2.613845947265625,0.0004179440438747406,-0.0012520961463451385,-0.0013774055987596512
1761341820389911800,2.623911865234375,-0.00017833523452281952,-0.0002446351572871208,0.0023497375659644604
1761341820399978000,2.63397802734375,-0.0019093900918960571,-0.00023478083312511444,-0.001828495878726244
1761341820410043600,2.644043701171875,-0.0011735721491277218,0.0004309695214033127,-0.001367170363664627
1761341820420109800,2.65410986328125,-0.000584747176617384,-0.0016164686530828476,0.0017969310283660889
1761341820430176800,2.6641767578125,0.0012937383726239204,-0.0015517259016633034,-0.001422123983502388
1761341820440242700,2.67424267578125,0.00004684599116444588,0.0007753437384963036,-0.0011483514681458473
1761341820450308900,2.684308837890625,0.0009504985064268112,-0.00003915559500455856,0.003609621897339821
1761341820460374800,2.694374755859375,0.0003781854175031185,-0.00037391483783721924,0.0037499703466892242
1761341820470441000,2.70444091796875,-0.0001830938272178173,0.00006158370524644852,0.0019921110942959785
1761341820480508000,2.7145078125,0.00013941479846835136,-0.0009504174813628197,0.003458181396126747
1761341820490573800,2.72457373046875,0.0009341179393231869,0.0009235134348273277,-0.0013109645806252956
1761341820500640000,2.734639892578125,0.0010739336721599102,-0.0006839698180556297,0.001457657665014267
1761341820510705700,2.74470556640625,-0.0020073112100362778,-0.001824752427637577,0.00041508767753839493
1761341820520771800,2.754771728515625,-0.00036973319947719574,0.000859980471432209,0.0014979289844632149
1761341820530838800,2.7648388671875,0.00001993449404835701,0.0007540350779891014,0.0010020295158028603
1761341820540904700,2.77490478515625,-0.0015550591051578522,0.0008981125429272652,-0.0001878705807030201
1761341820550971000,2.784970947265625,-0.002516633365303278,-0.0007354682311415672,-0.001777558121830225
1761341820561036800,2.795036865234375,-0.0004715919494628906,-0.0005410574376583099,0.0017367489635944366
1761341820571103000,2.80510302734375,0.0019245031289756298,0.001976555213332176,-0.0009090271778404713
1761341820581169000,2.8151689453125,-0.0004001702181994915,-0.00037315115332603455,0.003532859031111002
1761341820591235800,2.82523583984375,-0.0015201549977064133,0.00023475848138332367,0.0008383202366530895
1761341820601302000,2.835302001953125,-0.002642677631229162,-0.0023599592968821526,0.0003267270512878895
1761341820611367700,2.84536767578125,0.00035557523369789124,-0.002923130989074707,0.004014230333268642
1761341820621433900,2.855433837890625,-0.00027772411704063416,-0.0000860653817653656,0.003320743329823017
1761341820631499800,2.865499755859375,0.002048103604465723,-0.000019198283553123474,-0.002988811582326889
1761341820641565700,2.875565673828125,0.0011839079670608044,0.000040723010897636414,0.0003401399590075016
1761341820651633000,2.8856328125,-0.000870224554091692,-0.001716000959277153,0.0008633825927972794
1761341820661698800,2.89569873046875,-0.00029391609132289886,-0.00028375256806612015,0.0009446088224649429
1761341820671764700,2.9057646484375,0.00027980050072073936,0.0020486414432525635,0.0017910073511302471
1761341820681831000,2.915830810546875,-0.00037400564178824425,-0.0009087994694709778,0.0006759422831237316
1761341820691896800,2.925896728515625,0.0010753953829407692,-0.00022661034017801285,0.0019129975698888302
1761341820701963800,2.9359638671875,0.0005765855312347412,0.0008543664589524269,0.001467450987547636
1761341820712030000,2.946030029296875,0.0018313000909984112,0.0004241829738020897,0.0036027859896421432
1761341820722095600,2.956095703125,-0.001031331717967987,-0.0006746379658579826,0.0017130067571997643
1761341820732161800,2.966161865234375,0.0036920160055160522,-0.0007034884765744209,0.0012363875284790993
1761341820742227700,2.976227783203125,-0.000464112963527441,0.00005977414548397064,-0.0016400930471718311
1761341820752294000,2.9862939453125,0.00020375056192278862,-0.0012249341234564781,0.0015187556855380535
1761341820762360800,2.99636083984375,0.0010271999053657055,-0.0008225301280617714,-0.001274101436138153
1761341820772426800,3.0064267578125,-0.0022806418128311634,0.000021546147763729095,-0.0006005819886922836
1761341820782493000,3.016492919921875,0.002386015374213457,-0.001181669533252716,0.000024728477001190186
1761341820792558600,3.02655859375,0.000448648352175951,0.0007630875334143639,-0.0019424096681177616
1761341820802624800,3.036624755859375,0.0004558390937745571,-0.000847858376801014,-0.000774080865085125
1761341820812691700,3.046691650390625,0.0018104561604559422,0.00012726057320833206,0.0014809812419116497
1761341820822757600,3.056757568359375,-0.0008119582198560238,0.0022199731320142746,0.00009800167754292488
1761341820832823800,3.06682373046875,0.00022709090262651443,-0.0018069641664624214,0.0011198832653462887
1761341820842889700,3.0768896484375,-0.00017984025180339813,0.001517726108431816,-0.002374716568738222
1761341820852956000,3.086955810546875,0.0009141750633716583,0.0009634792804718018,0.0006298883818089962
1761341820863021800,3.097021728515625,-0.003175907302647829,-0.0009390823543071747,-0.003347808960825205
1761341820873088800,3.1070888671875,-0.0014218185096979141,-0.00162583589553833,0.001181159634143114
1761341820883155000,3.117155029296875,-0.00023404834792017937,-0.002005336806178093,0.0019366987980902195
1761341820893220600,3.127220703125,-0.000036141835153102875,0.002988702617585659,0.0012661120854318142
1761341820903286800,3.137286865234375,0.0013971715234220028,0.0009386008605360985,0.00015610642731189728
1761341820913352700,3.147352783203125,0.00013242941349744797,-0.001368677243590355,0.0001232912763953209
1761341820923419600,3.157419677734375,-0.0007895571179687977,-0.0004967590793967247,-0.00021226704120635986
1761341820933485800,3.16748583984375,0.00007602106779813766,-0.00037322472780942917,-0.0001928224228322506
1761341820943551700,3.1775517578125,-0.00018763169646263123,-0.00014712288975715637,0.0001238272525370121
1761341820953618000,3.187617919921875,-0.0017436770722270012,0.0018427716568112373,-0.0011936803348362446
1761341820963683800,3.197683837890625,0.0015264181420207024,0.0008145244792103767,-0.0017268452793359756
1761341820973749800,3.207749755859375,0.0002664569765329361,0.0009199995547533035,0.00006760051473975182
1761341820983817000,3.21781689453125,0.00036392873153090477,0.0007215933874249458,0.00004283292219042778
1761341820993883000,3.2278828125,0.0013287072069942951,0.000048823654651641846,-0.0036560730077326298
1761341821003948800,3.23794873046875,-0.001052691601216793,0.000022990629076957703,-0.001447779592126608
1761341821014014700,3.2480146484375,0.00007256818935275078,-0.001315743662416935,0.0006971340626478195
1761341821024080600,3.25808056640625,-0.0013724630698561668,0.0022907089442014694,0.0010625198483467102
1761341821034147800,3.26814794921875,0.0006620846688747406,0.0006850128993391991,0.0014093727804720402
1761341821044213800,3.2782138671875,0.00271804491057992,-0.0002817148342728615,-0.0015786937437951565
1761341821054279700,3.28827978515625,-0.0013986434787511826,0.00017647631466388702,0.0014102831482887268
1761341821064345900,3.298345947265625,0.002242696937173605,0.0028628073632717133,-0.0022608847357332706
1761341821074411800,3.308411865234375,0.0004767836071550846,0.001263895072042942,0.0018822094425559044
1761341821084477700,3.318477783203125,0.0012874500826001167,0.0038226600736379623,-0.00014632008969783783
1761341821094545000,3.328544921875,0.0016999798826873302,0.000029566697776317596,-0.000028526876121759415
1761341821104610600,3.338610595703125,0.0006602820940315723,0.0018149493262171745,-0.0012802123092114925
1761341821114676700,3.3486767578125,-0.001547978725284338,-0.0010608416050672531,-0.0014461609534919262
1761341821124742700,3.35874267578125,0.0006829514168202877,0.0007860604673624039,-0.000756935216486454
1761341821134808800,3.368808837890625,0.0015695407055318356,-0.00118936225771904,0.00003898749127984047
1761341821144875800,3.378875732421875,-0.00016151415184140205,-0.0007531363517045975,-0.000619878526777029
1761341821154941700,3.388941650390625,0.0001315413974225521,-0.00038065575063228607,-0.0009278696961700916
1761341821165008000,3.3990078125,-0.0012823310680687428,-0.0009297998622059822,-0.0017249537631869316
1761341821175073800,3.40907373046875,-0.0014064013957977295,0.0009138593450188637,0.0000865408219397068
1761341821185140000,3.419139892578125,0.0015742089599370956,0.002094971016049385,-0.0021784775890409946
1761341821195205600,3.42920556640625,0.0011666705831885338,-0.0004422040656208992,0.0010155411437153816
1761341821205272600,3.4392724609375,0.0014894455671310425,-0.0011492734774947166,0.000013393349945545197
1761341821215338800,3.4493388671875,0.0009393468499183655,0.0012574195861816406,0.0001442180946469307
1761341821225404700,3.45940478515625,-0.00028783734887838364,0.00026405975222587585,-0.0006605894304811954
1761341821235470800,3.469470947265625,-0.0005699391476809978,0.00004802551120519638,0.0004867594689130783
1761341821245536800,3.479536865234375,-0.0007792636752128601,0.0006818585097789764,0.00009847059845924377
1761341821255603700,3.489603759765625,-0.001217307522892952,-0.00019588042050600052,-0.0020592305809259415
1761341821265670000,3.499669921875,0.0003177383914589882,0.00027043838053941727,0.0008753067813813686
1761341821275735800,3.50973583984375,0.003527292748913169,-0.0008304407820105553,0.003867107443511486
1761341821285802000,3.519802001953125,-0.000051196664571762085,0.001673196442425251,-0.0025511104613542557
1761341821295867600,3.52986767578125,0.0011486243456602097,-0.000917813740670681,0.001016729511320591
1761341821305933800,3.539933837890625,-0.000549140851944685,0.0013860873878002167,0.0018188729882240295
1761341821316000800,3.550000732421875,0.001111479476094246,-0.0003801034763455391,-0.0017984886653721333
1761341821326066700,3.560066650390625,0.0004507489502429962,0.0011181915178894997,0.003694014623761177
1761341821336132900,3.5701328125,0.0008535450324416161,-0.0003185523673892021,9.802170097827911e-7
1761341821346198800,3.58019873046875,-0.00042024487629532814,-0.0005422579124569893,0.004527821205556393
1761341821356264700,3.5902646484375,-0.00009742053225636482,0.0007843002676963806,-0.0030555138364434242
1761341821366332000,3.600331787109375,-0.00015281466767191887,0.00008814968168735504,0.00007156981155276299
1761341821376397800,3.610397705078125,0.00005854899063706398,0.00005422718822956085,-0.0013469816185534
1761341821386464000,3.620464111328125,-0.000982214231044054,0.0027669230476021767,-0.0015856008976697922
1761341821396529700,3.63052978515625,0.0018806541338562965,0.0021581901237368584,-0.0012531331740319729
1761341821406595600,3.640595703125,-0.0005231150425970554,0.002010917291045189,-0.002006807830184698
1761341821416661800,3.650661865234375,-0.0023970017209649086,0.0010388800874352455,-0.00007537193596363068
1761341821426728700,3.660728759765625,0.001223299652338028,0.0009158411994576454,-0.002421084325760603
1761341821436795000,3.670794921875,0.0006542094051837921,-0.0005751540884375572,0.0009696735069155693
1761341821446860800,3.68086083984375,-0.0003684447146952152,-0.0019512102007865906,-0.0014452808536589146
1761341821456926700,3.6909267578125,-0.0006059752777218819,-0.0012321127578616142,-0.0009822254069149494
1761341821466993000,3.700992919921875,-0.00005789659917354584,0.0000470038503408432,-0.00020431587472558022
1761341821477058800,3.711058837890625,0.0011303499341011047,-0.0019286004826426506,-0.0028542769141495228
1761341821487125800,3.721125732421875,-0.0011884644627571106,0.001281040720641613,-0.0007178895175457001
1761341821497191700,3.731191650390625,0.0007043113000690937,0.0027302391827106476,0.0034593730233609676
1761341821507257600,3.741257568359375,-0.0021950723603367805,0.0019645793363451958,-0.0006552110426127911
1761341821517323800,3.75132373046875,0.0009647556580603123,-0.0008939905092120171,-0.0025479858741164207
1761341821527389700,3.7613896484375,0.000986859668046236,0.0012820782139897346,-0.0013993647880852222
1761341821537456600,3.77145654296875,0.00014644348993897438,-0.0003211069852113724,0.001254927832633257
1761341821547522800,3.781522705078125,0.00100770965218544,0.00012177694588899612,0.000004573725163936615
1761341821557588700,3.791588623046875,0.0023351944983005524,0.000054720789194107056,-0.0003619017079472542
1761341821567655000,3.801655029296875,0.0005689859390258789,0.0016840426251292229,-0.00007108459249138832
1761341821577720800,3.811720947265625,0.00025028642266988754,-0.00046813488006591797,-0.001334951724857092
1761341821587786800,3.821786865234375,0.0010969056747853756,0.0020347032696008682,0.002176959067583084
1761341821597853700,3.831853759765625,0.0004919120110571384,-0.000300409272313118,0.0018063392490148544
1761341821607919600,3.841919677734375,0.0024922119919210672,-0.0015478339046239853,0.0013053985312581062
1761341821617985800,3.85198583984375,-0.00040405895560979843,0.0021493546664714813,0.0010460158810019493
1761341821628051700,3.8620517578125,0.0002244468778371811,0.002111004665493965,0.002865753136575222
1761341821638118000,3.872117919921875,-0.00022299261763691902,0.0013895053416490555,3.0687078833580017e-7
1761341821648184800,3.882184814453125,0.00017142156139016151,0.0014776559546589851,-0.002360585145652294
1761341821658250800,3.892250732421875,-0.0006066071800887585,0.0006621815264225006,-0.0006226031109690666
1761341821668317000,3.90231689453125,-0.0002883598208427429,-0.0004307795315980911,0.003474936354905367
1761341821678382800,3.9123828125,-0.0010178950615227222,0.0007827440276741982,-0.0000658845528960228
1761341821688448800,3.92244873046875,-0.00028712349012494087,0.000534803606569767,-0.0028419634327292442
1761341821698514700,3.9325146484375,-0.001602395437657833,0.001896800473332405,-0.0005055996589362621
1761341821708581600,3.94258154296875,0.0025856918655335903,0.0020677754655480385,-0.0007665893062949181
1761341821718647800,3.952647705078125,-0.0026958375237882137,-0.0009927134960889816,-0.0009436686523258686
1761341821728713700,3.962713623046875,0.00037398794665932655,-0.0023240279406309128,0.0009817969985306263
1761341821738780000,3.97277978515625,0.00023546162992715836,-0.0009668394923210144,-0.0030030515044927597
1761341821748846300,3.982846435546875,0.0002453150227665901,0.0014907261356711388,0.0033826762810349464
1761341821758913300,3.992913330078125,0.001485519576817751,0.0012947404757142067,0.00041555147618055344
1761341821768978400,4.002978515625,0.0004293099045753479,0.002969603054225445,-0.0026899604126811028
1761341821779044400,4.01304443359375,0.0001355367712676525,-0.0004647858440876007,-0.002156585454940796
1761341821789110300,4.0231103515625,-0.00036806706339120865,-0.001909017562866211,-0.0009272703900933266
1761341821799176200,4.03317626953125,0.00140674551948905,0.000890510156750679,-0.0007376885041594505
1761341821809243100,4.0432431640625,-0.0008505498990416527,-0.0014434847980737686,0.0018575619906187057
1761341821819309300,4.053309326171875,-0.002260785549879074,0.0015710312873125076,-0.00002558203414082527
1761341821829375200,4.063375244140625,0.00009797606617212296,-0.0010114358738064766,0.0027302573435008526
1761341821839441400,4.07344140625,0.0012965984642505646,-0.0002632131800055504,-0.00036794738844037056
1761341821849507300,4.08350732421875,0.000986340455710888,-0.0031444868072867393,-0.00033945171162486076
1761341821859573200,4.0935732421875,-0.0002740682102739811,0.0007513472810387611,-0.0006049284711480141
1761341821869640400,4.103640380859375,0.00003086356446146965,0.000927116721868515,-0.0004992010071873665
1761341821879706400,4.113706298828125,-0.00031445780768990517,-0.0007491568103432655,-0.0004098569042980671
1761341821889772300,4.123772216796875,-0.00038343388587236404,0.00039919838309288025,-0.0007190494798123837
1761341821899838200,4.133838134765625,-0.0004855254665017128,-0.0015141600742936134,0.0000627744011580944
1761341821909904100,4.143904052734375,0.0012236912734806538,0.0005995910614728928,-0.0010906406678259373
1761341821919971300,4.153971435546875,0.0010679997503757477,-0.0005575958639383316,-0.0017904220148921013
1761341821930037200,4.164037353515625,0.00021232618018984795,-0.0014161989092826843,-0.0009872126393020153
1761341821940103200,4.174103271484375,-0.0004748767241835594,-0.0011009713634848595,0.0014213118702173233
1761341821950169300,4.18416943359375,0.0022793645039200783,0.00021676067262887955,0.0011126520112156868
1761341821960235300,4.1942353515625,-0.0016189329326152802,0.0009740479290485382,0.0005606659688055515
1761341821970301400,4.204301513671875,0.00041865184903144836,-0.0006294408813118935,-0.0015466930344700813
1761341821980368400,4.214368408203125,-0.0013373782858252525,-0.00006763078272342682,0.0013818112201988697
1761341821990434000,4.22443408203125,0.0020751962438225746,-0.000030079856514930725,0.00046381959691643715
1761341822000500200,4.234500244140625,0.0010250536724925041,0.000925418920814991,0.00013443920761346817
1761341822010566100,4.244566162109375,-0.0005030683241784573,0.001227688044309616,0.0005395063199102879
1761341822020632300,4.25463232421875,-0.0009567858651280403,0.0017270958051085472,-0.001261395402252674
1761341822030699300,4.26469921875,-0.0006646369583904743,0.0007704878225922585,0.0016233408823609352
1761341822040765200,4.27476513671875,-0.0007014996372163296,0.0020259125158190727,0.0005278214812278748
1761341822050831400,4.284831298828125,-0.0012455834075808525,-0.0005994318053126335,-0.001429868396371603
1761341822060897300,4.294897216796875,-0.0012532686814665794,0.00018521305173635483,0.00014059757813811302
1761341822070963500,4.30496337890625,0.0014881896786391735,-0.0009711310267448425,0.0010956074111163616
1761341822081029000,4.315029052734375,0.0016055009327828884,0.0007637180387973785,-0.0006186729297041893
1761341822091096000,4.325095947265625,0.0015421174466609955,-0.0004208562895655632,0.00046017393469810486
1761341822101162200,4.335162353515625,0.000013264361768960953,0.000029600225389003754,-0.0009064218029379845
1761341822111228200,4.345228271484375,0.00023910077288746834,0.001956397667527199,-0.0004443633370101452
1761341822121294300,4.35529443359375,0.0004975143820047379,0.00027566496282815933,0.0004345574416220188
1761341822131360300,4.3653603515625,0.0027260477654635906,0.0013249507173895836,0.0006212447769939899
1761341822141426400,4.375426513671875,-0.0003198920749127865,0.0020515061914920807,0.00045666052028536797
1761341822151493400,4.385493408203125,0.00028757471591234207,0.0007907655090093613,0.0011922256089746952
1761341822161559300,4.395559326171875,0.0010249759070575237,0.000008584000170230865,-0.0011403472162783146
1761341822171626200,4.405626220703125,-0.0016483049839735031,0.0015020845457911491,0.0011550309136509895
1761341822181692400,4.4156923828125,0.0008358564227819443,0.00018337462097406387,-0.0009572915732860565
1761341822191758300,4.42575830078125,0.000015070196241140366,-0.0021229228004813194,-0.0007825884968042374
1761341822201824300,4.43582421875,-0.004269448574632406,-0.0007701097056269646,0.0014429828152060509
1761341822211890200,4.44589013671875,-0.00035753147676587105,0.0002450868487358093,0.0034744422882795334
1761341822221956400,4.455956298828125,-0.001608281396329403,-0.0011226842179894447,-0.0013616872020065784
1761341822232023300,4.466023193359375,0.0006394260562956333,0.0011159693822264671,-0.0014160159043967724
1761341822242089200,4.476089111328125,0.0009138579480350018,-0.0009038448333740234,0.0014452869072556496
1761341822252155400,4.4861552734375,0.0011583361774682999,-0.0011379364877939224,-0.0009038876742124557
1761341822262221300,4.49622119140625,0.003081319388002157,0.0013215234503149986,0.005659822840243578
1761341822272287500,4.50628759765625,0.0024253828451037407,0.000956670381128788,-0.0005333577282726765
1761341822282354400,4.5163544921875,0.00031002331525087357,0.00046269409358501434,0.0013041566126048565
1761341822292420400,4.52642041015625,0.0002770000137388706,0.0015671076253056526,0.002349714282900095
1761341822302486300,4.536486328125,0.0006305794231593609,0.000029355287551879883,0.0015212362632155418
1761341822312552200,4.54655224609375,0.0014665457420051098,0.0011289743706583977,-0.0010455185547471046
1761341822322618400,4.556618408203125,-0.0021437383256852627,0.001223444938659668,0.0018320688977837563
1761341822332684300,4.566684326171875,-0.00033119041472673416,0.0017544794827699661,-0.002939517144113779
1761341822342751200,4.576751220703125,0.00018369080498814583,0.0000949101522564888,-0.00157991424202919
1761341822352817400,4.5868173828125,-0.000971056055277586,0.00011967774480581284,-0.0020222654566168785
1761341822362883300,4.59688330078125,-0.003323106560856104,-0.0003369739279150963,-0.0014589512720704079
1761341822372949200,4.60694921875,-0.000673527829349041,-0.0024557849392294884,-0.0008624033071100712
1761341822383015400,4.617015380859375,-0.0026632114313542843,-0.0004100129008293152,0.00025799404829740524
1761341822393082400,4.627082275390625,-0.00009645707905292511,-0.0018617017194628716,0.0005208486691117287
1761341822403148300,4.637148193359375,-0.001072003971785307,-0.0016576796770095825,-0.0014427611604332924
1761341822413214200,4.647214111328125,0.000765310600399971,0.00010266993194818497,-0.0014307769015431404
1761341822423280000,4.657280029296875,0.000332436989992857,0.0004493584856390953,0.00012085260823369026
1761341822433346300,4.66734619140625,-0.0013988837599754333,-0.0002728905528783798,0.0008076820522546768
1761341822443412200,4.677412109375,0.0011387122794985771,0.00192918349057436,0.0006375988014042377
1761341822453479200,4.687479248046875,-0.0014221835881471634,-0.0006636707112193108,-0.0012617679312825203
1761341822463545300,4.69754541015625,0.0006259242072701454,0.00021046679466962814,-0.0024857227690517902
1761341822473611300,4.707611328125,-0.0004473300650715828,0.0023186253383755684,-0.0010920902714133263
1761341822483677400,4.717677490234375,0.0003464990295469761,0.0020298566669225693,0.0012921174056828022
1761341822493743000,4.7277431640625,-0.0012114504352211952,0.003814173862338066,-0.0032762689515948296
1761341822503810000,4.73781005859375,-0.0016637514345347881,-0.0001446763053536415,0.0000052638351917266846
1761341822513876200,4.747876220703125,0.0017624050378799438,0.0005911551415920258,-0.00006637535989284515
1761341822523942100,4.757942138671875,0.0013409839011728764,0.0016604522243142128,-0.0029091346077620983
1761341822534008300,4.76800830078125,0.0002488214522600174,-0.0005707442760467529,0.0009543127380311489
1761341822544074200,4.77807421875,-0.0005698120221495628,0.002862791530787945,0.00002212170511484146
1761341822554140400,4.788140380859375,-0.00043345848098397255,-0.0006515169516205788,0.0019068410620093346
1761341822564207400,4.798207275390625,-0.000014228280633687973,0.0001666788011789322,-0.0014971895143389702
1761341822574273300,4.808273193359375,-0.0005974606610834599,0.00039624329656362534,-0.0004801284521818161
1761341822584339500,4.81833935546875,0.00014999648556113243,0.0011173877865076065,0.0004479316994547844
1761341822594405000,4.828405029296875,0.001068254467099905,-0.00003150012344121933,0.00010624807327985764
1761341822604471300,4.83847119140625,0.0002364395186305046,-0.002668444998562336,-0.0019159368239343166
1761341822614537200,4.848537109375,-0.00010071694850921631,-0.0009368574246764183,-0.000443208497017622
1761341822624604200,4.858604248046875,0.0008207024075090885,0.0009675025939941406,0.000020950566977262497
1761341822634670300,4.86867041015625,-0.00021074013784527779,0.0015414133667945862,0.0018864944577217102
1761341822644736300,4.878736328125,0.0009792530909180641,-0.0020861998200416565,-0.004028338938951492
1761341822654802400,4.888802490234375,-0.0015645981766283512,-0.0015618233010172844,0.00020076101645827293
1761341822664868400,4.898868408203125,0.001166009809821844,0.0003116810694336891,-0.003256279043853283
1761341822674935300,4.908935302734375,0.0023849387653172016,-0.0007213586941361427,-0.0028698542155325413
1761341822685001500,4.91900146484375,0.0008453433401882648,-0.0010331952944397926,0.0007454920560121536
1761341822695067100,4.929067138671875,0.00037609413266181946,0.00093834288418293,0.0006477534770965576
1761341822705133300,4.93913330078125,0.000005695503205060959,-0.0005920222029089928,0.0006284224800765514
1761341822715199200,4.94919921875,-0.0017088474705815315,-0.0009323740378022194,-0.0037428904324769974
1761341822725265200,4.95926513671875,-0.0002469271421432495,-0.0006857700645923615,-0.0003361394628882408
1761341822735332400,4.969332275390625,0.00001459568738937378,-0.0009763212874531746,0.00003190943971276283
1761341822745398000,4.97939794921875,-0.001510190311819315,-0.0002790931612253189,0.00026233773678541183
1761341822755464000,4.9894638671875,0.0028430128004401922,-0.001964874565601349,-0.0006284900009632111
1761341822765529900,4.99952978515625,0.0016682613641023636,0.000837431289255619,0.0005172863602638245
1761341822775595800,5.009595703125,-0.002106236759573221,-0.0016787238419055939,-0.0014217612333595753
1761341822785663000,5.0196630859375,-0.001444732304662466,-0.00015556253492832184,0.0021095676347613335
1761341822795729000,5.02972900390625,0.00098407082259655,0.0007373951375484467,-0.00015118997544050217
1761341822805795000,5.039795166015625,0.000597129575908184,-0.00015376415103673935,0.001710777636617422
1761341822815861000,5.049861083984375,-0.0030703097581863403,-0.00032766908407211304,-0.000137456227093935
1761341822825927000,5.059927001953125,-0.000058434437960386276,0.0007140962406992912,-0.0015855436213314533
1761341822835993000,5.0699931640625,-0.0005449936725199223,-0.0014878055080771446,-0.0012550456449389458
1761341822846060000,5.08006005859375,-0.00031467946246266365,-0.001315944828093052,0.00029070163145661354
1761341822856126000,5.0901259765625,-0.0017373398877680302,0.0007844902575016022,0.00019163265824317932
1761341822866192000,5.10019189453125,-0.0012529892846941948,0.0007675550878047943,-0.0011857147328555584
1761341822876257800,5.1102578125,-0.001963254064321518,0.0002085575833916664,0.00022815773263573647
1761341822886324000,5.120323974609375,0.0011755870655179024,-0.0030482662841677666,-0.0013848934322595596
1761341822896390000,5.130389892578125,0.0016949032433331013,-0.00010920222848653793,0.000294762197881937
1761341822906456800,5.140456787109375,0.0002329801209270954,0.001788589172065258,-0.0026589976623654366
1761341822916523000,5.15052294921875,0.0004660068079829216,0.0015377188101410866,0.0007860679179430008
1761341822926589000,5.1605888671875,-0.0003222441300749779,-0.0006765043362975121,-0.0013959389179944992
1761341822936655000,5.170655029296875,0.0010210545733571053,0.0000023348256945610046,-0.00008992478251457214
1761341822946720800,5.180720703125,0.00026428187265992165,0.0009899195283651352,-0.0012396643869578838
1761341822956787700,5.19078759765625,0.002516516949981451,0.0038442956283688545,-0.001387469470500946
1761341822966854000,5.20085400390625,0.0005444497801363468,0.0012433910742402077,-0.0011121821589767933
1761341822976919800,5.210919921875,0.002391618210822344,0.0011858660727739334,-0.001516450196504593
1761341822986986000,5.220986083984375,-0.001977892592549324,0.0013749776408076286,-0.0010519432835280895
1761341822997052000,5.231052001953125,0.0009579760953783989,-0.0007278537377715111,0.0002412879839539528
1761341823007118000,5.2411181640625,-0.0008168239146471024,0.0017585782334208488,0.0009612464345991611
1761341823017185000,5.25118505859375,0.00041941553354263306,-0.0003748796880245209,0.0004896004684269428
1761341823027251000,5.2612509765625,0.0027739510405808687,-0.0013210847973823547,-0.0014042113907635212
1761341823037317000,5.271317138671875,0.00018535833805799484,-0.0003562215715646744,0.00009035458788275719
1761341823047382800,5.2813828125,-0.0021975566633045673,-0.0011760769411921501,0.0018996717408299446
1761341823057449000,5.291448974609375,-0.0003096414729952812,-0.0004389137029647827,-0.0007624239660799503
1761341823067515000,5.301514892578125,-0.0002832747995853424,-0.00033938977867364883,-0.000958761665970087
1761341823077581800,5.311581787109375,0.0004933029413223267,0.00010136328637599945,-0.000742246862500906
1761341823087648000,5.32164794921875,-0.0016585532575845718,0.00040466710925102234,-0.00014205323532223701
1761341823097714000,5.3317138671875,0.0013782493770122528,0.0008267788216471672,-0.0013231649063527584
1761341823107780000,5.341780029296875,0.00021973298862576485,0.0010445434600114822,0.0002591591328382492
1761341823117846000,5.351845947265625,0.0012296037748456001,-0.0017376607283949852,0.00010682642459869385
1761341823127913000,5.361912841796875,-0.000774073414504528,-0.0010052165016531944,-0.002571762539446354
1761341823137979100,5.371979248046875,-0.0005711405538022518,0.0034702252596616745,0.002253619022667408
1761341823148044800,5.382044921875,0.001085683237761259,0.0010357974097132683,-0.0010520289652049541
1761341823158111000,5.392111083984375,-0.00030954694375395775,0.0021127797663211823,0.0020742551423609257
1761341823168177000,5.402177001953125,0.0017884373664855957,0.0005741268396377563,-0.0009187641553580761
1761341823178242800,5.412242919921875,0.0018387711606919765,-0.0009121838957071304,0.0026173810474574566
1761341823188310000,5.42231005859375,0.0007504313252866268,-0.0010343007743358612,0.0010013505816459656
1761341823198376000,5.4323759765625,-0.0004107067361474037,-0.0018196674063801765,0.002929478883743286
1761341823208441900,5.44244189453125,0.001041970681399107,0.0012864824384450912,0.00014516059309244156
1761341823218508000,5.452508056640625,-0.0006017321720719337,0.0004675602540373802,0.0012727435678243637
1761341823228574000,5.462573974609375,-0.0007782313041388988,-0.001102270558476448,0.0005176845006644726
1761341823238639900,5.472639892578125,-0.0017327084206044674,0.0005765855312347412,-0.003089567180722952
1761341823248707000,5.48270703125,0.00034710392355918884,0.0012040948495268822,0.0005579032003879547
1761341823258772700,5.492772705078125,0.0009258086793124676,0.001329796388745308,0.00011635152623057365
1761341823268839000,5.5028388671875,-0.0018000667914748192,0.0012275455519557,-0.0018202485516667366
1761341823278904800,5.51290478515625,-0.0006722183898091316,0.0002997005358338356,-0.0002420591190457344
1761341823288971000,5.522970947265625,0.00032446905970573425,0.00003832671791315079,-0.0013084793463349342
1761341823299038000,5.533037841796875,0.0009585674852132797,0.0024415627121925354,0.0015826481394469738
1761341823309103900,5.543103759765625,0.0012014992535114288,0.001202867366373539,-0.0018506296910345554
1761341823319170000,5.553170166015625,-0.0004382091574370861,-0.000522327609360218,0.0011965595185756683
1761341823329236000,5.563236083984375,-0.0018470576032996178,-0.0012419968843460083,-0.0016451789997518063
1761341823339302000,5.573302001953125,0.001893085427582264,-0.0012558456510305405,0.0027024317532777786
1761341823349367800,5.583367919921875,-0.00039169518277049065,-0.0023636389523744583,0.0019499449990689754
1761341823359434800,5.593434814453125,-0.0007807831279933453,0.0004409356042742729,0.0019707181490957737
1761341823369501000,5.6035009765625,0.0007873577997088432,-0.00007366016507148743,-0.002644013147801161
1761341823379566800,5.61356689453125,-0.00027444446459412575,-0.0008784672245383263,0.0008159657008945942
1761341823389633000,5.623633056640625,0.0002337074838578701,0.0029277196153998375,-0.00016164174303412437
1761341823399699000,5.633698974609375,0.0013588927686214447,-0.0005298620089888573,-0.0012042690068483353
1761341823409765000,5.64376513671875,0.0010177260264754295,-0.0009555649012327194,0.0017646853812038898
1761341823419832000,5.65383203125,-0.00013355864211916924,-0.0018660994246602058,0.00040727248415350914
1761341823429898000,5.66389794921875,-0.0004982925020158291,-0.00042748916894197464,0.0007796692661941051
1761341823439964200,5.673964111328125,-0.00015288079157471657,0.0019850684329867363,-0.0014041224494576454
1761341823450029800,5.68402978515625,0.0008066515438258648,-0.0015419824048876762,0.00001061195507645607
1761341823460096000,5.694095947265625,-0.002446400001645088,-0.0005118716508150101,0.0011895936913788319
1761341823470163000,5.704162841796875,0.0021982421167194843,-0.000939573161303997,0.00022843293845653534
1761341823480228900,5.714228759765625,-0.0005053989589214325,0.0003081178292632103,-0.00023788679391145706
1761341823490295000,5.724294921875,0.000037585850805044174,-0.00010261312127113342,-0.0005677980370819569
1761341823500361000,5.73436083984375,-0.00011235009878873825,0.0023927688598632812,-0.0012799273245036602
1761341823510427000,5.744427001953125,0.0024656804744154215,0.0009014727547764778,0.003428376279771328
1761341823520493000,5.7544931640625,0.0010169208981096745,0.002218938432633877,-0.0008364100940525532
1761341823530560000,5.76456005859375,0.000668694730848074,-0.0019289832562208176,-0.0010719322599470615
1761341823540626200,5.774626220703125,-0.0004735351540148258,0.0017919857054948807,-0.00042052334174513817
1761341823550691800,5.78469189453125,0.0023099214304238558,-0.00008772686123847961,-0.001489508431404829
1761341823560757800,5.7947578125,-0.0012632417492568493,-0.0012057218700647354,0.0013472908176481724
1761341823570824000,5.804823974609375,0.00025994284078478813,0.0027690138667821884,-0.0002839239314198494
1761341823580889900,5.814889892578125,0.001115882769227028,-0.0003580702468752861,0.0006159581243991852
1761341823590956800,5.824956787109375,0.0006253784522414207,-0.0002211388200521469,0.0003961464390158653
1761341823601023000,5.83502294921875,0.0009699915535748005,0.0004523741081357002,0.00036072637885808945
1761341823611089000,5.8450888671875,-0.0017963927239179611,-0.0006816014647483826,-0.0019162269309163094
1761341823621155000,5.855155029296875,-0.0016280808486044407,0.0012478586286306381,-0.0013628220185637474
1761341823631221000,5.865220947265625,-0.0006998740136623383,0.0019038943573832512,-0.0010246885940432549
1761341823641287000,5.875286865234375,0.0006876327097415924,0.0008450215682387352,0.002576171886175871
1761341823651353900,5.885353759765625,0.0015709828585386276,-0.00013754889369010925,0.0019480222836136818
1761341823661419800,5.895419677734375,0.0007531261071562767,0.0023583658039569855,-0.0001209876500070095
1761341823671486000,5.90548583984375,-0.001667284406721592,-0.00007367134094238281,0.000043241772800683975
1761341823681552000,5.9155517578125,0.001825451385229826,0.0019460702314972878,0.0027767098508775234
1761341823691618000,5.9256181640625,-0.002117062918841839,0.0003987997770309448,-0.0019205114804208279
1761341823701685000,5.93568505859375,-0.001805473119020462,0.0004209037870168686,0.0004944433458149433
1761341823711751000,5.9457509765625,0.0009704143740236759,-0.0020240452140569687,-0.002134199719876051
1761341823721817000,5.955817138671875,-0.00003093387931585312,-0.00028739776462316513,0.00016570603474974632
1761341823731883000,5.965883056640625,-0.0004780287854373455,-0.0003298381343483925,-0.0025224382989108562
1761341823741949000,5.975948974609375,-0.00012169778347015381,-0.0005942899733781815,0.001453128643333912
1761341823752015000,5.98601513671875,0.0005807951092720032,0.0020204009488224983,-0.002641012892127037
1761341823762082000,5.99608203125,-0.0002242783084511757,0.0018760571256279945,0.0021180561743676662
1761341823772148200,6.006148193359375,-0.0006090635433793068,0.0009273635223507881,0.0003843172453343868
1761341823782214100,6.016214111328125,0.0024644904769957066,0.0008911453187465668,-0.0002463199198246002
1761341823792280300,6.0262802734375,-0.00035034818574786186,0.0007060980424284935,-0.0004351818934082985
1761341823802346200,6.03634619140625,-0.0012582195922732353,0.000030454248189926147,-0.0012453156523406506
1761341823812412200,6.046412109375,-0.00028246035799384117,-0.0009921025484800339,0.0018530315719544888
1761341823822479400,6.056479248046875,-0.0013807476498186588,0.0007906174287199974,-0.0022511654533445835
1761341823832545000,6.066544921875,0.0004162788391113281,0.0016048336401581764,0.0013636229559779167
1761341823842611200,6.076611083984375,0.0011134943924844265,-0.0006583211943507195,-0.00035677850246429443
1761341823852677000,6.086677001953125,0.0014266646467149258,-0.0011012665927410126,0.0041455356404185295
1761341823862743000,6.096742919921875,0.0007020183838903904,0.00025534722954034805,0.00002216314896941185
1761341823872810200,6.106810302734375,0.0004831789992749691,0.0005507953464984894,0.001548414584249258
1761341823882876200,6.116876220703125,-0.0010020658373832703,-0.00170170608907938,-0.000521393958479166
1761341823892942000,6.126942138671875,-0.0019947485998272896,0.000277872197329998,0.0017644157633185387
1761341823903008300,6.13700830078125,-0.000034129712730646133,-0.00005235988646745682,-0.00035359617322683334
1761341823913074200,6.14707421875,-0.002267986536026001,0.0009777452796697617,0.0002768193371593952
1761341823923140000,6.15714013671875,0.0012492500245571136,0.00021421629935503006,-0.0014430503360927105
1761341823933207000,6.16720703125,0.0010836212895810604,0.000324958935379982,-0.0015624389052391052
1761341823943273000,6.17727294921875,-0.00024156784638762474,0.0016623977571725845,-0.0011115656234323978
1761341823953339100,6.187339111328125,0.0005231508985161781,-0.000853193923830986,-0.0014858245849609375
1761341823963405000,6.197405029296875,-0.001043054275214672,0.000531916506588459,-0.00006050104275345802
1761341823973471200,6.20747119140625,-0.0006131110712885857,-0.0000414922833442688,0.0007374468259513378
1761341823983537200,6.217537109375,0.0012444439344108105,-0.001398639753460884,-0.0023001544177532196
1761341823993604000,6.22760400390625,0.0015437332913279533,-0.002215650863945484,0.0023989281617105007
1761341824003670300,6.237670166015625,0.0004414506256580353,0.0017801560461521149,0.0010321936570107937
1761341824013736200,6.247736083984375,-0.00022445246577262878,-0.002024133689701557,0.0010537737980484962
1761341824023802000,6.257802001953125,0.0012421500869095325,-0.0008957525715231895,0.0004015658050775528
1761341824033868000,6.267867919921875,0.002405296778306365,0.0016213404014706612,-0.0013116849586367607
1761341824043934200,6.277934326171875,0.0013083405792713165,-0.001177375204861164,0.0032124933786690235
1761341824054001200,6.288001220703125,0.0014562765136361122,0.0009515006095170975,-0.002804948017001152
1761341824064067000,6.298067138671875,-0.001134979072958231,0.0007483018562197685,-0.0010890732519328594
1761341824074133200,6.30813330078125,0.001876717433333397,0.0014492403715848923,-0.0013559162616729736
1761341824084199200,6.31819921875,-0.0001659272238612175,0.00048357807099819183,0.004389320500195026
1761341824094265300,6.328265380859375,-0.00012300116941332817,-0.0032753320410847664,-0.0013287453912198544
1761341824104332300,6.338332275390625,-0.0017118430696427822,-0.0012744991108775139,-0.0016150353476405144
1761341824114398200,6.348398193359375,0.0012395051307976246,0.0016182679682970047,-0.0006592930294573307
1761341824124464000,6.358464111328125,0.0009580086916685104,-0.000624380074441433,0.002600149717181921
1761341824134530000,6.368530029296875,0.0022321296855807304,0.0017960341647267342,-0.0011218702420592308
1761341824144596200,6.37859619140625,-0.0018049562349915504,-0.0009845718741416931,0.0005766940303146839
1761341824154662100,6.388662109375,-0.00045455433428287506,0.0005430802702903748,-0.0004828786477446556
1761341824164729000,6.39872900390625,-0.0009546959772706032,0.0008514737710356712,0.002290537115186453
1761341824174795300,6.408795166015625,-0.0005711354315280914,-0.002695821225643158,-0.00054520508274436
1761341824184861200,6.418861083984375,-0.0011543678119778633,-0.00031202565878629684,-0.0011031371541321278
1761341824194927000,6.428927001953125,-0.0008555394597351551,0.0008180830627679825,-0.00022555235773324966
1761341824204993300,6.4389931640625,0.0013554170727729797,0.0015589743852615356,-0.00046656839549541473
1761341824215059000,6.449058837890625,-0.0000565946102142334,0.0002981554716825485,0.001325550489127636
1761341824225126100,6.459126220703125,0.0011721882037818432,-0.0007958710193634033,0.0010933224111795425
1761341824235192000,6.469192138671875,-0.0002893023192882538,0.00016666855663061142,0.0017095361836254597
1761341824245258000,6.479258056640625,0.000016961246728897095,0.0011363252997398376,-0.0004284493625164032
1761341824255324200,6.48932421875,0.00032905489206314087,-0.00004234537482261658,0.0014557079412043095
1761341824265390000,6.49939013671875,0.0011727442033588886,-0.0004791039973497391,-0.0003776121884584427
1761341824275457000,6.50945703125,0.0009293700568377972,0.0007174434140324593,0.002589848358184099
1761341824285523200,6.519523193359375,0.000967453233897686,0.0006985347718000412,-0.0023449892178177834
1761341824295589000,6.529589111328125,-0.002161754760891199,-0.0019840728491544724,0.0013086977414786816
1761341824305655300,6.5396552734375,0.0002800975926220417,0.0000865347683429718,0.0000074766576290130615
1761341824315721000,6.549720947265625,-0.00023726420477032661,-0.0002453392371535301,-0.00004482828080654144
1761341824325787100,6.559787109375,-0.002329443581402302,-0.00006237998604774475,-0.0014131604693830013
1761341824335854000,6.56985400390625,-0.0014990633353590965,-0.0005951421335339546,0.00025102077051997185
1761341824345920000,6.579919921875,0.00017446698620915413,0.0002522757276892662,0.001526941079646349
1761341824355986200,6.589986083984375,-0.0014118854887783527,-0.0006905253976583481,0.00016959011554718018
1761341824366052000,6.600052001953125,-0.0024888673797249794,-0.000010887160897254944,0.00013576773926615715
1761341824376118300,6.6101181640625,0.00044595031067728996,0.00044235214591026306,-0.0009420290589332581
1761341824386184200,6.62018408203125,-0.0018172035925090313,-0.0005904212594032288,-0.0024906573817133904
1761341824396251100,6.630251220703125,-0.0016687694005668163,-0.0002864077687263489,0.00020651612430810928
1761341824406317300,6.6403173828125,0.002346478868275881,-0.0018313080072402954,0.0005793580785393715
1761341824416383200,6.65038330078125,0.0001654163934290409,0.001647450029850006,-0.001554843969643116
1761341824426449200,6.66044921875,0.002014448866248131,-0.00016030389815568924,0.0008427994325757027
1761341824436515000,6.67051513671875,0.0005645169876515865,-0.0010987687855958939,-0.00034151505678892136
1761341824446581200,6.680581298828125,-0.002481873147189617,-0.0004454953595995903,-0.001816373784095049
1761341824456648200,6.690648193359375,0.00036119716241955757,-0.00043268781155347824,-0.00020802346989512444
1761341824466714000,6.700714111328125,-0.001771728042513132,0.00009408500045537949,0.004179001785814762
1761341824476780300,6.7107802734375,0.002619454637169838,0.00024470221251249313,-0.0024446211755275726
1761341824486846200,6.72084619140625,0.000030329450964927673,-0.0006972579285502434,-0.0014326199889183044
1761341824496912100,6.730912109375,-0.00045118294656276703,-0.00048790033906698227,0.0008880123496055603
1761341824506979300,6.740979248046875,0.0012479140423238277,-0.0004546111449599266,-0.0021357405930757523
1761341824517045200,6.751045166015625,-0.0008662198670208454,-0.0012474441900849342,0.00024699466302990913
1761341824527111200,6.761111083984375,0.00006135925650596619,0.00014858506619930267,-0.0008984310552477837
1761341824537177000,6.771177001953125,-0.001025049015879631,0.0006481371819972992,-0.0008447086438536644
1761341824547243000,6.781242919921875,-0.00008149119094014168,0.0026412466540932655,-0.0014481809921562672
1761341824557309200,6.79130908203125,-0.0004367521032691002,-0.00018325820565223694,0.00013200100511312485
1761341824567376100,6.801376220703125,-0.0004095877520740032,0.0016649756580591202,0.0013080528005957603
1761341824577442000,6.811442138671875,-0.001785465981811285,-0.000537848100066185,0.0005383738316595554
1761341824587508200,6.82150830078125,0.00002654828131198883,-0.00007392466068267822,0.002883553970605135
1761341824597574100,6.83157421875,-0.0010209172032773495,0.001215089112520218,0.004223503638058901
1761341824607640300,6.841640380859375,0.0013636774383485317,-0.0021708542481064796,0.0032711573876440525
1761341824617706000,6.8517060546875,0.0037826779298484325,-0.0011209603399038315,-0.001655039843171835
1761341824627773000,6.86177294921875,0.00020179152488708496,-0.0033558858558535576,0.0030214712023735046
1761341824637839000,6.871839111328125,0.0022087511606514454,0.00014439504593610764,0.0026092873886227608
1761341824647905000,6.881905029296875,-0.0016882526688277721,0.000628557987511158,0.00015598349273204803
1761341824657971200,6.89197119140625,0.00041525857523083687,-0.001926894299685955,-0.0016177981160581112
1761341824668037000,6.902037109375,0.0013204673305153847,-0.0006046351045370102,0.0004328363575041294
1761341824678103300,6.912103271484375,-0.0019707633182406425,-0.00015935394912958145,-0.0010433904826641083
1761341824688170200,6.922170166015625,0.001814387273043394,-0.0006680171936750412,-0.0011903969570994377
1761341824698236200,6.932236083984375,-0.0007676118984818459,0.0007760347798466682,0.0012134211137890816
1761341824708302300,6.94230224609375,0.0006417329423129559,-0.0010764598846435547,-0.0022729230113327503
1761341824718368000,6.952367919921875,-0.00008006114512681961,-0.0008090389892458916,-0.0006776191294193268
1761341824728434200,6.96243408203125,-0.0017413408495485783,0.00041814520955085754,-0.003311219159513712
1761341824738501000,6.972501220703125,0.0007247072644531727,-0.0007609529420733452,-0.0006010248325765133
1761341824748566300,6.982566162109375,-0.00031845271587371826,-0.0002592131495475769,-0.000057206954807043076
1761341824758632400,6.992632568359375,0.0010409723035991192,-0.0018030935898423195,-0.0005243509076535702
1761341824768698400,7.002698486328125,-0.0026786644011735916,-0.001643037423491478,-0.000016219913959503174
1761341824778764500,7.0127646484375,0.0012346007861196995,0.0006884690374135971,0.00024219276383519173
1761341824788830500,7.02283056640625,-0.0000471784733235836,0.00007274560630321503,-0.001925087533891201
1761341824798897400,7.0328974609375,-0.0006458675488829613,-0.0016863392665982246,0.0008133035153150558
1761341824808963600,7.042963623046875,-0.0014674528501927853,-0.00014197174459695816,-0.0004980363883078098
1761341824819029200,7.053029296875,0.000561980064958334,-0.00009614601731300354,-0.0014629466459155083
1761341824829095400,7.063095458984375,-0.0005371063016355038,0.0031718192622065544,-0.0004418906755745411
1761341824839161300,7.073161376953125,0.0003377394750714302,-0.001233353279531002,-0.0047153267078101635
1761341824849227500,7.0832275390625,0.00018727080896496773,0.0010745422914624214,-0.0029003825038671494
1761341824859294500,7.09329443359375,-0.000034761615097522736,-0.00018579605966806412,-0.00014227861538529396
1761341824869360400,7.1033603515625,0.0017154677771031857,-0.0005583716556429863,0.0004042014479637146
1761341824879426600,7.113426513671875,0.0005301707424223423,-0.0004611928015947342,-0.00031571462750434875
1761341824889492500,7.123492431640625,-0.0003814292140305042,-0.0009890319779515266,0.0025876634754240513
1761341824899558700,7.13355859375,-0.0013728272169828415,0.0013411697000265121,-0.0009072758257389069
1761341824909625600,7.14362548828125,-0.0013645715080201626,0.001750231720507145,-0.0005655921995639801
1761341824919691300,7.153691162109375,-0.0009800847619771957,-0.0016022305935621262,-0.0006104754284024239
1761341824929757400,7.16375732421875,-0.0010378751903772354,0.00023588258773088455,-0.001379063818603754
1761341824939823400,7.1738232421875,0.0007656537927687168,0.00038581620901823044,0.002125332597643137
1761341824949889500,7.1838896484375,0.0021201372146606445,0.00018208473920822144,0.0019849841482937336
1761341824959955500,7.19395556640625,0.000436937902122736,0.0005871588364243507,-0.0003887149505317211
1761341824970022400,7.2040224609375,0.002314200159162283,-0.0015340493991971016,-0.0013842047192156315
1761341824980088600,7.214088623046875,0.00020594336092472076,0.0011303490027785301,0.00022783363237977028
1761341824990154500,7.224154541015625,0.00012231990694999695,-0.0008824681863188744,-0.0002089245244860649
1761341825000220400,7.234220458984375,-0.00048759346827864647,0.00007363967597484589,0.0026489892043173313
1761341825010286300,7.244286376953125,-0.00011821324005723,0.0009743208065629005,-0.00018754415214061737
1761341825020352300,7.254352294921875,0.000034063588827848434,-0.0007925396785140038,-0.00008705770596861839
1761341825030419500,7.26441943359375,0.0004417933523654938,-0.0008860165253281593,0.000051693059504032135
1761341825040485400,7.2744853515625,-0.0007114335894584656,-0.00011216197162866592,-0.0027100532315671444
1761341825050551300,7.28455126953125,0.0006465124897658825,-0.0015175128355622292,0.0012940098531544209
1761341825060617500,7.294617431640625,0.00030942074954509735,-0.0009296322241425514,0.0020263735204935074
1761341825070683400,7.304683349609375,-0.0011598453857004642,-0.0002686362713575363,0.0003413921222090721
1761341825080749600,7.31474951171875,-0.0013230647891759872,-0.00001149345189332962,-0.0014395867474377155
1761341825090816500,7.32481640625,-0.0018690130673348904,0.0007696114480495453,-0.0007186690345406532
1761341825100882400,7.33488232421875,0.0021659033372998238,-0.0004708748310804367,0.0024474994279444218
1761341825110948400,7.3449482421875,-0.00023094145581126213,-0.0005648843944072723,-0.0053965747356414795
1761341825121014300,7.35501416015625,-0.0005274019204080105,0.0006147008389234543,0.0026115900836884975
1761341825131080400,7.36508056640625,-0.0006102262996137142,-0.001228739507496357,-0.00007633818313479424
1761341825141146400,7.375146484375,0.003880905918776989,0.0009165164083242416,0.0006795860826969147
1761341825151213300,7.38521337890625,-0.001519985031336546,0.0009860247373580933,-0.0010778335854411125
1761341825161279500,7.395279541015625,0.00041520828381180763,0.00040550436824560165,-0.0013435427099466324
1761341825171345400,7.405345458984375,0.00139205576851964,0.001245466060936451,0.00009829271584749222
1761341825181411600,7.41541162109375,-0.001486603170633316,-0.001034577377140522,-0.0006572939455509186
1761341825191477500,7.4254775390625,-0.0008929846808314323,0.003495459444820881,0.002034096047282219
1761341825201544400,7.43554443359375,0.00019351625815033913,0.00016656145453453064,0.000626618042588234
1761341825211610600,7.445610595703125,0.0005615651607513428,-0.0008116178214550018,-0.0014927256852388382
1761341825221676300,7.45567626953125,-0.0016905711963772774,-0.0007054479792714119,-0.0025686584413051605
1761341825231742500,7.465742431640625,-0.0008338326588273048,0.00018058530986309052,-0.00036329496651887894
1761341825241808400,7.475808349609375,0.0012246067635715008,0.00003924313932657242,-0.0023527508601546288
1761341825251874600,7.48587451171875,-0.0003463919274508953,0.0006797341629862785,0.0015527745708823204
1761341825261941500,7.49594140625,0.0006359359249472618,-0.00047990307211875916,0.00023552123457193375
1761341825272007400,7.50600732421875,-0.0015976573340594769,-0.001031443476676941,0.0013399343006312847
1761341825282073600,7.516073486328125,-0.000021890737116336823,-0.0006919912993907928,0.0006890231743454933
1761341825292139500,7.526139404296875,0.0009088842198252678,0.0008734147995710373,0.0015305820852518082
1761341825302205400,7.536205322265625,-0.0017456109635531902,-0.0002469271421432495,-0.000844497699290514
1761341825312271400,7.546271240234375,-0.0027336436323821545,0.0001096697524189949,-0.0012764623388648033
1761341825322338300,7.55633837890625,0.001830811146646738,-0.001413390040397644,-0.00020162807777523994
1761341825332404500,7.566404541015625,-0.000777754932641983,-0.0008016619831323624,0.000003967899829149246
1761341825342470400,7.576470458984375,-0.0017084479331970215,-0.00022728648036718369,-0.0011593587696552277
1761341825352536300,7.586536376953125,-0.001335339155048132,-0.0005173049867153168,-0.00014176499098539352
1761341825362602500,7.5966025390625,-0.001481157261878252,-0.0003502415493130684,-0.002696449402719736
1761341825372668400,7.60666845703125,-0.0012667728587985039,-0.0017278948798775673,-0.0020157452672719955
1761341825382735600,7.616735595703125,-0.0027127694338560104,-0.0018385490402579308,-0.0012999684549868107
1761341825392801500,7.626801513671875,0.0010854308493435383,-0.001034274697303772,-0.0008288556709885597
1761341825402867500,7.636867431640625,-0.0023105600848793983,-0.0009764367714524269,0.0012605246156454086
1761341825412933400,7.646933349609375,-0.00006658071652054787,-0.0019538169726729393,0.0010703746229410172
1761341825422999300,7.656999267578125,-0.0006167334504425526,0.0003858497366309166,0.0010475167073309422
1761341825433065500,7.6670654296875,0.0020645372569561005,-0.0004064403474330902,0.0014690947718918324
1761341825443132400,7.67713232421875,-0.0009650643914937973,0.0014641694724559784,-0.0009574196301400661
1761341825453198300,7.6871982421875,-0.0023975782096385956,-0.0017001982778310776,-0.0014040316455066204
1761341825463264500,7.697264404296875,-0.002281755208969116,0.0002963356673717499,0.0009195958264172077
1761341825473330400,7.707330322265625,0.00008339807391166687,-0.0012211333960294724,-0.002028257120400667
1761341825483396600,7.717396728515625,0.0005242824554443359,-0.000142732635140419,0.0011956123635172844
1761341825493463600,7.727463623046875,0.001100058201700449,-0.001015983521938324,-0.000538904219865799
1761341825503529500,7.737529541015625,-0.00017647864297032356,-0.0012407032772898674,0.00012116134166717529
1761341825513595400,7.747595458984375,0.0006522969342768192,-0.0017339205369353294,-0.002122285310178995
1761341825523661300,7.757661376953125,-0.0005909823812544346,0.0015401151031255722,0.00008474010974168777
1761341825533727500,7.7677275390625,0.00044099241495132446,0.0011579515412449837,0.00009246356785297394
1761341825543793400,7.77779345703125,-0.00047060055658221245,0.0001274552196264267,-0.001276569440960884
1761341825553860400,7.7878603515625,0.0033116210252046585,0.002509120851755142,-0.0025199996307492256
1761341825563926500,7.797926513671875,0.0010390267707407475,0.00031569506973028183,0.0007656803354620934
1761341825573992400,7.807992431640625,-0.0010417010635137558,-0.0010864585638046265,-0.0011161090806126595
1761341825584058600,7.81805859375,0.001322613563388586,-0.0014849323779344559,-0.0005647875368595123
1761341825594124500,7.82812451171875,0.0014368630945682526,-0.0010963771492242813,-0.002088116016238928
1761341825604190500,7.8381904296875,-0.00144936703145504,0.0015280786901712418,-0.0006411480717360973
1761341825614257400,7.84825732421875,0.00004040496423840523,-0.0019878270104527473,0.0015245340764522552
1761341825624323300,7.8583232421875,-0.0017270203679800034,0.0013556815683841705,-0.0007383530028164387
1761341825634389500,7.868389404296875,0.0003587678074836731,-0.0018638139590620995,0.0026888693682849407
1761341825644455400,7.878455322265625,0.0006468384526669979,0.0003181425854563713,0.00031873537227511406
1761341825654521300,7.888521240234375,-0.0008021877147257328,0.0002467697486281395,0.0006202044896781445
1761341825664587500,7.89858740234375,0.0007533757016062737,-0.0006914837285876274,-0.002977352123707533
1761341825674654500,7.908654541015625,0.00014857202768325806,0.002185528166592121,0.0014184615574777126
1761341825684720600,7.918720703125,-0.001273860689252615,-0.0001974860206246376,-0.0009802370332181454
1761341825694786600,7.92878662109375,0.0009157904423773289,0.0005884133279323578,0.00020620133727788925
1761341825704852200,7.938852294921875,0.0021911291405558586,0.0016177641227841377,-0.001908659003674984
1761341825714918400,7.94891845703125,-0.00017482321709394455,-0.001522902399301529,0.00025249598547816277
1761341825724984300,7.958984375,0.0017644292674958706,0.0017915386706590652,0.00020022736862301826
1761341825735051500,7.969051513671875,-0.0007589161396026611,-0.0006673578172922134,-0.002677850890904665
1761341825745117400,7.979117431640625,-0.001091760117560625,-0.00021718349307775497,0.0032590245828032494
1761341825755183600,7.98918359375,-0.0022704750299453735,-0.0012808497995138168,-0.0020523839630186558
1761341825765249800,7.999249755859375,0.0018845214508473873,0.00016503874212503433,0.0014621266163885593
1761341825775315700,8.009315673828125,-0.0016391072422266006,0.0014300411567091942,-0.0026790890842676163
1761341825785381600,8.019381591796876,-0.001482333056628704,-0.00019808486104011536,0.0007293103262782097
1761341825795447600,8.029447509765625,0.0007528578862547874,0.0011998079717159271,-0.0007205144502222538
1761341825805513700,8.039513671875,0.0005515632219612598,0.002995038405060768,0.0013683084398508072
1761341825815579600,8.04957958984375,0.0007321257144212723,-0.0011749397963285446,-0.001482072751969099
1761341825825646600,8.059646484375,0.00002745864912867546,0.0023917751386761665,0.0000833757221698761
1761341825835712800,8.069712646484374,0.0006991075351834297,0.002190972678363323,0.0013427846133708954
1761341825845778700,8.07977880859375,0.00008859159424901009,-0.0013903798535466194,0.0016201185062527657
1761341825855844900,8.089844970703124,-0.0001873117871582508,-0.0011930391192436218,0.00019958801567554474
1761341825865910800,8.099910888671875,0.0003453204408288002,0.002778293564915657,-0.0007654628716409206
1761341825875977700,8.109977783203124,0.001238811295479536,0.000045890919864177704,-0.001492505893111229
1761341825886043600,8.120043701171875,-0.0009161927737295628,0.00006812252104282379,0.000021680723875761032
1761341825896109600,8.130109619140624,0.00011231983080506325,-0.0014171218499541283,-0.0006675454787909985
1761341825906175500,8.140175537109375,0.001283387653529644,0.00008683744817972183,-0.00018062395974993706
1761341825916241700,8.15024169921875,0.001788589172065258,0.0008506318554282188,0.0013139420188963413
1761341825926307600,8.1603076171875,0.000876501202583313,0.001389944925904274,-0.0005956888198852539
1761341825936374800,8.170374755859376,-0.000712074339389801,0.0008738236501812935,-0.0005623991601169109
1761341825946440700,8.180440673828125,-0.0008048443123698235,-0.0005844421684741974,-0.0012092841789126396
1761341825956506600,8.190506591796876,-0.00002347305417060852,0.00039533432573080063,-0.0008076797239482403
1761341825966572800,8.20057275390625,-0.00043415138497948647,-0.0008089058101177216,-0.0038899423088878393
1761341825976638500,8.210638427734375,0.0004960908554494381,-0.00025576725602149963,0.0012853783555328846
1761341825986704600,8.22070458984375,-0.0004183109849691391,-0.00007260870188474655,-0.0009743361733853817
1761341825996771600,8.230771484375,0.0003076666034758091,-0.00016795005649328232,-0.0010430454276502132
1761341826006837500,8.24083740234375,0.0006721890531480312,0.001572292298078537,0.00008181435987353325
1761341826016903700,8.250903564453125,0.00270311557687819,-0.0020008711144328117,0.0010301657021045685
1761341826026969600,8.260969482421874,0.0007843524217605591,0.0006149979308247566,0.0015448625199496746
1761341826037035800,8.271035888671875,-0.00036773085594177246,0.00243979599326849,0.000459092203527689
1761341826047101700,8.281101806640624,0.0020773853175342083,-0.0027344925329089165,0.0018394766375422478
1761341826057168600,8.291168701171875,-0.0006414358504116535,0.002071182243525982,0.0004674158990383148
1761341826067234800,8.30123486328125,-0.0005420176312327385,-0.00033211614936590195,-0.0005705328658223152
1761341826077300500,8.311300537109375,-0.0005185818299651146,-0.004097026772797108,-0.0010629515163600445
1761341826087366700,8.32136669921875,-0.003196156118065119,0.0013179965317249298,0.00008027162402868271
1761341826097432600,8.3314326171875,0.0007519801147282124,-0.000798417255282402,0.0006200945936143398
1761341826107498800,8.341498779296876,0.0017348630353808403,0.0003305552527308464,0.00029137590900063515
1761341826117565700,8.351565673828125,-0.0014622616581618786,0.0015968875959515572,-0.0004074373282492161
1761341826127631600,8.361631591796876,0.00037454860284924507,-0.00014183111488819122,-0.00021398672834038734
1761341826137697800,8.37169775390625,-0.0011312025599181652,-0.0018228180706501007,-0.0015506269410252571
1761341826147763700,8.381763671875,0.0022750189527869225,0.0006389198824763298,-0.00040066707879304886
1761341826157830000,8.391829833984374,-0.0011689807288348675,-0.0013949358835816383,0.0005748490802943707
1761341826167895600,8.4018955078125,-0.0007766629569232464,0.0012452639639377594,-0.0006185220554471016
1761341826177962500,8.41196240234375,0.0009631798602640629,-0.00007353350520133972,0.0006981445476412773
1761341826188028700,8.422028564453125,0.0015394017100334167,-0.0003682998940348625,0.0021989992819726467
1761341826198094600,8.432094482421874,-0.0027746534906327724,0.00006792601197957993,0.00035848887637257576
1761341826208160500,8.442160400390625,0.001141225453466177,0.00032171234488487244,0.0002878881059587002
1761341826218226700,8.452226806640626,-0.0002433517947793007,-0.00014807004481554031,-0.000440752599388361
1761341826228293600,8.462293701171875,-0.000333655159920454,-0.0017213942483067513,0.002211681567132473
1761341826238359800,8.47235986328125,-0.00029503926634788513,0.0010269880294799805,0.0016316454857587814
1761341826248425700,8.48242578125,0.0006065629422664642,0.0014744158834218979,-0.0010669869370758533
1761341826258491600,8.49249169921875,-0.0002706823870539665,0.00044164154678583145,0.00017537781968712807
1761341826268557600,8.5025576171875,-0.0005872189067304134,0.0005554845556616783,0.0008411076851189137
1761341826278623500,8.51262353515625,-0.0008391537703573704,-0.001713528297841549,-0.002164003439247608
1761341826288690700,8.522690673828125,0.002427430124953389,0.00018704775720834732,0.0007575945928692818
1761341826298756600,8.532756591796876,0.0016828104853630066,0.0004842560738325119,-0.0024097030982375145
1761341826308822500,8.542822509765625,0.0008114250376820564,-0.0010316567495465279,0.0015816581435501575
1761341826318888700,8.552888671875,0.0002686725929379463,0.0014075329527258873,-0.0008631236851215363
1761341826328954600,8.56295458984375,0.0005565662868320942,0.0001302352175116539,0.0023806248791515827
1761341826339020800,8.573020751953125,-0.0004088296554982662,-0.00030306074768304825,0.0023137792013585567
1761341826349087700,8.583087646484374,-0.00117475725710392,0.0004093637689948082,0.001482074148952961
1761341826359153700,8.593153564453125,0.0011254148557782173,-0.0017185015603899956,-0.001207185909152031
1761341826369219600,8.603219482421874,-0.00002905959263443947,0.0022755712270736694,-0.0025699324905872345
1761341826379285500,8.613285400390625,0.0005392590537667274,-0.0021098563447594643,-0.003914828412234783
1761341826389351700,8.6233515625,0.001099944580346346,-0.0005845120176672935,-0.001510226633399725
1761341826399417600,8.63341748046875,-0.0013168742880225182,0.0013356264680624008,0.0019928952679038048
1761341826409484500,8.643484619140626,-0.002373947761952877,-0.003132498823106289,0.0004119318909943104
1761341826419550700,8.65355078125,0.000350200105458498,-0.0011697495356202126,0.0026327413506805897
1761341826429616600,8.66361669921875,0.000741373747587204,-0.000058735720813274384,0.0013312241062521935
1761341826439682800,8.673682861328125,0.0006707999855279922,-0.0009029582142829895,0.0035933135077357292
1761341826449748700,8.683748779296875,-0.00047973543405532837,-0.0007038172334432602,0.0005058967508375645
1761341826459814700,8.693814697265625,0.0014611762017011642,-0.0006542820483446121,-0.001665111631155014
1761341826469881600,8.703881591796875,-0.002312963828444481,-0.0002149473875761032,-0.0016197781078517437
1761341826479947500,8.713947509765624,0.00014646537601947784,0.0009310105815529823,0.0014700214378535748
1761341826490013700,8.724013671875,-0.001822217833250761,-0.0009728642180562019,-0.00002568773925304413
1761341826500079600,8.73407958984375,0.003094510408118367,0.00015445146709680557,0.001786593347787857
1761341826510145800,8.744145751953125,-0.0007587382569909096,-0.0003202725201845169,-0.000990406610071659
1761341826520212700,8.754212646484374,0.00026391586288809776,0.0033346498385071754,-0.0006314124912023544
1761341826530278700,8.764278564453125,-0.00009476486593484879,-0.0011506220325827599,-0.0006126239895820618
1761341826540344800,8.7743447265625,-0.0009573628194630146,0.0013202587142586708,0.0014007259160280228
1761341826550410800,8.78441064453125,-0.0003487630747258663,-0.0003731353208422661,0.0003073369152843952
1761341826560476400,8.794476318359376,-0.0008550300262868404,-0.0020357463508844376,-0.0008181151933968067
1761341826570542600,8.80454248046875,0.001056875567883253,0.0004200749099254608,-0.0007443791255354881
1761341826580609500,8.814609619140626,0.0020417124032974243,0.0005958434194326401,-0.0008996413089334965
1761341826590675700,8.82467578125,-0.0017112190835177898,0.001459471881389618,0.0013368395157158375
1761341826600741600,8.83474169921875,-0.0004571364261209965,0.00048129353672266006,-0.0006751785986125469
1761341826610807600,8.8448076171875,0.0006377790123224258,0.001408727839589119,0.0011094766668975353
1761341826620873700,8.854873779296875,0.00014482811093330383,0.0019432241097092628,0.001456220168620348
1761341826630939600,8.864939697265624,-0.000398408155888319,0.003961371257901192,0.002578429412096739
1761341826641006600,8.875006591796875,-0.00022050878033041954,-0.0007995618507266045,-0.0004892656579613686
1761341826651072800,8.88507275390625,-0.0011236835271120071,0.00007739663124084473,-0.002213201019912958
1761341826661138400,8.895138427734375,-0.0005548326298594475,-0.00022700242698192596,0.0001831110566854477
1761341826671204600,8.90520458984375,0.00013909628614783287,-0.0005449429154396057,0.0032843858934938908
1761341826681270500,8.9152705078125,0.002068290486931801,0.0006596045568585396,-0.0005955733358860016
1761341826691336700,8.925336669921874,0.0008603991009294987,-0.002193908207118511,-0.00013625714927911758
1761341826701403600,8.935403564453125,-0.0017433734610676765,0.0012484937906265259,0.0005092928186058998
1761341826711469600,8.945469482421874,-0.0011445307172834873,0.00029323063790798187,0.0010046628303825855
1761341826721535700,8.95553564453125,-0.0008270819671452045,-0.0006878785789012909,-0.0011391816660761833
1761341826731601700,8.9656015625,-0.0005873837508261204,-0.00045374780893325806,-0.0006973803974688053
1761341826741667800,8.975667724609375,0.00012740865349769592,-0.0008207308128476143,-0.0007112286984920502
1761341826751733200,8.985733154296875,-0.0005652536638081074,0.0006572948768734932,-0.002017117105424404
1761341826761800200,8.99580029296875,-0.0004179808311164379,-0.0030098771676421165,-0.0011609108187258244
1761341826771866000,9.0058662109375,-0.0012796977534890175,-0.0005183108150959015,-0.000935632735490799
1761341826781932000,9.01593212890625,0.0016359309665858746,0.0007786490023136139,-0.0020997002720832825
1761341826791998200,9.025998291015625,-0.001019415445625782,-0.0016511715948581696,-0.0013003591448068619
1761341826802064100,9.036064208984374,0.00022641150280833244,-0.0008650068193674088,0.0028070337139070034
1761341826812130300,9.04613037109375,-0.0006577614694833755,0.0017501115798950195,-0.0021292581222951412
1761341826822197200,9.056197265625,-0.0004385830834507942,0.0006073489785194397,0.0019935816526412964
1761341826832263200,9.06626318359375,-0.0016701659187674522,0.0017563877627253532,-0.0014174883253872395
1761341826842329300,9.076329345703124,0.00021242257207632065,-0.000001564621925354004,-0.0007519642822444439
1761341826852395300,9.086395263671875,0.00018724752590060234,0.000589367002248764,-0.0000033229589462280273
1761341826862461200,9.096461181640626,-0.0012801545672118664,-0.0026096226647496223,0.0011130739003419876
1761341826872527000,9.106527099609375,0.0010553761385381222,0.0003959638997912407,-0.0025510755367577076
1761341826882594000,9.116593994140626,0.0000577559694647789,0.0010790647938847542,-0.002133758272975683
1761341826892660200,9.12666015625,-0.0005103922449052334,0.0005605202168226242,-0.002281514462083578
1761341826902726100,9.13672607421875,0.0003743101842701435,0.0007711760699748993,-0.0025017578154802322
1761341826912792300,9.146792236328125,-0.00029138755053281784,-0.00027795135974884033,0.0008268631063401699
1761341826922858200,9.156858154296875,0.00021168356761336327,0.00029010046273469925,0.0015829349867999554
1761341826932925200,9.16692529296875,0.0007054428569972515,0.001980941742658615,-0.0009852685034275055
1761341826942991400,9.176991455078126,-0.0013265488669276237,0.001499176025390625,-0.0029067392461001873
1761341826953057300,9.187057373046875,-0.0019405614584684372,0.0003668610006570816,0.0009221476502716541
1761341826963123200,9.197123291015625,-0.0015610605478286743,0.003279825672507286,-0.0011303508654236794
1761341826973189000,9.207189208984374,0.000639923382550478,0.00024000369012355804,0.0035988041199743748
1761341826983255000,9.217255126953125,0.0026231794618070126,0.001599281094968319,-0.0017197947017848492
1761341826993322200,9.227322265625,0.0002985387109220028,-0.00026233214884996414,0.0001217457465827465
1761341827003388200,9.23738818359375,-0.0021939133293926716,-0.0005664648488163948,-0.0003893151879310608
1761341827013454000,9.2474541015625,-0.0004066820256412029,-0.00005342904478311539,0.002763836644589901
1761341827023520300,9.257520263671875,-0.001256497111171484,0.0012328783050179482,-0.00012089917436242104
1761341827033586200,9.267586181640626,0.001207674853503704,0.0005349665880203247,0.0023648380301892757
1761341827043652400,9.27765234375,0.0024487078189849854,0.0012676017358899117,0.0006489637307822704
1761341827053719300,9.28771923828125,-0.000586977694183588,0.0002891095355153084,0.004950211849063635
1761341827063785000,9.297784912109375,0.001016511581838131,0.000431588850915432,-0.0023907916620373726
1761341827073851100,9.30785107421875,-0.00043551623821258545,-0.0018458915874361992,0.0005328967235982418
1761341827083917000,9.3179169921875,0.0011120466515421867,0.0010481653735041618,-0.002165950834751129
1761341827093983200,9.327983154296875,0.0005531986244022846,0.0009841974824666977,-0.001016296911984682
1761341827104049200,9.338049072265624,-0.0001863613724708557,-0.0028672656044363976,0.002431164961308241
1761341827114116000,9.3481162109375,0.0006209188140928745,-0.0004489561542868614,-0.0012770178727805614
1761341827124182300,9.358182373046875,-0.00042437203228473663,0.0007473351433873177,0.0005786726251244545
1761341827134248200,9.368248291015625,-0.00014394428580999374,-0.0006853304803371429,0.0005607539787888527
1761341827144314400,9.378314453125,-0.00010186620056629181,0.0030300458893179893,-0.0011204998008906841
1761341827154380000,9.388380126953125,-0.00047945277765393257,-0.0015897629782557487,0.0004531298764050007
1761341827164446200,9.3984462890625,0.0011504017747938633,0.001122400164604187,0.001453679520636797
1761341827174513200,9.40851318359375,0.004418735392391682,0.0001044590026140213,-0.0013621817342936993
1761341827184579000,9.4185791015625,-0.0005512558855116367,-0.0011674659326672554,-0.00013579614460468292
1761341827194645200,9.428645263671875,0.0007807919755578041,0.0010986262932419777,-0.002407429739832878
1761341827204711200,9.438711181640626,-0.0026869098655879498,-0.0003274967893958092,-0.0012279157526791096
1761341827214777300,9.44877734375,0.002946733497083187,0.0006081229075789452,-0.0006964951753616333
1761341827224843300,9.45884326171875,-0.000486880075186491,0.0006781639531254768,-0.00024109473451972008
1761341827234910200,9.46891015625,-0.0018800115212798119,-0.0011241910979151726,-0.002879226114600897
1761341827244976400,9.478976318359376,-0.00027305958792567253,-0.0001204460859298706,-0.0035769743844866753
1761341827255042000,9.4890419921875,0.001043297816067934,-0.0010754335671663284,0.0004337383434176445
1761341827265108200,9.499108154296875,0.001347697339951992,0.0006202012300491333,-0.0010941168293356895
1761341827275174100,9.509174072265624,-0.002771301195025444,0.00027857255190610886,0.0003391178324818611
1761341827285240000,9.519239990234375,0.00009399326518177986,-0.0003227684646844864,0.0003492375835776329
1761341827295307300,9.529307373046874,-0.001992303878068924,0.002170788124203682,0.0016293246299028397
1761341827305373200,9.539373291015625,0.0008748550899326801,-0.0008079567924141884,0.0009712576866149902
1761341827315439000,9.549439208984374,0.0013058478944003582,0.0008410010486841202,0.0003961031325161457
1761341827325505300,9.55950537109375,0.000020073726773262024,-0.00028019025921821594,-0.0024393643252551556
1761341827335571200,9.5695712890625,0.0016429652459919453,-0.00028731394559144974,-0.0011518876999616623
1761341827345637000,9.57963720703125,-0.0014252625405788422,0.001052255742251873,-0.0018632179126143456
1761341827355704300,9.589704345703124,-0.00032039033249020576,0.0007808702066540718,0.0028435252606868744
1761341827365770000,9.59977001953125,-0.0009582173079252243,0.0007736794650554657,0.0001635863445699215
1761341827375836200,9.609836181640626,-0.00017323344945907593,0.0017189737409353256,0.001469348557293415
1761341827385902000,9.619902099609375,0.00024514924734830856,0.0002840626984834671,-0.0011799638159573078
1761341827395968300,9.62996826171875,0.000672568567097187,-0.000556248240172863,-0.00013886531814932823
1761341827406034200,9.6400341796875,0.0013985461555421352,0.0006371140480041504,-0.0006667035631835461
1761341827416101000,9.65010107421875,0.0011727605015039444,0.0014143064618110657,0.0017735711298882961
1761341827426167300,9.660167236328125,-0.0013236869126558304,0.0021605240181088448,-0.0024848240427672863
1761341827436233200,9.670233154296875,-0.0002809623256325722,-0.0006863605231046677,0.000790418591350317
1761341827446299100,9.680299072265624,-0.0007600649259984493,0.00023296289145946503,0.00039067817851901054
1761341827456365000,9.690364990234375,-0.0003210012800991535,-0.00013106223195791245,0.00008202902972698212
1761341827466431200,9.70043115234375,0.0004150965251028538,-0.0009073745459318161,0.0010074772872030735
1761341827476498200,9.710498291015625,-0.0005227006040513515,0.0016850084066390991,0.0023452327586710453
1761341827486564000,9.720564208984374,0.0010919738560914993,-0.0004838695749640465,0.00043654488399624825
1761341827496630300,9.73063037109375,-0.0016403724439442158,0.0012054629623889923,0.00011090049520134926
1761341827506696200,9.7406962890625,-0.001864877063781023,0.0017002783715724945,0.0036659543402493
1761341827516762400,9.750762451171875,-0.0002475236542522907,0.0009395275264978409,0.004273692611604929
1761341827526828300,9.760828369140626,-0.00006110267713665962,0.000040444545447826385,-0.0003570117987692356
1761341827536895200,9.770895263671875,-0.0001840800978243351,-0.00017142761498689651,0.0005990085192024708
1761341827546961400,9.78096142578125,0.0001528100110590458,-0.002250291407108307,0.001996102277189493
1761341827557027000,9.791027099609375,-0.00004674075171351433,-0.0009652888402342796,-0.0011155218817293644
1761341827567093200,9.80109326171875,0.0002824258990585804,-0.0009578317403793335,-0.001254272647202015
1761341827577159200,9.8111591796875,-0.0009482637979090214,-0.0011217165738344193,0.0016134059987962246
1761341827587225000,9.82122509765625,0.0035468859132379293,-0.002758229151368141,-0.00023988774046301842
1761341827597292300,9.831292236328125,0.00022395281121134758,-0.0012151896953582764,0.0008052787743508816
1761341827607358200,9.841358154296875,0.000638873316347599,0.0010692700743675232,0.0008566775359213352
1761341827617424100,9.851424072265624,-0.0004391958937048912,0.0011530425399541855,0.0015543377958238125
1761341827627490300,9.861490234375,0.0017986581660807133,0.0006363894790410995,0.0023658028803765774
1761341827637556000,9.871555908203124,-0.002549599390476942,0.0003110002726316452,-0.0007835710421204567
1761341827647622100,9.8816220703125,-0.00034103961661458015,-0.0009377561509609222,0.0017624106258153915
1761341827657689000,9.891689208984374,-0.00005512358620762825,0.001005939207971096,-0.001983810681849718
1761341827667755000,9.901755126953125,0.0020767366513609886,0.0003699762746691704,-0.0012820679694414139
1761341827677821200,9.9118212890625,-0.0019281292334198952,0.0016653556376695633,-0.0011467104777693748
1761341827687887000,9.92188720703125,-0.0003137211315333843,-0.00043268315494060516,0.000760379247367382
1761341827697953300,9.931953369140626,0.0005947663448750973,-0.0007696244865655899,-0.00046802544966340065
1761341827708019200,9.942019287109375,-0.000929627101868391,0.0006498396396636963,-0.0041855317540466785
1761341827718086100,9.952086181640626,-0.0026348927058279514,-0.00010191928595304489,0.0019623609259724617
1761341827728152300,9.96215234375,-0.0017682998441159725,-0.00012668687850236893,-0.0004944051615893841
1761341827738218200,9.97221826171875,0.00005656201392412186,-0.0010432498529553413,0.0009442269802093506
1761341827748284200,9.9822841796875,-0.0003825933672487736,0.00028140656650066376,0.00007523689419031143
1761341827758350000,9.99235009765625,-0.0005937078967690468,-0.00010528229176998138,0.00043250061571598053
1761341827768416300,10.002416259765624,-0.000288509763777256,0.0000707525759935379,0.000015715602785348892
1761341827778483200,10.012483154296875,-0.0022297902032732964,0.002711472101509571,0.0009734765626490116
1761341827788549000,10.022549072265624,-0.00033788103610277176,0.0012243632227182388,-0.00285641523078084
1761341827798615300,10.032615234375,0.0011282507330179214,0.0007788361981511116,-0.0005786595866084099
1761341827808681200,10.04268115234375,0.0005857651121914387,0.001774858683347702,-0.0033379606902599335
1761341827818747400,10.052747314453125,-0.0025815190747380257,-0.0024102218449115753,-0.0011755558662116528
1761341827828814300,10.062814453125,-0.002624128945171833,0.0007312428206205368,-0.00025703199207782745
1761341827838880300,10.07288037109375,-0.004106750246137381,0.06696762144565582,0.027180971577763557
1761341827848946200,10.0829462890625,-0.0011546364985406399,-0.010146865621209145,-0.003999584354460239
1761341827859012000,10.09301220703125,0.0033476646058261395,0.00523778609931469,0.0024134074337780476
1761341827869078300,10.103078369140626,-0.0001778281293809414,-0.013334299437701702,-0.005687396042048931
1761341827879144200,10.113144287109375,0.0014469888992607594,-0.009670319966971874,-0.0032360488548874855
1761341827889211100,10.123211181640626,-0.0009439969435334206,-0.005823384039103985,-0.002551083918660879
1761341827899277300,10.13327734375,-0.0016811140812933445,-0.0012573981657624245,0.0013446738012135029
1761341827909343200,10.14334326171875,0.00011119339615106583,0.0033634528517723083,-0.00015681656077504158
1761341827919409200,10.1534091796875,-0.00002781488001346588,0.001124480739235878,-0.0011061262339353561
