time,seconds_elapsed,z,y,x
1761341768609324300,0.08232421875,-0.07132569906711578,0.0030928697151131924,0.001108143904991448
1761341768619391200,0.09239111328125,-0.06295242299735546,-0.0029313772767782208,-0.0032824694365030153
1761341768629457200,0.10245703125,-0.0744745184868574,-0.0027625052495859562,-0.001976601869170554
1761341768639523300,0.1125234375,-0.06818915460705757,-0.008024754893034697,-0.0008217007795814424
1761341768649590300,0.12259033203125,-0.06190671333670616,-0.0064836994634941214,0.00748977123349905
1761341768659656200,0.13265625,-0.06849310598969459,-0.004897891576774418,0.00553498390391469
1761341768669722400,0.142722412109375,-0.05696984145641327,0.0025261574767529963,-0.004991963068395853
1761341768679789300,0.152789306640625,-0.06295593012869358,-0.011080598799698055,-0.003237922475300729
1761341768689855200,0.162855224609375,-0.07283201197683811,-0.007792188246175646,-0.0017343312456272542
1761341768699921700,0.172921630859375,-0.07253449033498764,-0.004302081108093261,-0.004555631177476607
1761341768709988600,0.182988525390625,-0.06295709917247296,0.004181249473709613,0.0031440793125424534
1761341768720054500,0.193054443359375,-0.06639759501516819,0.0003861497733741998,-0.0013691603282000868
1761341768730120700,0.20312060546875,-0.06594751316010952,-0.007928765438962728,0.0004130286471452564
1761341768740187600,0.213187744140625,-0.06086217271983623,-0.005919964633509516,0.0029653160789981483
1761341768750253600,0.223253662109375,-0.06939151613414288,-0.006082717447169125,-0.003941358036920428
1761341768760319500,0.233319580078125,-0.06595102029144763,-0.0010901881231926381,0.007807970337197184
1761341768770386400,0.243386474609375,-0.07163724923431873,-0.00570058626178652,0.002964462129049934
1761341768780452600,0.25345263671875,-0.06729658968150615,-0.005632836521510034,-0.001076675621070899
1761341768790518500,0.2635185546875,-0.06460369733572006,0.0016956797356717287,-0.0027924026309279724
1761341768800585500,0.27358544921875,-0.060711366072297095,0.0030959932539612054,-0.013653878787229769
1761341768810651600,0.283651611328125,-0.061608022651076316,-0.0068285491121001535,-0.0012811897838022558
1761341768820717600,0.293717529296875,-0.06819149269461632,-0.008806753849890082,0.0006913386984495446
1761341768830784500,0.303784423828125,-0.06849544407725333,-0.005027892898302525,0.003722290192451328
1761341768840850700,0.3138505859375,-0.0687976418942213,-0.0005942030334845185,-0.011443326598289422
1761341768850916600,0.32391650390625,-0.07089549095630646,-0.0015234284413047133,-0.006387244218541309
1761341768860983600,0.333983642578125,-0.07119535068571567,-0.011684318580199032,-0.0046380807299632575
1761341768871049700,0.3440498046875,-0.06940028396248817,-0.00011624679081141948,-0.00028449776349589225
1761341768881115600,0.35411572265625,-0.06805296100676059,-0.0035845074232667682,0.00005147902548778802
1761341768891182600,0.3641826171875,-0.07104512856006621,-0.00938157632946968,-0.002280927711143158
1761341768901248500,0.37424853515625,-0.06775485484302043,-0.005104264336451888,0.009123578413832
1761341768911314400,0.384314453125,-0.06431669708788394,-0.0049781902713701125,-0.0027423438109690323
1761341768921381400,0.39438134765625,-0.06925298444628715,-0.00354603857640177,-0.00632278241389431
1761341768931447600,0.404447509765625,-0.06521335366666317,-0.00456845869300887,-0.012026209086738526
1761341768941513500,0.414513427734375,-0.0670066668242216,-0.00571989375045523,-0.001266489971592091
1761341768951580400,0.424580322265625,-0.06894844854176044,-0.0002031396229751408,0.0003527224278077483
1761341768961646600,0.434646484375,-0.07238952890634537,-0.004727101587131619,-0.013112616083957255
1761341768971712500,0.44471240234375,-0.06385609383881091,-0.006087028296105563,-0.002667538708820939
1761341768981779500,0.454779541015625,-0.06026303778290748,-0.004432539087347686,-0.005851150880730711
1761341768991845600,0.464845703125,-0.0647539194613695,-0.0028585860352031887,0.002062585952458903
1761341769001911600,0.47491162109375,-0.06789747818410397,0.0007879537736065685,-0.0010376907509751618
1761341769011978800,0.484978759765625,-0.06745031893849372,-0.0051488158642314374,-0.0024647918114904313
1761341769022044700,0.495044677734375,-0.0664057783216238,-0.0029306648907251654,0.0021772070417646317
1761341769032110600,0.505110595703125,-0.0652075084477663,-0.006857501211948692,-0.0030331114850472656
1761341769042177800,0.515177734375,-0.06355798767507076,-0.008469009795505553,-0.0007987674285657704
1761341769052243500,0.525243408203125,-0.07941957367360591,0.0006630487523041665,-0.009447481172531842
1761341769062309400,0.535309326171875,-0.07568214071094989,-0.0009489712879061699,-0.013449647752288728
1761341769072376600,0.54537646484375,-0.05967150163054466,-0.007200615561194717,0.0015378222928382455
1761341769082442500,0.5554423828125,-0.0701437958061695,-0.002834584105107933,-0.003716828566044569
1761341769092508700,0.5655087890625,-0.06549684678316116,-0.003666833678167313,-0.0047635885394643985
1761341769102575600,0.57557568359375,-0.06415069287121296,-0.0035134697473607956,-0.007252153952186926
1761341769112641500,0.5856416015625,-0.06909165640473365,-0.0040049795913510025,-0.009200324311316944
1761341769122708500,0.59570849609375,-0.06729366707205772,-0.006304379107523709,-0.010242453775391914
1761341769132774700,0.605774658203125,-0.06863748289644718,-0.00027362930960953235,-0.003995636374270543
1761341769142840600,0.615840576171875,-0.06504793397188187,0.0019172135318629442,-0.0012490821790648624
1761341769152906800,0.62590673828125,-0.07103226907849311,-0.000027399463579058644,-0.0044066648605745285
1761341769162973700,0.6359736328125,-0.05831774893403053,-0.0037322270645759998,0.001139566523139365
1761341769173039600,0.64603955078125,-0.0728366881519556,-0.001425429693236947,-0.0032667741104494778
1761341769183105500,0.65610546875,-0.0661047495484352,-0.005988225830439477,0.002080085076531395
1761341769193172500,0.66617236328125,-0.06670563805103302,-0.0056163785770535464,-0.004570563885127194
1761341769203238400,0.67623828125,-0.07897650608122349,-0.005445826049428433,0.00007329813165124506
1761341769213304600,0.6863046875,-0.06879939545989036,-0.00046306920079514384,0.0045898302746005355
1761341769223371500,0.69637158203125,-0.05907119764983654,-0.004858692077547312,-0.005333725710771978
1761341769233437400,0.7064375,-0.06924480113983154,0.0010489793299697338,0.0031991842003772034
1761341769243503600,0.716503662109375,-0.06700082160532474,-0.0030010084468871353,-0.0023513625988503917
1761341769253570600,0.726570556640625,-0.06595511194467545,-0.006520871402416378,-0.0029794131030095737
1761341769263636500,0.736636474609375,-0.06356207932829856,0.007627791464701294,-0.00030603830844629554
1761341769273703700,0.74670361328125,-0.06700491325855255,-0.0014835530886426567,-0.004578619327419437
1761341769283769600,0.75676953125,-0.06610767215788364,-0.0005318053217604756,-0.0005093834273982793
1761341769293835500,0.76683544921875,-0.0620662878125906,-0.0070164181007072324,0.00023933888094034044
1761341769303901700,0.776901611328125,-0.07508125220835209,0.0018180092073976993,0.0017702976081520319
1761341769313968600,0.78696875,-0.06445522877573967,-0.006792728880047798,0.00040266708333510905
1761341769324034800,0.797034912109375,-0.06580255173146725,-0.005894483132380991,-0.0011976899185450747
1761341769334101800,0.807101806640625,-0.07568155618906021,-0.004890913846716284,-0.0041159611185779795
1761341769344167400,0.81716748046875,-0.07358662973642349,-0.003863890620227903,-0.00007744001722894608
1761341769354233600,0.827233642578125,-0.0599701923161745,-0.0024239392112940547,0.0032719937082612885
1761341769364299500,0.837299560546875,-0.06715221277475357,-0.00228301463695243,-0.006369142306270077
1761341769374366500,0.847366455078125,-0.060120414441823956,-0.0025386698984540997,-0.003570031373342499
1761341769384432600,0.8574326171875,-0.06520867749154567,-0.0024994521329179406,0.0012795686488738282
1761341769394499600,0.86749951171875,-0.06939969944059848,-0.0028978951322846114,-0.0012537720539141446
1761341769404565500,0.8775654296875,-0.0672989277690649,-0.00028449776349589225,-0.003390085396287031
1761341769414631700,0.887631591796875,-0.06939385422170162,0.0020173859707079828,-0.004165956006455235
1761341769424697600,0.897697509765625,-0.05996902327239513,-0.0035858956627547738,0.0062527539515635
1761341769434764500,0.9077646484375,-0.06550736817717552,-0.00040136560881510374,-0.0005324537757318467
1761341769444830700,0.917830810546875,-0.06984627416431903,-0.005064206320699304,0.0019469602161552755
1761341769454897700,0.927897705078125,-0.07418927180469036,-0.0036144276374951005,-0.0016607317198766393
1761341769464963600,0.937963623046875,-0.0696995591700077,0.0008129786170087755,-0.0011308260942576452
1761341769475029500,0.948029541015625,-0.07074819144010544,-0.0007965389388613402,-0.0029782212263438847
1761341769485095400,0.958095458984375,-0.07059972288012505,0.0016730112461373209,-0.01193069912327919
1761341769495162400,0.968162353515625,-0.0602753127425909,-0.0029382454089820383,-0.0046003927678102624
1761341769505228500,0.978228515625,-0.060873278635740276,-0.004615256976801901,-0.0023314203559421003
1761341769515295500,0.98829541015625,-0.06356734002530574,-0.012056622491311281,-0.000908159786905162
1761341769525361700,0.998361572265625,-0.07239946577847003,-0.005785962990298867,-0.001453564375755377
1761341769535427600,1.008427490234375,-0.06596621786057949,0.0008902633706107735,-0.001613408279698342
1761341769545493500,1.018493408203125,-0.07255494860112667,0.00005353855183348059,0.002146574441483244
1761341769555560700,1.028560791015625,-0.066871642267704,-0.0011755283190868794,0.002466157218092121
1761341769565626600,1.038626708984375,-0.06912088249921798,0.0009665434772148728,-0.006128232522751204
1761341769575692500,1.048692626953125,-0.06792261262536048,-0.005376176613010466,0.0019339317712234333
1761341769585759700,1.058759765625,-0.06433306370079517,0.002720912863872945,0.0005762061524903401
1761341769595825700,1.06882568359375,-0.06673135701417923,-0.0035037338046357033,-0.01084254769354593
1761341769605891600,1.0788916015625,-0.074217913377285,-0.003001940028648823,-0.0052064460692927235
1761341769615958800,1.088958740234375,-0.0697258626550436,0.000011288578994572162,0.0009459893129533157
1761341769626024400,1.0990244140625,-0.07361351774334907,-0.0004062975122593343,0.009913034591358155
1761341769636090600,1.109090576171875,-0.06642799015343188,0.0012954466380178929,0.0026983357058838007
1761341769646157600,1.119157470703125,-0.05715104324221611,0.0005554601919837296,-0.005373322502220981
1761341769656223500,1.129223388671875,-0.06164309396445751,-0.0020424656130373477,-0.01154831220956985
1761341769666289700,1.13928955078125,-0.07526479208171367,-0.00501010151328519,-0.0067794812394073225
1761341769676356600,1.149356689453125,-0.07017594451010227,-0.006396313440985978,-0.005441990124527365
1761341769686422500,1.159422607421875,-0.06988368356525898,-0.0005342164745554327,-0.00040574038983322676
1761341769696488200,1.16948828125,-0.0685404522627592,0.0021493600536137817,-0.0002866303550777957
1761341769706555100,1.17955517578125,-0.06719488287270069,0.0006974442122504114,-0.003035577436769381
1761341769716621000,1.18962109375,-0.07647358334958552,0.007494739669561386,0.0054183078548405315
1761341769726687000,1.19968701171875,-0.07228431496620177,-0.0019299451492726801,0.0014570943399798125
1761341769736754200,1.209754150390625,-0.0615127455830574,0.000228767254576087,-0.0044925256462767715
1761341769746820000,1.219820068359375,-0.05777180548906326,-0.004097407115157693,-0.003098550537228584
1761341769756886000,1.229885986328125,-0.05701952581703663,0.0021817096869461237,-0.0021617491777287793
1761341769766953000,1.239952880859375,-0.06973755309283733,0.0020216968196444213,-0.0060338596370304
1761341769777019100,1.25001904296875,-0.06883914294838905,-0.0016111615236848592,-0.003842660602531396
1761341769787085000,1.2600849609375,-0.06120879420042038,0.0035548064047470685,-0.0006342793155461549
1761341769797152000,1.270152099609375,-0.0646492900431156,0.005280369822029024,0.0023447364952415227
1761341769807218200,1.28021826171875,-0.06300093831419945,-0.003642813481763005,-0.0104178834075341
1761341769817284000,1.2902841796875,-0.07272621351480484,0.004840772828366607,-0.005889487296855077
1761341769827351000,1.30035107421875,-0.07048223398029804,-0.0017284860267303883,0.0019669115922180936
1761341769837417200,1.310417236328125,-0.07377601482868194,-0.009158873489499092,0.008618250107043422
1761341769847483100,1.320483154296875,-0.06135375562906265,-0.005365034164488316,0.002083103584102355
1761341769857550000,1.330550048828125,-0.061207625156641,-0.0038703020947054028,-0.00806061622428242
1761341769867616300,1.3406162109375,-0.07077975562214851,-0.003307955504208803,0.00018151231305673718
1761341769877682000,1.350681884765625,-0.06823942348957061,-0.0010798859248869121,0.012723479769052937
1761341769887748900,1.360748779296875,-0.06854220582842827,-0.004228102556429803,0.0003578735269606113
1761341769897815000,1.37081494140625,-0.0751326901346445,-0.0044062538686208425,-0.0037804820865159853
1761341769907881000,1.380880859375,-0.06839782892167567,-0.004717566573806107,-0.004474286736687645
1761341769917948000,1.390947998046875,-0.07782675152420997,-0.00059144482081756,-0.00034046116785611954
1761341769928014000,1.40101416015625,-0.07752572275102138,-0.0030385457119904455,-0.0007462791895028203
1761341769938080000,1.411080078125,-0.06405833841264248,-0.0030436968111433086,-0.00272183987905737
1761341769948147000,1.42114697265625,-0.07677695021033287,0.004007628206163644,-0.003885499663837254
1761341769958213000,1.431213134765625,-0.06869593508541584,0.00022741554770618676,-0.002288293600268662
1761341769968279000,1.441279052734375,-0.06794540897905826,0.000021974369790405033,-0.00528700505879242
1761341769978346000,1.451345947265625,-0.07572597985267639,0.009428593808971346,0.001965523352730088
1761341769988412200,1.461412109375,-0.07617606170773505,-0.003393368765339255,0.000012759016873314977
1761341769998478000,1.47147802734375,-0.06974339831173419,0.001367379363067448,0.0007610566335264592
1761341770008545300,1.481545166015625,-0.06839549083411693,-0.0013545746804215014,0.0030487702784826975
1761341770018611000,1.49161083984375,-0.07183481763303279,0.0018397826477885245,-0.000022020035563036798
1761341770028676900,1.5016767578125,-0.07737023992836475,-0.005350658579263836,0.0002232188632013276
1761341770038744000,1.511744140625,-0.06779226424396037,-0.0015011252779513597,-0.002261432992806658
1761341770048810000,1.52181005859375,-0.06584989800453185,-0.00021159692406654356,-0.006999498931947164
1761341770058876200,1.531876220703125,-0.06600187369585037,0.001531027225870639,-0.002975371682131663
1761341770068943000,1.541943115234375,-0.06031564475297928,-0.0009855769712477922,-0.004246250134473667
1761341770079009000,1.552009033203125,-0.05732055459022522,-0.0019578560695052145,0.000819412924372591
1761341770089075200,1.5620751953125,-0.05866378589272499,-0.005092117240931838,-0.003989813988259993
1761341770099142100,1.57214208984375,-0.07108370700478553,-0.0020827062918804583,-0.001507349522761069
1761341770109208000,1.5822080078125,-0.06749649616777896,0.0036214419001713394,0.0035765981114469466
1761341770119274200,1.592274169921875,-0.06600421178340911,0.0027475268761627375,-0.006122757196612655
1761341770129341200,1.602341064453125,-0.06854980461299419,-0.0030436420122161504,-0.004752135563688352
1761341770139407000,1.612406982421875,-0.06720306617915629,-0.004422163823805749,0.0012445841004606335
1761341770149473300,1.622473388671875,-0.06795476132929325,-0.0018902341933920979,0.00344882527962327
1761341770159540200,1.632540283203125,-0.0609200403869152,-0.003284501563385129,0.004895873149624094
1761341770169606000,1.64260595703125,-0.07543254986405372,-0.004597520390711724,-0.006823996234568767
1761341770179672000,1.652672119140625,-0.06121580846309661,-0.0016062844191677868,0.0004959759565535932
1761341770189739000,1.662739013671875,-0.0661532648652792,0.00017910116026178,0.0024849167174892496
1761341770199805000,1.672804931640625,-0.07048983276486397,-0.0000668729574419558,0.006018401772994547
1761341770209871000,1.68287109375,-0.06540040067136288,-0.0005681370104663073,-0.005259738025953993
1761341770219938000,1.69293798828125,-0.07363280696570873,0.002488802874740213,-0.01057469967075158
1761341770230004000,1.70300390625,-0.07288578799068927,0.004601886038575321,-0.0029335464009782298
1761341770240070100,1.713070068359375,-0.0680962156265974,-0.0004089461270719766,0.002659104240615852
1761341770250137000,1.72313720703125,-0.06914367885291577,-0.0007320406015962361,0.00258435850397218
1761341770260203000,1.733203125,-0.07153671146929264,0.0028490875544957815,0.0008952774724457413
1761341770270269200,1.743269287109375,-0.05342822332680225,0.000025627631600946186,-0.004236614656448364
1761341770280336100,1.753336181640625,-0.05791852048337459,-0.0020004531022161246,-0.0013821431073592974
1761341770290402000,1.763402099609375,-0.06780044755041599,-0.0025014979595318434,-0.002707007636106573
1761341770300468000,1.773468017578125,-0.06600654987096786,0.0020701025386340916,-0.00400008878710214
1761341770310534000,1.783533935546875,-0.06824585323035717,0.004255410688463598,0.002774360084161162
1761341770320601000,1.79360107421875,-0.06809446206092834,-0.0021087905812077223,0.00038993089934810996
1761341770330667000,1.8036669921875,-0.0764747523933649,-0.005075714095402509,-0.0030820286606904118
1761341770340733000,1.81373291015625,-0.07109189031124115,-0.0033705358790233728,0.004710438146698288
1761341770350800100,1.823800048828125,-0.06914660146236419,0.0018691731390543282,-0.0014295533125055953
1761341770360866000,1.833865966796875,-0.055528994998335836,0.0018482216825708745,-0.002741357430280186
1761341770370932200,1.84393212890625,-0.06720072809159755,-0.0029014753288589415,-0.004632555171474814
1761341770380999200,1.853999267578125,-0.06600538082718849,-0.0028733634792268274,-0.00011369407412130385
1761341770391065000,1.864065185546875,-0.06525777733027935,-0.0027181363848969337,-0.007636449695192277
1761341770401131300,1.87413134765625,-0.07812894934117794,0.0026098171722143885,-0.0012834045737748964
1761341770411198200,1.8841982421875,-0.07079553771317004,0.003165861886087805,0.0011196836457354948
1761341770421264100,1.89426416015625,-0.07138941195309162,0.0031575689817778764,0.0003851816589944064
1761341770431330000,1.904330078125,-0.07154021860063076,-0.002923376633413136,-0.002697253427072428
1761341770441397200,1.914397216796875,-0.07587912458777427,0.0018480572857894001,-0.0011961829480482266
1761341770451463000,1.924462890625,-0.07317980250120162,-0.0033155542887747286,-0.00286970108426176
1761341770461529000,1.934529052734375,-0.06524784045815467,0.0023685922948643565,-0.004541497620847076
1761341770471596000,1.944595947265625,-0.06225216577351093,0.0003061616060324013,-0.003165633557224646
1761341770481662000,1.954661865234375,-0.06629355011880397,0.00770768830049783,-0.0022971847262000665
1761341770491728100,1.96472802734375,-0.05821662664711475,-0.002910571950767189,-0.0014195753411855548
1761341770501795000,1.974795166015625,-0.07333060914874076,-0.004223499446548522,-0.0012465751281473785
1761341770511861000,1.984861083984375,-0.07871230218708515,-0.002494392365310341,-0.00895071519811172
1761341770521927200,1.99492724609375,-0.06599427491128444,0.0007282594756223261,-0.006782129854219965
1761341770531994000,2.004994140625,-0.06749824973344802,0.00689792455388233,-0.005997162622143514
1761341770542060000,2.01506005859375,-0.05537585026323795,-0.0032207521447911855,0.006851628593588247
1761341770552126200,2.025126220703125,-0.07004325804114342,-0.004599091293290257,0.004267617149488069
1761341770562193200,2.035193115234375,-0.06121463941931724,-0.0043093693654052915,-0.005679529774026013
1761341770572259000,2.045259033203125,-0.06270984641313553,-0.003918744346313179,-0.006445221483474597
1761341770582325000,2.055324951171875,-0.07168927168250083,0.0010507694282568991,-0.008719993448466993
1761341770592392000,2.065391845703125,-0.06286182210445404,0.001132712090667337,-0.00028465759370010347
1761341770602458000,2.0754580078125,-0.057177346727252006,-0.0049055999591946595,-0.0030511814312776547
1761341770612524000,2.08552392578125,-0.07094342175126075,-0.0024475027499720452,-0.006191000127233564
1761341770622591000,2.095591064453125,-0.07049743154942989,-0.0009653926997445524,-0.0006469196014106273
1761341770632657200,2.1056572265625,-0.06406476815342903,0.0025402955999597908,-0.008509816729929297
1761341770642723000,2.11572314453125,-0.07124795765578747,-0.0026793752770870923,0.004348842859268188
1761341770652790000,2.1257900390625,-0.06376490842401981,-0.0034565519283525645,-0.006375119955907576
1761341770662856200,2.135856201171875,-0.0681049834549427,-0.001202927782665938,0.0016841034623095764
1761341770672922000,2.145922119140625,-0.06511398494541645,-0.004998904265835881,0.0012989629025105386
1761341770682989000,2.155989013671875,-0.06660451576411723,0.0032792956653051077,-0.000055794441001489756
1761341770693055700,2.1660556640625,-0.0664537091165781,0.005492642599530518,-0.003248489535087719
1761341770703121400,2.176121337890625,-0.06974281378984451,-0.000945792950130999,-0.008558825237117706
1761341770713187600,2.1861875,-0.07049041728675365,-0.0024674678257666526,-0.005489888953440822
1761341770723254500,2.196254638671875,-0.06660393124222755,-0.003636274143122136,0.0002725378976436332
1761341770733320400,2.206320556640625,-0.07184066285192967,-0.001852788259834051,0.004644875796930864
1761341770743386600,2.21638671875,-0.06869593508541584,0.002090907864645123,-0.0031013589822454376
1761341770753453600,2.22645361328125,-0.06615151129961014,-0.0016537950890138744,-0.003510149845690466
1761341770763519500,2.23651953125,-0.0694464611917734,-0.0003215966371819377,0.002241627747216262
1761341770773585700,2.246585693359375,-0.06166998197138309,0.007389690126199275,-0.0011637602494796737
1761341770783652600,2.256652587890625,-0.06810673702061176,0.0043085656478069724,-0.0022925405171234157
1761341770793718500,2.266718505859375,-0.06316986514031887,-0.0029729513961821792,-0.003215806541615166
1761341770803784700,2.27678466796875,-0.06332359439730643,-0.002530724054016173,-0.001376229389803484
1761341770813851600,2.2868515625,-0.0730506231635809,-0.004491082607861608,0.0017650597440311685
1761341770823917600,2.29691748046875,-0.06886018573641776,-0.003436093662213534,-0.0006296579393558204
1761341770833983500,2.3069833984375,-0.07304828507602214,-0.000044679391942918296,-0.0009190328073687851
1761341770844050700,2.31705078125,-0.07005494847893715,-0.002500036654807627,0.0009504554255167022
1761341770854116400,2.327116455078125,-0.057931964486837385,-0.0024297296312637624,-0.0048467413448495785
1761341770864182500,2.3371826171875,-0.06810615249872207,-0.0006808036047033965,-0.0015354385395068674
1761341770874249500,2.34724951171875,-0.06705693570673465,0.0013361805072054267,-0.00014507559307385236
1761341770884315400,2.3573154296875,-0.06511456946730614,-0.000474850970134139,-0.008247804792877286
1761341770894381600,2.367381591796875,-0.07334814480543136,-0.002448635261133313,-0.004597479291516356
1761341770904448500,2.377448486328125,-0.06915770737826823,0.0047275217122398315,0.0002664460835745558
1761341770914514400,2.387514404296875,-0.063770169121027,-0.0018601861150003968,0.0018232242386322468
1761341770924580600,2.39758056640625,-0.06212474000155925,-0.0009315452290698886,-0.0035346403995528816
1761341770934647600,2.4076474609375,-0.061976855963468545,0.004969696437660605,-0.0032630888825980944
1761341770944713500,2.41771337890625,-0.06871463978588581,0.0019744966770522294,-0.006947544982424006
1761341770954779600,2.427779541015625,-0.07081190432608127,-0.0016790391281247138,0.006296035970863886
1761341770964846600,2.4378466796875,-0.07365034262239932,0.0015487090130336582,-0.005265861806063913
1761341770974912800,2.447912841796875,-0.0621311697423458,0.010019107048027217,-0.0010111498039215802
1761341770984978400,2.457978515625,-0.06123509768545627,-0.007407901636324822,-0.0038308514337288212
1761341770995045400,2.46804541015625,-0.06946399684846401,-0.0027566417643800378,-0.009313653059257194
1761341771005111600,2.478111572265625,-0.06272913563549518,0.003952299556042998,-0.0036683771812822666
1761341771015177500,2.488177490234375,-0.07439911516308784,-0.0022379151199012994,0.006143060199124738
1761341771025243600,2.49824365234375,-0.08038461931347847,0.002413545681443065,0.0005060680923052132
1761341771035310600,2.508310546875,-0.06916062998771667,0.001953417356405407,-0.003105432369164191
1761341771045376500,2.51837646484375,-0.07020575512647628,0.004074044505879283,0.002503557485877536
1761341771055442700,2.528442626953125,-0.07035247012078762,0.006357643664721399,0.003398592929728329
1761341771065509600,2.538509521484375,-0.06990472635328769,0.003408949926961213,-0.003755630773049779
1761341771075575600,2.548575439453125,-0.07679039421379566,0.0009880977218970656,-0.0026446921227732674
1761341771085641700,2.558641845703125,-0.06931026759147643,0.00032661987217143175,-0.006608504020096734
1761341771095708700,2.568708740234375,-0.06242927590608596,0.009552074058167636,0.0002173873440362513
1761341771105774600,2.578774658203125,-0.06556991201937198,-0.0009765351482667028,-0.011104249103344045
1761341771115840500,2.588840576171875,-0.06332710152864456,-0.00045525122052058573,-0.006722193527640774
1761341771125907500,2.598907470703125,-0.058389060604572295,0.0005671506297774613,-0.002636476850276813
1761341771135973400,2.608973388671875,-0.06512333729565144,-0.0006117021575570106,0.0003589147065766156
1761341771146039600,2.61903955078125,-0.07065875959098339,0.006529493100289255,0.0017090278410119935
1761341771156106500,2.6291064453125,-0.06766776108145714,0.0049899537744000555,0.004411423234082758
1761341771166172400,2.63917236328125,-0.0550993714094162,0.0044987909902818495,0.004318529919395223
1761341771176238600,2.649238525390625,-0.06587327888011932,0.00855789365535602,-0.0002611123213311657
1761341771186305500,2.659305419921875,-0.0723047732323408,0.0013985416863113642,-0.001592598387110047
1761341771196371500,2.669371337890625,-0.06541735180616379,0.002727178207878023,0.001388682446000166
1761341771206437600,2.679437744140625,-0.06856207957267761,-0.0020952187135815617,-0.003026060689752921
1761341771216504600,2.689504638671875,-0.06362286960482597,0.0035819501399993892,-0.003954208385339006
1761341771226570500,2.699570556640625,-0.06781447607576847,0.0022929880416952073,-0.0026035518282093106
1761341771236636700,2.70963671875,-0.07111001048982143,-0.0034562962000258264,-0.001346592303365469
1761341771246703600,2.71970361328125,-0.06677227354645729,0.0026104930256493387,0.007730977844540029
1761341771256769500,2.72976953125,-0.07425473825633526,0.007403956113569438,-0.003050386846833862
1761341771266835500,2.73983544921875,-0.07185819850862026,0.0065829768531955775,-0.005418084092554636
1761341771276902400,2.74990234375,-0.0745534289419651,0.00017226956067606806,-0.0037480685211019587
1761341771286968600,2.759968505859375,-0.0732113666832447,0.0020208200368098915,-0.00019280089205130934
1761341771297034500,2.770034423828125,-0.0616957009345293,-0.0021739647719077764,0.0019953933346085247
1761341771307100400,2.780100341796875,-0.07770926262438296,0.003601787351630628,0.004761574678891338
1761341771317167600,2.790167724609375,-0.0643926849335432,-0.0032411373456940054,0.0027103366709314287
1761341771327233500,2.800233642578125,-0.07172726560533046,0.002065207167807966,-0.005118836284498684
1761341771337299700,2.8102998046875,-0.07576572734117508,0.0011793094450607896,-0.0010036971498280764
1761341771347366700,2.82036669921875,-0.07143032848536968,0.0029765863916836675,-0.005683274367381818
1761341771357432600,2.8304326171875,-0.07053951712548732,-0.0027149763134308156,-0.0007521289749769493
1761341771367498800,2.840498779296875,-0.05976736322045326,0.0037384558759629726,0.0009504782584030181
1761341771377565700,2.850565673828125,-0.07368366037011147,0.0031137846389785407,0.004042562522226944
1761341771387631400,2.86063134765625,-0.06664893942773342,0.0029136041580699384,-0.0002209675406105816
1761341771397697500,2.870697509765625,-0.061111763566732404,0.005321706479415297,0.006324992637289688
1761341771407764500,2.880764404296875,-0.05916647471785545,0.006195621503423899,0.0062867932184832165
1761341771417830400,2.890830322265625,-0.07412965057194232,-0.0011385207769460976,0.0015653861531987785
1761341771427896600,2.900896484375,-0.07173603343367577,-0.007696089194249361,-0.006851098870625719
1761341771437963500,2.910963623046875,-0.06784896286725997,0.00023664003377780316,-0.0014088804172351956
1761341771448029400,2.921029541015625,-0.06785013191103935,0.0042991767649538815,0.0008422960430383682
1761341771458095600,2.931095703125,-0.0673988810122013,-0.00028957579741254445,0.00507335774153471
1761341771468162600,2.94116259765625,-0.06350713427066802,0.0018156345872208475,0.0003196330089587718
1761341771478228500,2.951228515625,-0.06754618052840232,0.00896532367877662,0.0019995489199180153
1761341771488294700,2.961294677734375,-0.06978899101912975,0.002270776209887117,-0.0027002445351798085
1761341771498361600,2.971361572265625,-0.06515080982446671,0.000027052403707057236,-0.009381809224910102
1761341771508427500,2.981427490234375,-0.07307868021428585,-0.003718655196949839,0.0021547668810933825
1761341771518493400,2.991493408203125,-0.06349427478909492,-0.00013195581659674645,-0.0003596590586705133
1761341771528560600,3.001560546875,-0.06648351973295212,0.004973276634234935,0.00329969913251698
1761341771538626600,3.01162646484375,-0.0645364773184061,0.005196527463477104,-0.0011697561654262245
1761341771548692500,3.0216923828125,-0.06932312707304954,0.003512592964526266,0.0018670177145861087
1761341771558759400,3.031759521484375,-0.06857786166369914,0.00947433264683932,-0.005612172759394161
1761341771568825600,3.04182568359375,-0.06977730058133602,0.0061404572500847274,-0.006056697089923545
1761341771578891500,3.0518916015625,-0.06827800193428993,0.009653671269118785,-0.005473106781998649
1761341771588957400,3.06195751953125,-0.0685755235761404,0.010311934248451143,-0.004893786223814822
1761341771599024600,3.072024658203125,-0.0654343029409647,0.0006509381894022226,-0.003531804555072449
1761341771609090600,3.082090576171875,-0.06409107163846492,-0.0007154182603582739,-0.004934442461188882
1761341771619156500,3.092156494140625,-0.06963117010891437,0.0029825594747439027,-0.007743134073214605
1761341771629223700,3.1022236328125,-0.07247311553657054,-0.005890628941170871,0.004322347577987239
1761341771639289600,3.11228955078125,-0.06304594649970531,-0.00035226577008143063,0.0010580576855689287
1761341771649355800,3.122355712890625,-0.05975391921699047,0.0005429660365916788,-0.002227791018108837
1761341771659422700,3.132422607421875,-0.06454349158108234,0.003713960755523294,0.002789283658657223
1761341771669488400,3.14248828125,-0.07352116328477859,-0.0027789266614243386,0.0000030002412619069217
1761341771679554600,3.152554443359375,-0.06873334448635578,-0.003049761225748807,-0.001941740618343465
1761341771689621500,3.16262158203125,-0.06903612682521343,-0.0008474836748093366,-0.0028662259189644827
1761341771699687400,3.1726875,-0.06619593496322632,0.004066756248567253,-0.006913460049731657
1761341771709753600,3.182753662109375,-0.06634674161076545,0.0014398783436976373,-0.004136200189008377
1761341771719820500,3.192820556640625,-0.06410393112003802,0.005357618043012917,0.001337559613538906
1761341771729886500,3.202886474609375,-0.06919453225731849,-0.0012707688544876872,-0.0012634668974438681
1761341771739952600,3.21295263671875,-0.061713821113109586,0.007415299491491168,0.00623665220013354
1761341771750019600,3.22301953125,-0.06051672028303146,0.0035404856184497475,-0.001989886042429134
1761341771760085500,3.23308544921875,-0.06799450881779194,-0.004241656157746911,0.002892278242250904
1761341771770151700,3.243151611328125,-0.06919160964787006,0.00714230950269848,0.0027665010046912355
1761341771780218600,3.253218505859375,-0.06979132910668849,0.009398618795815855,-0.0004763533740537241
1761341771790284500,3.263284423828125,-0.06365910996198654,0.00544715948998928,0.0016740798252169041
1761341771800350500,3.2733505859375,-0.06096154144108295,0.006027498394902795,0.002260008220700547
1761341771810417400,3.28341748046875,-0.07427636556625365,0.0037953188960440456,0.007463495147926732
1761341771820483300,3.2934833984375,-0.07502689167261123,-0.0013667765748687087,-0.0035838133035227654
1761341771830549500,3.303549560546875,-0.07562719565331935,0.000054488399904221294,-0.006427055639121681
1761341771840616400,3.313616455078125,-0.0721872843325138,0.0013086714457720518,-0.0016985064469976349
1761341771850682600,3.3236826171875,-0.06785071643292903,0.0015731493345461786,0.002017162208422087
1761341771860748500,3.33374853515625,-0.0683013828098774,-0.0032975802406668663,0.005232078267470933
1761341771870814500,3.343814453125,-0.07204407646954059,0.002431556262169033,0.001732130155386403
1761341771880881700,3.353881591796875,-0.07518588162660599,0.00392354838559404,0.0007443383941659704
1761341771890947600,3.363947509765625,-0.07608487629294396,-0.0035475546800531445,-0.0023734009007224813
1761341771901013500,3.374013427734375,-0.07144903318583964,0.00046953547419980164,0.00014872885488439352
1761341771911080700,3.384080810546875,-0.059928691262006756,0.0015881642405875026,0.0010819865504279732
1761341771921146600,3.394146728515625,-0.07534720966815948,-0.0019125921556726096,-0.004074546829378232
1761341771931212500,3.404212646484375,-0.07594985173642635,0.002594035081192851,0.0011780353700043633
1761341771941279700,3.41427978515625,-0.06547171234190463,0.007857654697820543,0.00016149700491223485
1761341771951345400,3.424345458984375,-0.06502338405251502,-0.0048483350803144275,-0.0020506123868748545
1761341771961411600,3.43441162109375,-0.06696925742328166,-0.006312854674924165,0.003003670761431567
1761341771971478500,3.444478515625,-0.06397592082619667,0.008912698442395776,0.0005369061885634437
1761341771981544400,3.45454443359375,-0.06517419070005416,0.0011784874611534177,-0.006171678938833065
1761341771991610600,3.464610595703125,-0.06218436123430728,0.0033765089620836075,-0.003423334645340219
1761341772001677600,3.474677490234375,-0.059494391497969625,-0.006241068080347031,-0.0025397019449155778
1761341772011743500,3.484743408203125,-0.06503390544652939,0.007952986564766616,-0.001111797166801989
1761341772021809700,3.4948095703125,-0.060248424735665315,0.0038789603251963853,0.00019728070434648541
1761341772031876600,3.504876708984375,-0.07072013438940047,0.000015161036513745784,0.0002585733043728396
1761341772041942500,3.514942626953125,-0.06473521476089954,0.003502875288110226,-0.0028762632557889443
1761341772052008700,3.5250087890625,-0.06787526635229588,0.004732471881993115,-0.002921522603044286
1761341772062074400,3.535074462890625,-0.07251812372207642,-0.0031675423865206538,0.0013075480677653102
1761341772072141600,3.5451416015625,-0.0651858811378479,-0.000025463234819471834,0.0014325398540357126
1761341772082207500,3.55520751953125,-0.06578560059666633,-0.0014807035444304346,0.001580720719648525
1761341772092273400,3.5652734375,-0.06892857479751109,0.0016847564828582108,0.0010937409203033894
1761341772102340400,3.57534033203125,-0.06788169609308242,0.009470460189320146,0.002966663219290785
1761341772112406500,3.585406494140625,-0.06938041021823883,0.004010934408102185,-0.002489008370717056
1761341772122472400,3.595472412109375,-0.06773907275199889,0.0034460488006472587,0.0018050035953521728
1761341772132539400,3.605539306640625,-0.07252864511609076,0.00903416939759627,0.0009196218958357348
1761341772142605600,3.61560546875,-0.07028408105969429,0.0018472353018820285,-0.0007051343283616006
1761341772152671500,3.62567138671875,-0.06624503480195999,-0.00500902380105108,-0.0037745820686919613
1761341772162738700,3.63573876953125,-0.0672942515939474,-0.0012020875324495136,-0.0023057744580321014
1761341772172804600,3.6458046875,-0.06250643279552459,-0.0010071494822390377,0.0011615226266207172
1761341772182870500,3.65587060546875,-0.06594868220388889,0.006490092671662569,-0.005288968687015586
1761341772192937700,3.665937744140625,-0.071782210662961,0.0001410341721959412,-0.0006897129969438537
1761341772203003600,3.676003662109375,-0.06519757157564163,0.006817461462505161,-0.0036465535085415464
1761341772213069300,3.6860693359375,-0.06938859352469444,0.007747088729124516,0.004948320289491675
1761341772223136500,3.696136474609375,-0.06819324626028538,0.006012483488861471,-0.0010759815013268962
1761341772233202400,3.706202392578125,-0.06026596039235591,0.009869999167229979,0.0032981145302066577
1761341772243268600,3.7162685546875,-0.06490414158701896,0.0029717823524028062,-0.002206976558943279
1761341772253335600,3.72633544921875,-0.07402794376313686,0.008200568117666989,-0.00004051924005616456
1761341772263401500,3.7364013671875,-0.06175473764538764,0.004171093405876308,-0.0026507565373787654
1761341772273467600,3.746467529296875,-0.06863456028699874,0.006547850740887224,0.0038985326753463593
1761341772283534600,3.75653466796875,-0.06758242088556289,-0.0008244681254029274,-0.0037693305048393084
1761341772293600500,3.7666005859375,-0.06339373702406882,-0.0007731580632738768,-0.0010315715374425052
1761341772303666700,3.776666748046875,-0.07087561721205711,0.0017391900838352738,0.0030537341479677706
1761341772313732600,3.786732666015625,-0.0638438188791275,-0.0005962123274803161,-0.004267731313919648
1761341772323799600,3.796799560546875,-0.08255027291476726,-0.0037921953571960327,-0.0061463527013314884
1761341772333865700,3.80686572265625,-0.07821195144951343,0.0020830533517524597,-0.008836039309878833
1761341772343931400,3.816931396484375,-0.06878185980319976,0.0016698694409802556,-0.0034621140194591132
1761341772353998300,3.826998291015625,-0.06743629041314125,0.002324168631248176,-0.002243267148453742
1761341772364064500,3.837064453125,-0.07281798345148563,0.004032105060294271,-0.00855612638995517
1761341772374130400,3.84713037109375,-0.060251931867003436,0.0007544898954220116,-0.0013501542336307466
1761341772384197400,3.857197265625,-0.07297638888359069,-0.0017497297441586852,0.003823362247017212
1761341772394263600,3.867263671875,-0.0713332978516817,-0.0010169767565093935,0.0051896410649642346
1761341772404329500,3.87732958984375,-0.05921031385958194,0.008197389779891819,0.00499477607998997
1761341772414396400,3.887396484375,-0.06430033047497272,0.01054103029659018,-0.0041006539515918115
1761341772424462600,3.897462646484375,-0.07358078451752663,0.008706855405680834,-0.012654661449696868
1761341772434528500,3.907528564453125,-0.07447861014008522,0.006166578072030097,0.006776608862308785
1761341772444595500,3.917595458984375,-0.06879179667532444,0.0033101109286770222,0.005210181529494002
1761341772454661600,3.92766162109375,-0.06834405290782451,0.0033905374874360857,-0.003967821352160536
1761341772464727600,3.9377275390625,-0.06490004993379116,0.0019376352653838692,-0.010741110312798991
1761341772474794800,3.947794677734375,-0.06594692863821983,0.01255233358638361,-0.007721045538992621
1761341772484860400,3.9578603515625,-0.07641863829195499,0.004814852935820818,0.004301135826599784
1761341772494926300,3.96792626953125,-0.06983283016085624,0.0034240926971659063,0.004578304233588278
1761341772504992500,3.977992431640625,-0.06668517978489398,-0.004312438105326145,-0.001482110050227493
1761341772515059500,3.9880595703125,-0.06518821922540664,0.0014482260469347238,-0.006026662711263634
1761341772525125400,3.99812548828125,-0.06728197663426398,0.003616053339000791,-0.005632722357078455
1761341772535191600,4.008191650390625,-0.06788344965875148,0.00823264375636354,-0.005059986803308129
1761341772545257500,4.018257568359375,-0.05786123733818531,0.004483629953768104,-0.0067253627322614185
1761341772555323600,4.02832373046875,-0.06609422815442084,0.0008744447469711303,-0.004287554825819097
1761341772565390600,4.038390625,-0.05756546926200389,0.0074887117875739925,0.005259902422735468
1761341772575456500,4.04845654296875,-0.06160685360729694,0.0030588761139661073,-0.00859300150135532
1761341772585522400,4.0585224609375,-0.062356795191764826,0.007506466639973223,-0.006069794033514335
1761341772595589600,4.068589599609375,-0.06759352680146694,0.005151811538916081,-0.008073781666532158
1761341772605655600,4.078655517578125,-0.07267711367607116,0.003849551567621529,-0.004698217985942028
1761341772615721500,4.088721435546875,-0.0726759446322918,0.000983969536051154,-0.0053060887851752335
1761341772625788400,4.098788330078125,-0.0665361267030239,-0.00021789880068972707,-0.0018503999399254098
1761341772635854600,4.1088544921875,-0.0714729985833168,0.005996664865221828,-0.004973906821897253
1761341772645920500,4.11892041015625,-0.0674339523255825,-0.0005339790125377476,-0.005209167749341577
1761341772655987500,4.128987548828125,-0.06758242088556289,0.0003346570481546223,-0.008297128393896855
1761341772666053600,4.1390537109375,-0.06758592801690101,-0.0022207813220098613,0.005552400829596444
1761341772676119600,4.14911962890625,-0.06953121686577797,0.0027200726136565206,-0.006054464033641852
1761341772686186500,4.1591865234375,-0.07446925778985022,0.007999035929888487,-0.0045454796762205655
1761341772696252700,4.169252685546875,-0.06489654280245304,0.0021814174260012804,-0.006217550207441672
1761341772706318600,4.179318603515625,-0.07117956859469414,0.005423157559894025,-0.004206109920330345
1761341772716385500,4.189385498046875,-0.07072890221774578,0.0020673808585852382,0.004363254977110773
1761341772726451700,4.19945166015625,-0.06369418127536773,0.002907777205482125,0.006040321343857795
1761341772736517600,4.209517578125,-0.05890694699883461,0.0018849004311487078,0.000338739568227902
1761341772746583800,4.219583740234375,-0.0604015694707632,0.0024507176203653214,-0.002538624232681468
1761341772756650800,4.229650634765625,-0.06893032836318015,0.002786927304789424,-0.004736385438707657
1761341772766716700,4.239716552734375,-0.05815758993625641,0.004301606184057891,-0.0051433131386293095
1761341772776782800,4.249782958984375,-0.06114858844578266,0.010683525773510337,-0.0011633218580624088
1761341772786849800,4.259849853515625,-0.058902270823717115,0.0012226005975157022,-0.0015902009340468793
1761341772796915700,4.269915771484375,-0.07207213352024555,-0.0015153364663943647,-0.0026563779939897357
1761341772806981600,4.279981689453125,-0.06892740575373173,0.0058544981818646185,-0.0025796686291228977
1761341772817048600,4.290048583984375,-0.06638590457737445,0.006093604167364537,0.00859554508489091
1761341772827114500,4.300114501953125,-0.0717734428346157,0.0014769224184565245,0.00020514435039367524
1761341772837180700,4.3101806640625,-0.07581015100479126,-0.0019447773922234772,0.0010548976141028107
1761341772847247600,4.32024755859375,-0.06922434287369252,0.00231677077608183,0.002516298236441798
1761341772857313500,4.3303134765625,-0.06712941642105578,0.006062843702919781,6.438873941078782e-7
1761341772867379700,4.340379638671875,-0.07700491374731064,0.006943535527586937,0.002160205674613826
1761341772877446700,4.35044677734375,-0.06982347781062126,0.0014465090138837695,0.0049185781717766075
1761341772887512600,4.3605126953125,-0.06877426101863383,0.003764722828380763,-0.0029707594390958546
1761341772897578800,4.370578857421875,-0.06128887369930744,0.0021699827165342868,-0.0035690221597673368
1761341772907645700,4.380645751953125,-0.07356032625138759,-0.001057217435352504,-0.0032100480876863
1761341772917711600,4.390711669921875,-0.0744575673520565,0.007279124157503247,0.003253946594917215
1761341772927778800,4.40077880859375,-0.06293780995011329,0.004788640782330185,0.00839305391588714
1761341772937844700,4.4108447265625,-0.06802315039038657,0.0033884003292769193,-0.0034201517409877848
1761341772947910700,4.42091064453125,-0.08133972808122635,0.002607807878218591,0.007203300708625465
1761341772957977900,4.430977783203125,-0.0743090987920761,0.010034030622523277,0.004241427828883752
1761341772968043500,4.44104345703125,-0.06308627851009369,0.002398421177547425,0.0021377655139425767
1761341772978109700,4.451109619140625,-0.06368365988135337,0.0047393034815788266,0.0005633786369580775
1761341772988176600,4.4611767578125,-0.07356207981705665,0.006035261576250195,-0.00014093370749615133
1761341772998242600,4.47124267578125,-0.06248772809505462,0.008096084829885513,-0.00006326079482678323
1761341773008308700,4.481308837890625,-0.07341361125707625,0.0003849989959038794,0.004773867904883809
1761341773018375700,4.491375732421875,-0.07012216849625111,-0.000770290252752602,0.0009535241654375567
1761341773028441600,4.501441650390625,-0.06982406233251094,0.0030230010829865933,0.0067728642689529805
1761341773038507800,4.5115078125,-0.06907470526993274,0.0008950674098916351,0.005833044401882216
1761341773048574700,4.52157470703125,-0.06623334436416625,0.0027946722198277712,0.0005273346426198259
1761341773058640600,4.531640625,-0.06114975748956203,0.008498656015098095,-0.0032289171849377452
1761341773068706800,4.541706787109375,-0.06908347309827804,0.001891275373008102,0.005166671181330457
1761341773078773800,4.551773681640625,-0.07012976728081703,0.0003309307211078703,0.004212891287566163
1761341773088839700,4.561839599609375,-0.062196636193990705,0.00011589973093941806,-0.005085714899608865
1761341773098905600,4.571905517578125,-0.07057634200453758,0.00373290291801095,-0.0021824860050808637
1761341773108971500,4.581971435546875,-0.06983224563896656,-0.003874192818533629,0.0009979569622082635
1761341773119038500,4.59203857421875,-0.06489654280245304,0.009415405533835292,0.0006753648111829534
1761341773129104600,4.602104736328125,-0.06549626226127148,0.008130060164723545,-0.000966082252911292
1761341773139170600,4.612170654296875,-0.06504734944999217,0.0012390768082812427,0.003489846843178384
1761341773149237800,4.62223779296875,-0.0722311234742403,-0.0023341420359909533,-0.0032967628233367577
1761341773159303700,4.6323037109375,-0.06834054577648639,0.00262346210507676,-0.013318819880275987
1761341773169369600,4.64236962890625,-0.06968611516654491,0.00019468232188373804,-0.003388601258676499
1761341773179436800,4.652436767578125,-0.06983925990164279,0.008280958143807948,-0.005462183529185131
1761341773189502700,4.662502685546875,-0.06160685360729694,0.0047396870740689335,0.00292423058336135
1761341773199568600,4.672568603515625,-0.06504559588432311,0.008400894729048014,-0.002870084676751867
1761341773209635800,4.6826357421875,-0.06414718573987484,0.012557776946481317,-0.003480718255229294
1761341773219701800,4.69270166015625,-0.07192717209160328,0.00606392141515389,0.0011344062908319756
1761341773229767700,4.702767578125,-0.06534077943861484,0.002683119870442897,-0.0006956952131586149
1761341773239834600,4.712834716796875,-0.07237608490288257,0.0063593789640814065,0.00642883660425432
1761341773249900500,4.722900634765625,-0.07057283487319946,-0.0023360599984414876,-0.0023259450298035514
1761341773259966700,4.732966796875,-0.07566109792292118,-0.0007040748824365437,-0.004587355189723894
1761341773270033700,4.74303369140625,-0.06503273640275001,0.0009031959174200892,-0.0007436397078447043
1761341773280099600,4.753099609375,-0.07116729363501072,0.0005702741686254739,-0.009748811339819804
1761341773290165800,4.763165771484375,-0.07026712992489338,0.005836122274957597,-0.004497745244088583
1761341773300231700,4.773231689453125,-0.07475742708146571,-0.0017188962144777178,0.001985182467848062
1761341773310298600,4.783298583984375,-0.07012333754003047,0.0038178595214150846,-0.006804985573422163
1761341773320364800,4.79336474609375,-0.06982289328873158,-0.0011759119115769862,-0.0013037715083686634
1761341773330430700,4.8034306640625,-0.07116846267879008,-0.002549757548049092,0.002821149234799668
1761341773340497700,4.81349755859375,-0.06712766285538672,0.00025587445721030234,-0.005119270109338685
1761341773350563800,4.823563720703125,-0.0698176325917244,0.0035963074589148163,-0.002433433125424199
1761341773360629500,4.83362939453125,-0.07400748549699783,0.0056975723207928234,0.007131130521558225
1761341773370696400,4.843696533203125,-0.05964052197039127,0.005656674054823815,0.004870820906758308
1761341773380762600,4.8537626953125,-0.06876490866839885,0.01029233449883759,0.011016986378422007
1761341773390828500,4.86382861328125,-0.07145604744851589,0.002059891671873629,0.003482873679697513
1761341773400895500,4.8738955078125,-0.07011106258034706,-0.00132870958680287,0.0028043076978530733
1761341773410961700,4.883961669921875,-0.06906476839780808,-0.0020274507069960234,0.0035297769947675987
1761341773421027600,4.894027587890625,-0.05933949319720268,-0.0004822305589914322,-0.0003550924814073369
1761341773431094500,4.904094482421875,-0.06921849765479564,0.002351860355772078,0.00494179921715986
1761341773441160700,4.91416064453125,-0.07400397836565971,0.0032916071576066315,-0.001448568540229462
1761341773451226600,4.9242265625,-0.0668196198195219,-0.00647113224286586,-0.0008775911187054589
1761341773461293800,4.9342939453125,-0.06876666223406791,-0.00039159313347190614,0.004931697948253713
1761341773471359700,4.94435986328125,-0.0699696082830429,0.004477766468562186,0.007889556806581094
1761341773481425700,4.95442578125,-0.07041910561621188,-0.0010189129852689802,0.00138323908590246
1761341773491491600,4.96449169921875,-0.07281213823258877,0.005377035129535943,0.0033258747533895074
1761341773501558500,4.97455859375,-0.0656301177740097,0.003797255124803632,0.001092307015042752
1761341773511624400,4.98462451171875,-0.06487959166765213,0.0004224997283890843,0.0005476239454001188
1761341773521690600,4.994690673828125,-0.07370762576758862,0.005072901083808392,-0.0020263866944937032
1761341773531757600,5.004757568359375,-0.06832125655412674,0.0010504954336211085,-0.005016375990444794
1761341773541823700,5.01482373046875,-0.06817454155981541,0.0009948014573194085,0.0010867631902452557
1761341773551889700,5.0248896484375,-0.07311316700577736,0.00730135425562039,-0.0003262454128358513
1761341773561956600,5.03495654296875,-0.0692202512204647,0.00842632143124938,-0.010597687820694408
1761341773572022800,5.045022705078125,-0.07056465156674385,0.0015987769661471246,-0.0023702042966382577
1761341773582088700,5.055088623046875,-0.07430792974829674,-0.0029214221383444964,0.000003055040189065039
1761341773592155600,5.06515576171875,-0.0630851094663143,-0.002614328950550407,0.000606509959208779
1761341773602221800,5.075221923828125,-0.06667232030332088,0.00427884636297822,0.010328113631694577
1761341773612287700,5.085287841796875,-0.06577683276832104,0.0066426163522526616,0.008618250107043422
1761341773622354700,5.095354736328125,-0.06547755756080151,0.002721734847780317,0.0020933418503263964
1761341773632420600,5.105420654296875,-0.05799509285092354,-0.0026740780474618074,-0.00269059992399998
1761341773642486500,5.115486572265625,-0.06696984194517135,0.004491484466660768,-0.001688647206686437
1761341773652552700,5.125552734375,-0.0795382316172123,0.013091628094855695,0.0037714128640713167
1761341773662619600,5.13561962890625,-0.07385024910867213,0.0016454656520858407,-0.0007776150426827371
1761341773672685600,5.145685546875,-0.07340192081928253,0.0017812939262017607,-0.0026762791377026585
1761341773682751700,5.155751708984375,-0.06621990036070347,-0.0005793159916065633,0.004389878122555092
1761341773692818700,5.165818603515625,-0.06920622269511223,-0.0009988017790019512,-0.0011739756828173995
1761341773702884400,5.17588427734375,-0.0769891316562891,0.006837682266626507,-0.005244956015353091
1761341773712950500,5.185950439453125,-0.06576397328674793,0.000326418942771852,0.002446822329959832
1761341773723017500,5.196017578125,-0.06307341902852058,-0.004948324856068938,-0.0026729135702596974
1761341773733083400,5.20608349609375,-0.07175356909036636,0.0013592691218480466,-0.009338134479965083
1761341773743149600,5.216149658203125,-0.07250234163105487,0.0028936025496572254,0.00668314015888609
1761341773753216500,5.226216552734375,-0.06800970638692379,0.005846954196225851,0.00187833369304426
1761341773763282200,5.2362822265625,-0.07803367227315902,0.00011007277835160493,0.0034546156995929776
1761341773773348400,5.246348388671875,-0.06456570341289043,0.006665851097367704,0.003925827107648365
1761341773783415300,5.256415283203125,-0.07758359041810035,0.0071435698780231175,-0.0062310901090269905
1761341773793481500,5.2664814453125,-0.06561316663920878,0.00046105990679934616,0.004954567367187701
1761341773803547400,5.27654736328125,-0.07129881106019019,0.005993669190537184,0.0003023804800584912
1761341773813613300,5.28661328125,-0.07428805600404739,0.003381404332909733,-0.0019832279727794227
1761341773823680500,5.296680419921875,-0.06964695219993591,0.0024122122408822178,0.004560056190844625
1761341773833746400,5.306746337890625,-0.06739829649031162,-0.0045090201233513654,0.00348161787095014
1761341773843812400,5.316812255859375,-0.06544891598820686,0.0011637465497478842,0.0007029834704706444
1761341773853879600,5.326879638671875,-0.0642535687237978,0.010503657428268342,-0.005208564961142838
1761341773863945500,5.336945556640625,-0.05737023895084858,0.0006348821037448942,0.0003922689869068563
1761341773874011400,5.347011474609375,-0.06649637921452523,0.002979125408641994,0.0020874144330387933
1761341773884078600,5.35707861328125,-0.062005497536063194,0.00039124607359990475,-0.0006753876440692692
1761341773894144300,5.367144287109375,-0.0700830055296421,0.006120181647036225,-0.0016436070551397277
1761341773904210400,5.37721044921875,-0.07067863333523274,-0.0017923815757967532,-0.00523188647122588
1761341773914277400,5.38727734375,-0.06753741270005703,-0.004129574085399508,0.000506917475676164
1761341773924343300,5.39734326171875,-0.06588906097114086,-0.0040653680090792475,0.00552411545002833
1761341773934409500,5.407409423828125,-0.07127133853137493,0.0053422378107905386,0.004828548101033084
1761341773944476400,5.417476318359375,-0.06483925965726375,0.0011258622247725723,0.0047663239192450415
1761341773954542300,5.427542236328125,-0.06992810722887516,-0.000729446785710752,0.0023660669776378197
1761341773964608500,5.4376083984375,-0.06558452506661415,0.004483593421149999,-0.0005836953392019495
1761341773974674400,5.44767431640625,-0.06468728396594524,-0.002218571098614484,-0.003377212214982137
1761341773984741400,5.457741455078125,-0.07156535304188728,0.0029758374730125066,-0.0031094737900421022
1761341773994807600,5.4678076171875,-0.06961714158356189,-0.000242795779928565,-0.000552752211666666
1761341774004873500,5.47787353515625,-0.07170914542675018,0.0003565583527088165,0.002068842163309455
1761341774014940400,5.4879404296875,-0.07365794140696526,-0.0019940416277386248,0.003532507807970978
1761341774025006300,5.49800634765625,-0.06527940464019776,0.0018321107979863882,0.0008543015746632591
1761341774035072300,5.508072265625,-0.05899345623850822,0.0004252944736741483,-0.0009577847820241004
1761341774045139200,5.51813916015625,-0.07739946602284908,-0.0007210077509284019,0.006293035729601979
1761341774055205400,5.528205322265625,-0.061088967213034626,-0.004294135263655335,0.0038276411299128085
1761341774065271300,5.538271240234375,-0.06677578067779541,0.002133139571174979,-0.004052458295156248
1761341774075338200,5.548338134765625,-0.0730588064700365,0.00854386513000354,0.002851927965553477
1761341774085404400,5.558404296875,-0.07246025605499744,-0.0018023549805395304,0.004460486540198326
1761341774095470300,5.56847021484375,-0.06378127503693104,0.004318739981949329,-0.000831756382714957
1761341774105537500,5.57853759765625,-0.07021452295482158,0.004582048826944083,0.004266219776845537
1761341774115603500,5.588603515625,-0.06976444109976292,-0.0010387684632092713,0.002473267378890887
1761341774125669400,5.59866943359375,-0.0568985297858715,0.0004430310597643256,0.0013794168607331812
1761341774135735600,5.608735595703125,-0.06632336073517799,0.002900470681861043,0.003161573870037682
1761341774145802500,5.618802490234375,-0.06302548823356628,0.001327394412551075,0.005872463096817955
1761341774155868400,5.628868408203125,-0.061225745335221286,-0.0031661906796507534,0.00020434976594988256
1761341774165934300,5.638934326171875,-0.06212766261100769,0.0008780797424726188,0.005113228527619503
1761341774176001300,5.649001220703125,-0.07514554961621761,0.0029604024418629703,0.012924432001519015
1761341774186067500,5.6590673828125,-0.07275134795606136,-0.0019823877225629985,0.0029127502081217243
1761341774196133400,5.66913330078125,-0.07080839719474315,0.003352543564606458,0.014847034094552508
1761341774206200300,5.679200439453125,-0.06826748054027557,0.0021135215552523733,0.0051982444965280586
1761341774216266500,5.6892666015625,-0.07485504223704338,0.0061318172859027974,0.005963675911072642
1761341774226332400,5.69933251953125,-0.06827157219350338,0.008106076500937342,0.009635455192415975
1761341774236399400,5.7093994140625,-0.06826864958405494,-0.0011210581854917108,0.0040143776073586195
1761341774246465500,5.719465576171875,-0.0637824440807104,-0.0037035489593632517,-0.00036237160556484014
1761341774256531500,5.729531494140625,-0.06917173590362072,0.006702127987146377,0.007009974660188891
1761341774266597600,5.73959765625,-0.06288578750193119,0.003926379663497209,0.009189798350725323
1761341774276664600,5.74966455078125,-0.06557517271637917,0.001075538543332368,0.005676141373696737
1761341774286730200,5.759730224609375,-0.06617196956574917,0.002035360018815845,-0.006232026257365942
1761341774296796400,5.76979638671875,-0.06736673230826855,0.0017979345337487756,-0.0020273730751825497
1761341774306863400,5.77986328125,-0.06661620620191097,-0.0009975962026044726,0.004444877979112789
1761341774316929300,5.78992919921875,-0.06841536457836628,0.0006363982073962688,0.00155447660011705
1761341774326995500,5.799995361328125,-0.06976151849031448,0.005269117775652557,0.006938991783210076
1761341774337062400,5.8100625,-0.06048398705720901,0.002400193009525537,0.0032496540122898296
1761341774347128300,5.82012841796875,-0.05464753598868847,0.0074264054073952136,0.009175098538515157
1761341774357194500,5.830194580078125,-0.0663227762132883,0.0008390994389541447,0.005669656833983026
1761341774367261400,5.840261474609375,-0.07185936755239963,0.0023592764772474763,-0.0011215513758361338
1761341774377327400,5.850327392578125,-0.07335925072133541,-0.0019938589646480978,0.001378919103811495
1761341774387393500,5.8603935546875,-0.07036883673369884,0.00005885404776781797,-0.0007049014329211786
1761341774397460500,5.87046044921875,-0.0645323856651783,0.00829710556101054,-0.0008825458550360053
1761341774407526400,5.8805263671875,-0.07365443427562714,0.00028796836221590635,0.014362031623162328
1761341774417592600,5.890592529296875,-0.06676759737133979,-0.006445413279719651,0.010784296433976851
1761341774427658200,5.900658203125,-0.05584171420931816,0.003180931591056287,0.0005486331589752808
1761341774437725200,5.91072509765625,-0.07410100899934768,0.0030390571686439213,0.003591937244473956
1761341774447791400,5.920791259765625,-0.07050912198722362,0.0019665690989233552,0.009306328269327058
1761341774457857300,5.930857177734375,-0.07050853746533393,0.0035793197914958,0.0017729507895419374
1761341774467924500,5.940924560546875,-0.0631727877497673,0.0037303639010526236,0.0014911016408586874
1761341774477990400,5.950990478515625,-0.059282210052013395,-0.002671338101103902,0.009132967296685092
1761341774488056300,5.961056396484375,-0.060629533007740974,0.0016967026489786803,0.010053630372136831
1761341774498123500,5.97112353515625,-0.06930968306958675,-0.0036457726238295434,-0.001509185286820866
1761341774508189400,5.981189453125,-0.07155307808220386,-0.006981401586253195,0.0017860203336691482
1761341774518255400,5.99125537109375,-0.05135083253085613,0.0038816820052452383,0.0026720596203114837
1761341774528322600,6.001322509765625,-0.0684101038813591,-0.0012104352356866002,0.004800582381873392
1761341774538388500,6.011388427734375,-0.061225745335221286,0.0018787446849979459,0.002323524743854068
1761341774548454400,6.021454345703125,-0.07289689390659332,0.0021582557461224494,0.007673877362441271
1761341774558520300,6.031520263671875,-0.07125029574334621,0.004845814329665154,0.006444038739963434
1761341774568587300,6.041587158203125,-0.05778232688307762,0.00003207563869655132,0.005274131877487525
1761341774578653400,6.0516533203125,-0.07349310623407364,-0.00541758633563295,-0.0018224068213021382
1761341774588719400,6.06171923828125,-0.07334113054275512,-0.004890402390062809,0.003083741127164103
1761341774598786300,6.071786376953125,-0.0690028090775013,-0.0015537870469503104,0.0009801016451092437
1761341774608852500,6.0818525390625,-0.06765782420933246,0.002413125556334853,0.0008370033799903467
1761341774618918400,6.09191845703125,-0.06751110921502113,0.0019386033797636627,0.004378215084224939
1761341774628985300,6.1019853515625,-0.06736088708937167,-0.005586641025915742,0.002682453150162473
1761341774639051500,6.112051513671875,-0.0637614012926817,0.00022489479705691337,0.0017074295389698816
1761341774649117400,6.122117431640625,-0.06645663172602653,0.005191339831706136,0.004079939957126044
1761341774659184400,6.132184326171875,-0.0785790311962366,-0.00010439195623621345,0.011787189866206608
1761341774669250600,6.14225048828125,-0.07364040575027465,0.0018097345693968234,-0.0009261703676311299
1761341774679316500,6.15231640625,-0.06780103207230567,0.003294968158472329,-0.0037034347949316724
1761341774689382400,6.16238232421875,-0.0740875649958849,-0.0029457528620027004,0.004746304044523276
1761341774699450000,6.1724501953125,-0.06540683041214942,0.0017838512094691394,0.012548082102951594
1761341774709515800,6.182515869140625,-0.07198971593379974,0.002184321769140661,-0.0011706603477243333
1761341774719582000,6.19258203125,-0.06839432179033755,-0.0009346687679179012,0.008061273811408318
1761341774729649000,6.20264892578125,-0.06719312930703163,-0.005316610179189592,0.005495405378774739
1761341774739714800,6.21271484375,-0.07062894897460938,0.0062350401983596385,-0.003997928796056658
1761341774749781000,6.222781005859375,-0.0655430240124464,0.0031593590800650414,0.008512488177628256
1761341774759848000,6.232847900390625,-0.06584171469807625,0.0038892990561202167,0.014696999198570846
1761341774769913900,6.242913818359375,-0.06569324613809585,-0.007853435180429368,-0.0014756757428636773
1761341774779980000,6.25297998046875,-0.06569207709431647,-0.002516859925445169,0.0014849367615533992
1761341774790047000,6.263046875,-0.0635953970760107,-0.001252411213889718,-0.004371214521280489
1761341774800113000,6.27311279296875,-0.07885726361572742,-0.0043022820374928415,0.004149420430185273
1761341774810179000,6.283178955078125,-0.07122633034586906,0.0043595834489911795,0.0054241896063555025
1761341774820244700,6.29324462890625,-0.06748246764242649,0.0011080891060642898,-0.0031632224044296888
1761341774830312000,6.30331201171875,-0.06793021140992642,-0.005212181690335273,0.005879408860835246
1761341774840377900,6.3133779296875,-0.06209609842896461,-0.004525752062443643,-0.004862993793329224
1761341774850443800,6.32344384765625,-0.06987725382447242,0.001144822653569281,-0.0032738568717846643
1761341774860510700,6.3335107421875,-0.07960428259074688,0.0013148454582318663,-0.0022230646106414496
1761341774870577000,6.343576904296875,-0.06927987245321274,0.0019122268294915557,0.00473066808397416
1761341774880642800,6.353642822265625,-0.06553659427165985,-0.00013418430630117654,0.011763201635843143
1761341774890709800,6.363709716796875,-0.07405892342329025,-0.0023407727061770856,0.0004974600941641256
1761341774900776000,6.37377587890625,-0.07525602425336837,0.0037700565906241532,-0.004509632044704631
1761341774910841900,6.383841796875,-0.06926701297163963,0.0003299260741099715,0.01012960908464156
1761341774920908000,6.393907958984375,-0.07719546788334845,0.004549096405413002,0.0003645087637240067
1761341774930975000,6.40397509765625,-0.0656739569157362,-0.0022815715985372662,0.00025286964937113225
1761341774941041000,6.414041015625,-0.06911795988976956,-0.004746171613782644,-0.003514752955571748
1761341774951107000,6.424107177734375,-0.06134089614748955,0.0024670477006584405,0.0020163995900191367
1761341774961174000,6.434174072265625,-0.054609542065858836,-0.001956887955125421,0.0017436059640487656
1761341774971239700,6.44423974609375,-0.0646370150834322,-0.00008597951671108603,0.0015987404335290193
1761341774981305900,6.454305908203125,-0.06987666930258274,-0.0037026904428377745,-0.0030028761769877745
1761341774991372800,6.464372802734375,-0.06972761622071266,0.002883629144914448,0.0004089506936492398
1761341775001439000,6.47443896484375,-0.06837970874309539,0.005531385441031307,0.006696218836167827
1761341775011505000,6.4845048828125,-0.07152619007527827,0.004012541843298823,0.0028035039802547543
1761341775021571800,6.49457177734375,-0.07571721202433108,0.0033460772912018,-0.0021759101338218894
1761341775031638000,6.504637939453125,-0.06614098990559578,0.0004126541878096759,-0.0007415938812308012
1761341775041704000,6.514703857421875,-0.058656771630048746,-0.006139872728195041,0.0006741181355901062
1761341775051769900,6.524769775390625,-0.062245736032724375,-0.004290829061716794,-0.0001961025274125859
1761341775061837000,6.534837158203125,-0.06239829624593258,-0.0011998042438179253,0.0009032233168836683
1761341775071903000,6.544903076171875,-0.06494388907551765,0.001985748723428696,0.0006461021840805187
1761341775081969000,6.554968994140625,-0.06374328111410141,-0.0017537300658412277,0.0006827763660810888
1761341775092036000,6.5650361328125,-0.0653904637992382,0.0014116568962112069,0.006975894294073805
1761341775102101800,6.575101806640625,-0.06957739409506321,-0.01188756780102849,0.0007713953644502907
1761341775112168000,6.58516796875,-0.07107435465455055,-0.005600907013285905,-0.0009592186872847378
1761341775122235000,6.59523486328125,-0.061797992265224456,0.0022210735829547045,0.004319730929215438
1761341775132300800,6.60530078125,-0.06763561237752437,0.0037967436681501567,0.010474860592046753
1761341775142367000,6.615366943359375,-0.06494447359740733,0.0032999183282256123,0.0005522498881677166
1761341775152434000,6.625433837890625,-0.06240297242105007,0.0013036482107825576,-0.0028467038011644034
1761341775162499800,6.635499755859375,-0.0646492900431156,0.0037989721578545865,-0.0014579802559688687
1761341775172566000,6.64556591796875,-0.06300210735797881,0.0016699242399074135,0.002924627875583246
1761341775182632000,6.6556318359375,-0.0736252081811428,0.0014973989509046077,0.006544836799893528
1761341775192699000,6.665698974609375,-0.07616904744505881,0.0011971190963871777,0.006358031823788769
1761341775202765000,6.67576513671875,-0.07646481552124022,-0.00033982641361653804,0.0010100675251102074
1761341775212831000,6.6858310546875,-0.07497019304931163,-0.00024296017671003936,0.005361321537173353
1761341775222898000,6.69589794921875,-0.06763619689941405,0.005050999779254198,-0.0030416007521795107
1761341775232963800,6.7059638671875,-0.0692816260188818,-0.0012911175227724016,-0.00001039352985098958
1761341775243029800,6.71602978515625,-0.06539221736490726,-0.00006674509327858687,-0.007628946808748878
1761341775253096700,6.7260966796875,-0.06808569423258304,0.0018810827725566923,0.0028563849449623376
1761341775263163000,6.736162841796875,-0.06838730752766133,0.006624751901999116,0.00023619707578327506
1761341775273228800,6.746228759765625,-0.06733925977945328,-0.00026765622654929756,0.0005193111663684248
1761341775283295700,6.756295654296875,-0.07482113996744155,-0.002696399477124214,0.0028228708344278856
1761341775293362000,6.76636181640625,-0.06359773516356945,-0.0015458960014395416,0.009004057387122883
1761341775303427800,6.776427734375,-0.0679389792382717,-0.0015031711045652627,-0.0013248371292836963
1761341775313494000,6.786493896484375,-0.07721709519326686,-0.006314115050248801,0.0015711902729002758
1761341775323561000,6.79656103515625,-0.07452420284748076,-0.0006072634444572032,0.006763338388781994
1761341775333627000,6.806626953125,-0.07557108155190945,0.001647109619900584,-0.0045058509187307205
1761341775343693000,6.816693115234375,-0.07811550533771515,-0.00075191434584558,0.006939347976236604
1761341775353760000,6.826760009765625,-0.07661737573444843,-0.0021710969613865016,0.007843338478100486
1761341775363826000,6.836825927734375,-0.06434709222614765,0.004293897801637649,-0.006549704771256074
1761341775373891800,6.846891845703125,-0.07093173131346703,-0.004655917780753225,-0.0028678744533564894
1761341775383958800,6.856958740234375,-0.06524550237059593,0.00014786577178165316,0.0045282317138975485
1761341775394025000,6.86702490234375,-0.0710807843953371,0.006694821463525295,0.0005981805222807452
1761341775404091000,6.8770908203125,-0.0679389792382717,0.004884484105929732,0.002746508529433049
1761341775414156800,6.88715673828125,-0.061652446314692494,-0.0026291611935012043,-0.004921308984979987
1761341775424224000,6.89722412109375,-0.07452128023803234,0.0012724493549205363,-0.004678312275651842
1761341775434290000,6.9072900390625,-0.07661328408122062,-0.0027402568851597605,-0.001539877252606675
1761341775444355800,6.91735595703125,-0.07242343117594718,0.004893909521400929,0.010848096084920688
1761341775454423000,6.927423095703125,-0.07586977223753928,-0.006745473938528448,0.005448707559681497
1761341775464489000,6.937489013671875,-0.06419511653482914,-0.00011235606698319315,0.004465980132645927
1761341775474555100,6.94755517578125,-0.06883972747027874,0.006869082051888108,-0.0011878535111201926
1761341775484622000,6.9576220703125,-0.06495382594764232,0.0009265402603894472,-0.00031510296431370077
1761341775494687700,6.967687744140625,-0.061657707011699675,-0.009596022797748446,0.0020629010462900623
1761341775504754000,6.97775390625,-0.07003449021279812,-0.0007837342562153935,-0.0005631959738675505
1761341775514820900,6.98782080078125,-0.06554419305622577,-0.0009619586336426436,-0.00036844971990212795
1761341775524886800,6.99788671875,-0.062252750295400616,-0.001856569385807961,0.0016420224528294056
1761341775534953000,7.007952880859375,-0.0719827016711235,-0.005295969249960035,0.004500576521991752
1761341775545019000,7.018018798828125,-0.07108136891722679,-0.004715813008137047,-0.0034652238585753366
1761341775555085800,7.0280859375,-0.06689151601195335,-0.001877374711818993,-0.0021974232793087137
1761341775565152000,7.038152099609375,-0.06509644928872585,0.006082900110259652,-0.00018628895287401974
1761341775575218000,7.048218017578125,-0.07706511950194835,-0.0016943645614199338,-0.0006592995923710987
1761341775585284900,7.058284912109375,-0.0778121384769678,-0.0008413644612766802,0.00018835304579697547
1761341775595351000,7.06835107421875,-0.07497253113687039,0.0012806509276852012,0.004189533244865015
1761341775605417000,7.0784169921875,-0.07227437809407711,-0.008329126400779933,-0.0008182027813978493
1761341775615484000,7.08848388671875,-0.06763444333374499,-0.002059325416292995,-0.0008500637909630313
1761341775625549800,7.0985498046875,-0.06374269659221173,-0.004078848545160144,-0.0016251032840693368
1761341775635615700,7.10861572265625,-0.06748129859864711,0.00260793574238196,-0.00612604056566488
1761341775645682000,7.118681884765625,-0.06763268976807595,-0.003602974661719054,0.0016873822647845373
1761341775655748900,7.128748779296875,-0.06733049195110798,-0.0004351034816354513,-0.004290363270835951
1761341775665814800,7.138814697265625,-0.06583177782595158,-0.0033821167189627883,0.0013717541440855712
1761341775675881000,7.148880859375,-0.06523030480146408,0.0029456067315302785,0.005671533697238192
1761341775685948000,7.158947998046875,-0.06373685137331485,-0.002892141244933009,0.0063727179362671445
1761341775696013800,7.169013916015625,-0.0673334145605564,-0.004921089789271354,0.001393646315485239
1761341775706079500,7.17907958984375,-0.07256488547325134,0.00008166866777464747,0.0027371972783934322
1761341775716146400,7.189146484375,-0.06986848599612712,-0.00032212636014446617,-0.0002721040728036314
1761341775726212600,7.199212646484375,-0.06448270130455494,0.003917283041588962,0.009405984684941358
1761341775736278500,7.209278564453125,-0.06822130331099033,-0.001272266691830009,0.0034829239120474083
1761341775746345500,7.219345458984375,-0.05924538517296314,-0.0032162951653823255,0.003982831691624596
1761341775756411600,7.22941162109375,-0.07256313190758228,-0.00770593473482877,-0.0030927692504134027
1761341775766477600,7.2394775390625,-0.07196575053632259,-0.002697952113393694,0.00009661507515702396
1761341775776543700,7.249543701171875,-0.06986907051801682,0.0018842611103318631,0.0074891227795276785
1761341775786610700,7.259610595703125,-0.06253975054323672,0.0004982683783397078,-0.0033013339671771973
1761341775796676600,7.269676513671875,-0.07077040327191353,-0.004831639673840254,0.0018722464455524458
1761341775806742500,7.279742431640625,-0.07645897030234336,-0.003831212193332612,-0.0016700977698434142
1761341775816809500,7.2898095703125,-0.07376724700033664,0.0011839856201782822,-0.0026770234897965563
1761341775826875400,7.29987548828125,-0.06912789676189422,0.0014553681737743318,0.006111610181513242
1761341775836941600,7.309941650390625,-0.08110299671590328,0.0020344467033632098,0.007311661020503379
1761341775847008500,7.320008544921875,-0.07152852816283703,-0.0011547047267667949,-0.0006165746954968199
1761341775857074400,7.330074462890625,-0.060903089252114295,0.0025430538126267493,-0.002292823644913733
1761341775867140600,7.340140625,-0.07466857975423336,0.005322765925340354,0.00324430655031465
1761341775877206500,7.35020654296875,-0.06898293533325195,0.0013277597387321293,0.006146074140118435
1761341775887273500,7.3602734375,-0.06419628557860851,0.0051331616373732685,0.0029472826653858643
1761341775897339600,7.370339599609375,-0.06524141071736812,-0.0025666904165409505,0.005450712287100032
1761341775907405600,7.380405517578125,-0.06718669956624508,-0.006428169883973896,-0.00011401830110698938
1761341775917472500,7.390472412109375,-0.06344751303792,-0.001877009385637939,0.005213862190768122
1761341775927538700,7.40053857421875,-0.06344985112547874,0.0009556932896375655,0.0008825595547677948
1761341775937604400,7.410604248046875,-0.07302431967854499,0.003223711286857724,0.0009610909839626402
1761341775947671300,7.42067138671875,-0.07152268294394015,0.0007448087516240776,0.006733180712535977
1761341775957737500,7.430737548828125,-0.06343932973146438,-0.0007605360437184572,0.0024599329732824114
1761341775967803400,7.440803466796875,-0.06029518648684024,-0.007392996328137814,-0.001385417343256995
1761341775977869600,7.45086962890625,-0.06688157913982867,-0.0007108516830950975,0.0016546490389620883
1761341775987936500,7.4609365234375,-0.06987082408368588,-0.004265091832261533,0.008322404399048536
1761341775998002400,7.47100244140625,-0.06987257764935494,-0.0018046565354801712,0.007913956028898246
1761341776008068600,7.481068603515625,-0.06418401061892509,-0.004144515926204621,0.00548239520015195
1761341776018135600,7.491135498046875,-0.06882569894492625,-0.002684855169802904,0.009944279112992808
1761341776028201500,7.501201416015625,-0.0664320818066597,-0.000724788876902312,0.008244553389865905
1761341776038267600,7.511267578125,-0.07166822889447212,-0.0015626644731499253,0.006019018260925077
1761341776048334600,7.52133447265625,-0.08199146998822689,-0.0025804632135666907,0.00863167584419716
1761341776058400500,7.531400390625,-0.08064239346683025,0.0021270020913332697,0.00440186538787093
1761341776068466400,7.541466552734375,-0.06597557021081447,-0.0002481295421719551,0.001753140977374278
1761341776078532400,7.551532470703125,-0.06687222678959369,0.006277308437507599,0.008285858081211335
1761341776088599600,7.561599609375,-0.0749503193050623,0.002403006021119654,0.0101676760727074
1761341776098665500,7.57166552734375,-0.06911328371465206,-0.0001493088101968169,0.0005593372160801664
1761341776108731400,7.5817314453125,-0.06971183412969112,0.003750913498736918,0.009453988545131868
1761341776118798600,7.591798583984375,-0.0753986475944519,0.003738802935834974,0.006631094877817667
1761341776128864500,7.601864501953125,-0.06881400850713253,-0.008555500768870114,0.0076719685331452635
1761341776138930400,7.611930419921875,-0.07270692429244519,0.004275010438077152,-0.000575425267778337
1761341776148997600,7.62199755859375,-0.0676209993302822,-0.0019344021286815405,0.00469264219510369
1761341776159063600,7.6320634765625,-0.06463000082075596,0.0017522322284989058,0.0011358721621334551
1761341776169129700,7.642129638671875,-0.05954466038048267,0.003600417378451675,-0.005719213330443017
1761341776179195600,7.652195556640625,-0.06837386352419852,-0.006219988759700208,-0.0008355375086888671
1761341776189262600,7.6622626953125,-0.06059446169435977,-0.003155011698510498,0.002404120265971869
1761341776199328500,7.67232861328125,-0.06449146913290023,0.00279257159428671,-0.0006244657410075888
1761341776209394400,7.68239453125,-0.0725754068672657,-0.003911437822692096,0.003664865483366884
1761341776219461400,7.69246142578125,-0.0679348875850439,-0.0038344453300349413,-0.0028682306463830172
1761341776229527600,7.702527587890625,-0.07316928110718726,-0.0026101459657773374,-0.004950480280537158
1761341776239593500,7.712593505859375,-0.06389525680541992,0.0006647657853551209,0.00034426512671634554
1761341776249660400,7.722660400390625,-0.05910451539754867,0.0013073197389021514,0.0014046654664212838
1761341776259726600,7.7327265625,-0.07466448810100555,0.0003398081473074853,0.0023634685951750725
1761341776269792500,7.74279248046875,-0.06508768146038055,-0.00459823277676478,0.003043888607388362
1761341776279858700,7.752858642578125,-0.07152092937827109,-0.003136416595894843,0.00009551453003659844
1761341776289925600,7.762925537109375,-0.06942658744752407,-0.00010556100001558661,0.005816915250988677
1761341776299991600,7.772991455078125,-0.07077683301270007,-0.0062449040052481,0.0011901185334427281
1761341776310057700,7.7830576171875,-0.06763970403075217,-0.001080397381540388,-0.005127745676739141
1761341776320124700,7.793124755859375,-0.06898410437703133,0.004635386449377984,-0.0020311222351156173
1761341776330190300,7.8031904296875,-0.06823299374878405,0.0010660948615521192,-0.00040109618075657636
1761341776340256500,7.813256591796875,-0.06059855334758758,0.00032090251743793486,0.0020529915736289695
1761341776350323500,7.823323486328125,-0.0692769498437643,-0.0017915047929622232,0.0003735779861686751
1761341776360389400,7.833389404296875,-0.07137362986207008,0.0015619520870968698,0.0060200685736956075
1761341776370455600,7.84345556640625,-0.06598667612671852,0.0012721753602847456,0.002959543925337493
1761341776380522500,7.8535224609375,-0.06898001272380351,-0.0019602306896820665,0.003184119061985984
1761341776390588400,7.86358837890625,-0.06837853969931602,-0.000411156350467354,0.0006389098248910158
1761341776400654600,7.873654541015625,-0.06987316217124462,-0.003470489122159779,-0.004015336588583886
1761341776410720500,7.883720458984375,-0.07211714170575141,0.00008227145597338676,-0.0011625090073095635
1761341776420787500,7.893787353515625,-0.07286474520266055,0.0021653430740348994,-0.008458616265654563
1761341776430853600,7.903853515625,-0.06732756934165954,-0.0023707477193325756,0.004763118182006292
1761341776440919600,7.91391943359375,-0.06687982557415961,0.00654458107156679,0.007311108464654535
1761341776450986500,7.923986572265625,-0.07091887183189392,0.0060742418797686696,-0.00033299938060808926
1761341776461052400,7.934052490234375,-0.07061784305870533,0.00048124417830258605,-0.003736213686526753
1761341776471118300,7.944118408203125,-0.0695686262667179,-0.007366948571428656,0.0012255643061595037
1761341776481184500,7.9541845703125,-0.060142626273632045,-0.005248403781186789,0.0024880630892235786
1761341776491251500,7.96425146484375,-0.060740592166781425,-0.0001860606240108609,-0.004095781413652003
1761341776501317400,7.9743173828125,-0.06777063693404198,-0.0018306494932621717,-0.0002545318834949285
1761341776511383600,7.984383544921875,-0.06941548153162003,-0.0025098821953870353,0.004410756513802334
1761341776521450500,7.994450439453125,-0.0640314504057169,-0.003394793537445366,-0.004051873773266561
1761341776531516700,8.0045166015625,-0.06672551179528236,0.001825589725654572,-0.000846821521106176
1761341776541582600,8.01458251953125,-0.07091653374433517,-0.006339413888286799,-0.0034150417410302907
1761341776551648500,8.0246484375,-0.07136427751183509,-0.0044454899004660545,0.00699785496413242
1761341776561714700,8.034714599609375,-0.06897124489545822,-0.000765139153599739,0.0025903224538778883
1761341776571781600,8.04478173828125,-0.07645020247399807,-0.000987458401080221,-0.0021557760946685446
1761341776581847600,8.05484765625,-0.07420856102705001,0.006900956761185079,-0.002154355889139697
1761341776591913500,8.06491357421875,-0.05984218202233314,0.0016013525157235562,0.0030426282320637254
1761341776601980400,8.07498046875,-0.07016834572553635,0.004498553528264165,0.0001667759682284668
1761341776612046600,8.085046630859376,-0.06762450646162033,0.004822743981331586,0.006996366259944624
1761341776622112500,8.095112548828125,-0.06791969001591205,-0.006721435475815087,0.011804835120751521
1761341776632178400,8.105178466796875,-0.07270984690189361,-0.005772774715162813,0.0023926033581141383
1761341776642245600,8.11524560546875,-0.06807634188234805,0.002653199656214565,-0.00227582684434019
1761341776652311600,8.1253115234375,-0.07017302190065383,0.0024494755113497373,0.006869077485310845
1761341776662377500,8.13537744140625,-0.06837678613364696,0.004206730974838137,0.001459281730488874
1761341776672444700,8.145444580078125,-0.07061959662437439,-0.0015457681372761725,0.0026730734004639088
1761341776682510600,8.155510498046874,-0.06029810909628868,0.010103880988340825,-0.0018883618967141956
1761341776692576800,8.16557666015625,-0.06748422120809555,-0.0008057634249329567,0.0048467870106222105
1761341776702643200,8.175643310546874,-0.06418927131593227,-0.005136029447894543,0.0021585708399536087
1761341776712709000,8.185709228515625,-0.06643441989421844,-0.002565484840143472,0.000002050393191166222
1761341776722775000,8.195775146484374,-0.06194178465008735,0.0023773418569006024,0.0020284325211076064
1761341776732841000,8.205841064453125,-0.06433540178835391,0.00011670344853773713,-0.009329905507736838
1761341776742908000,8.215907958984374,-0.06777998928427696,-0.0009601137364283203,-0.0029288017272017896
1761341776752974000,8.22597412109375,-0.06284019479453563,0.0010881788291968405,-0.00028375341140199453
1761341776763040000,8.2360400390625,-0.07181962006390094,0.002942245730664581,0.0013842482994776218
1761341776773107000,8.24610693359375,-0.06972469361126422,0.001168532322719693,-0.00011473525373730808
1761341776783173000,8.256173095703126,-0.06822539496421813,-0.0018001995560713111,0.004225874066725373
1761341776793239000,8.266239013671875,-0.07151800676882267,0.0011021525556221604,0.0032610978549113493
1761341776803306000,8.276305908203126,-0.06732756934165954,-0.00042326691336929794,0.005797616895474493
1761341776813372200,8.2863720703125,-0.06478840625286102,-0.0011779942708089947,0.002055279428837821
1761341776823438000,8.29643798828125,-0.06359247446656227,-0.006188917768001556,0.004311036166106351
1761341776833504000,8.30650390625,-0.06314531522095203,-0.0020683855055831373,-0.0006622359015513211
1761341776843571200,8.3165712890625,-0.06823182470500469,0.002397288666386157,0.004809802301367744
1761341776853636900,8.326636962890625,-0.07017302190065383,0.011522643478773534,0.0014241784510668366
1761341776863703000,8.336703125,-0.06688391722738743,-0.0009747633162885904,0.006656827540695667
1761341776873770000,8.34677001953125,-0.06404372536540032,-0.0010044643348082899,-0.005420938203344121
1761341776883836000,8.3568359375,-0.06105214233398437,-0.001737509583402425,0.0011088151918491349
1761341776893902000,8.366902099609375,-0.06359481255412101,0.002120535817928612,0.002314227192546241
1761341776903969000,8.376968994140626,-0.06628653585612773,-0.0019724325841292737,0.004319324503839016
1761341776914035200,8.38703515625,-0.06015022505819797,0.0009500307338312267,-0.00045736554579343643
1761341776924102100,8.39710205078125,-0.07242109308838844,0.003384564404375851,0.0063366328427335245
1761341776934168000,8.40716796875,-0.0644926381766796,-0.0024736966371536255,-0.006908779308036901
1761341776944235000,8.417235107421876,-0.06524141071736812,0.00023590938141569495,-0.0006912245340179652
1761341776954301200,8.42730126953125,-0.0707803401440382,-0.005191358098015189,0.008318710038042626
1761341776964367000,8.4373671875,-0.06374678824543953,-0.0031278862295672297,0.007388900108332745
1761341776974433300,8.447433349609375,-0.0650941112011671,0.005543496003933251,0.004044731646426953
1761341776984500200,8.457500244140626,-0.06210369721353054,0.0031092545943334697,0.002790087376255542
1761341776994566000,8.46756591796875,-0.06479542051553726,0.0033037177205085754,0.006429690554202534
1761341777004632000,8.477632080078125,-0.06794190184772014,0.0028550423712469636,-0.0019936306357849387
1761341777014699000,8.487698974609375,-0.07153612694740295,0.0032860176670365033,-0.0006421201287070289
1761341777024765000,8.497764892578125,-0.06899521029293537,-0.0024020013741217552,0.003071137373917736
1761341777034831000,8.5078310546875,-0.07168342646360397,-0.0011004903214983641,0.004332850705692544
1761341777044898000,8.51789794921875,-0.0688414810359478,0.0026757402815856036,0.00506043432787992
1761341777054964000,8.5279638671875,-0.07377952196002006,0.0004821574937552213,-0.0003158975487574935
1761341777065030100,8.538030029296875,-0.0719867933243513,0.002866056955605745,0.004232564102415927
1761341777075096000,8.548095947265624,-0.07467500949501991,0.003832856161147356,-0.0008962775528663769
1761341777085163000,8.5581630859375,-0.06854103678464889,0.0013162336977198719,0.01031415817157831
1761341777095229200,8.568229248046874,-0.07377893743813037,-0.000013334405608475207,0.005505506647680886
1761341777105295000,8.578295166015625,-0.06824059253334999,-0.0007954064277000724,0.006262307231198065
1761341777115362000,8.588362060546874,-0.07946224377155303,-0.0009589264263398945,0.0009467884639743715
1761341777125428000,8.598427978515625,-0.06464753647744655,0.000782894005998969,0.0071133665360044685
1761341777135494000,8.608493896484376,-0.06614215894937515,-0.002250336210057139,0.0032205420822370794
1761341777145561000,8.61856103515625,-0.06329962899982929,-0.00043082916531711815,0.004419455843488685
1761341777155627000,8.628626953125,-0.06794014828205108,0.002938318474218249,0.004417834708560258
1761341777165693000,8.63869287109375,-0.06704407622516155,0.003269979847688228,0.0113029226137558
1761341777175759000,8.648759033203126,-0.06330605874061584,0.0033622977736406027,0.0050872355698375026
1761341777185826000,8.658825927734375,-0.06420329984128474,0.006186945006623864,0.0021858926717191933
1761341777195892000,8.66889208984375,-0.0721352618843317,0.0008170702702365815,0.006571578676346689
1761341777205958100,8.678958251953125,-0.06510112546384335,0.0009250241567380726,0.0011834741635248064
1761341777216025000,8.689025146484376,-0.07033785707354545,0.0017974413434043526,0.0015400188165018334
1761341777226091300,8.69909130859375,-0.06973813761472701,-0.004086209867708385,-0.0006615326486527919
1761341777236157200,8.7091572265625,-0.06285539236366748,0.0019465126915834843,0.008837222053389996
1761341777246224100,8.71922412109375,-0.06869184343218802,-0.0023463621967472134,0.007689778184471651
1761341777256290000,8.7292900390625,-0.07153788051307201,-0.009116495652496814,0.005129681905498728
1761341777266356000,8.73935595703125,-0.0668979457527399,-0.003033668607473373,0.004986889601056464
1761341777276422100,8.749422119140625,-0.06839607535600661,0.0015184600052423774,-0.0001706164597067982
1761341777286489000,8.759489013671875,-0.06630056438148021,-0.0004577902374789118,0.0023477641359670085
1761341777296555000,8.769554931640625,-0.06300912162065506,0.00256621549250558,-0.00508945949296467
1761341777306621200,8.77962109375,-0.06510404807329177,0.001187036093790084,0.00033158374165650453
1761341777316688100,8.789688232421875,-0.07438099498450755,-0.008570406077057122,0.00014271467262879013
1761341777326754000,8.799754150390624,-0.06360299586057662,0.0008276829957962036,-0.003920858671586029
1761341777336820200,8.8098203125,-0.06883797390460968,-0.0013393588449805973,0.0037871355895884333
1761341777346887200,8.81988720703125,-0.06808978588581084,0.003453592786286026,0.003041386123048141
1761341777356953000,8.829953125,-0.0694336017102003,0.0025740700053982434,0.0013709412933327256
1761341777367019300,8.840019287109374,-0.0710807843953371,0.004608187915198504,0.002880158546194434
1761341777377086200,8.850086181640625,-0.06988602165281772,0.0004963686821982265,0.0011667833236278966
1761341777387152000,8.86015185546875,-0.06749415808022022,-0.0022416962458752096,0.004895959914592095
1761341777397218000,8.870218017578125,-0.06524842498004436,0.00010185293927788733,0.004614028567518107
1761341777407284000,8.880283935546874,-0.06644260320067405,-0.004368022483773529,0.000680401745904237
1761341777417351000,8.890350830078125,-0.07496960852742195,-0.001008738651126623,-0.0013487066286383196
1761341777427417000,8.9004169921875,-0.07137772151529788,0.00014360972177237272,0.008809407031279987
1761341777437483000,8.91048291015625,-0.06808394066691398,0.00318695947304368,0.0038895273849833753
1761341777447550000,8.920550048828124,-0.07467325592935085,-0.007086031004507094,0.0032111212333431464
1761341777457616100,8.9306162109375,-0.07332768653929234,-0.0027235066797584293,-0.0010665378195466473
1761341777467682000,8.94068212890625,-0.07138005960285664,0.0022789412500336765,0.007300472906208597
1761341777477748200,8.950748291015625,-0.07751461683511733,0.003554221882857382,0.002261127032130025
1761341777487815200,8.960815185546876,-0.06958616192340851,-0.0026172332936897874,-0.0019252096086507663
1761341777497881000,8.970881103515625,-0.06808861684203148,0.0034596572008915244,0.00422674628298264
1761341777507947000,8.980947021484376,-0.06929097836911678,-0.0015266981106251477,0.0010204016894567757
1761341777518014000,8.991013916015625,-0.06674421649575234,0.009462459545955062,-0.004056234854552894
1761341777528080000,9.001079833984376,-0.059713002684712406,-0.0030029629419557747,-0.001996630877046846
1761341777538146000,9.01114599609375,-0.06180792913734912,-0.0003351867711171508,0.007917622990440576
1761341777548213000,9.021212890625,-0.06719839000403881,0.008341784952953457,0.0019075186883332207
1761341777558279000,9.03127880859375,-0.05073650002479553,-0.003888659735303372,0.0007293919867835939
1761341777568345000,9.041344970703125,-0.06271159997880459,0.002276840624492615,0.00707284272937104
1761341777578411000,9.051410888671874,-0.09906886151731013,0.010724478838406503,-0.0014316859040874987
1761341777588478200,9.061478271484376,-0.04415127641558647,-0.0020343005728907884,0.014346112534822895
1761341777598544100,9.071544189453125,-0.08336275834143161,0.003120159580837935,-0.0005596020775614306
1761341777608610000,9.081610107421875,-0.07139642621576786,0.008237173801008612,0.006847536940360441
1761341777618677200,9.09167724609375,-0.05972703121006488,-0.004058116284385323,0.004210201573558152
1761341777628743200,9.1017431640625,-0.0706453155875206,0.0037918300310149787,0.0074216561670415095
1761341777638809000,9.11180908203125,-0.06899228768348693,0.0009848645851947366,0.0016980908884666858
1761341777648875000,9.121875,-0.06628945846557617,0.002187463574297726,-0.005253116488922387
1761341777658942000,9.13194189453125,-0.07481237213909625,0.00063384092412889,0.011220751622482202
1761341777669008100,9.142008056640625,-0.06717968530356884,0.001381480953656137,-0.0008978438888676464
1761341777679074000,9.152073974609374,-0.07660334720909595,0.0017262210044078528,-0.0035511851089773698
1761341777689141000,9.16214111328125,-0.07121931608319282,0.0005213387266732753,0.008633698837924747
