time,seconds_elapsed,z,y,x
1761341768609324300,0.08232421875,-0.0010067005641758442,-0.00003970786929130554,0.0016321437433362007
1761341768619391200,0.09239111328125,-0.0022586523555219173,-0.0020613139495253563,0.0014787456020712852
1761341768629457200,0.10245703125,-0.0003919685259461403,0.0007035154849290848,-0.0007579145021736622
1761341768639523300,0.1125234375,-0.0000018151476979255676,0.0006481213495135307,-0.000040724873542785645
1761341768649590300,0.12259033203125,0.000017080921679735184,0.0007130000740289688,0.0020724977366626263
1761341768659656200,0.13265625,0.0022607939317822456,0.0006916942074894905,-0.0022799065336585045
1761341768669722400,0.142722412109375,0.0007188315503299236,0.00023190118372440338,0.0013833134435117245
1761341768679789300,0.152789306640625,-0.000141901895403862,0.000016451813280582428,-0.0003802315331995487
1761341768689855200,0.162855224609375,0.0006047133356332779,0.0018778042867779732,-0.0015766001306474209
1761341768699921700,0.172921630859375,0.0004925942048430443,0.00098484568297863,0.0007451437413692474
1761341768709988600,0.182988525390625,0.002106419298797846,0.0007367758080363274,-0.0003135320730507374
1761341768720054500,0.193054443359375,0.0015309099107980728,0.0022939248010516167,-0.00041286833584308624
1761341768730120700,0.20312060546875,-0.000441825482994318,0.00030264630913734436,-0.00036702724173665047
1761341768740187600,0.213187744140625,0.00011584069579839706,0.0008288873359560966,0.0009802663698792458
1761341768750253600,0.223253662109375,0.0012995540164411068,0.0008977269753813744,-0.0005445485003292561
1761341768760319500,0.233319580078125,0.0013062120415270329,-0.0019169682636857033,0.0006685210391879082
1761341768770386400,0.243386474609375,-0.0009061312302947044,0.0018150927498936653,0.0012550447136163712
1761341768780452600,0.25345263671875,0.00021692411974072456,0.0014262711629271507,-0.000012353993952274323
1761341768790518500,0.2635185546875,0.001559168566018343,0.00046034157276153564,-0.0016608280129730701
1761341768800585500,0.27358544921875,-0.00015457579866051674,0.002720300108194351,-0.0009130123071372509
1761341768810651600,0.283651611328125,0.000750088132917881,-0.0012097032740712166,-0.000464647077023983
1761341768820717600,0.293717529296875,0.000010262243449687958,0.001556522212922573,0.0003388291224837303
1761341768830784500,0.303784423828125,-0.0002503441646695137,0.0004477323964238167,0.00043984781950712204
1761341768840850700,0.3138505859375,-0.00012943660840392113,-0.0008878428488969803,0.0016257530078291893
1761341768850916600,0.32391650390625,0.000003925058990716934,0.00003283657133579254,-0.0015449323691427708
1761341768860983600,0.333983642578125,-0.0004035388119518757,-0.00041191093623638153,-0.00019870419055223465
1761341768871049700,0.3440498046875,0.0009046252816915512,0.0005941474810242653,-0.0015218844637274742
1761341768881115600,0.35411572265625,0.0014644213952124119,-0.00006605032831430435,-0.0014734147116541862
1761341768891182600,0.3641826171875,-0.0008194972760975361,-0.0016052257269620895,-0.0000650179572403431
1761341768901248500,0.37424853515625,-0.0011950028128921986,0.000036879442632198334,0.002497475128620863
1761341768911314400,0.384314453125,-0.0013486100360751152,-0.00009967479854822159,0.0003866013139486313
1761341768921381400,0.39438134765625,-0.000841544009745121,0.0005522677674889565,0.0012361500412225723
1761341768931447600,0.404447509765625,-0.00017322413623332977,-0.000316740944981575,-0.001630555372685194
1761341768941513500,0.414513427734375,0.00010001612827181816,-0.00007146410644054413,-0.001600727904587984
1761341768951580400,0.424580322265625,-0.0002416805364191532,0.001133105717599392,-0.0002110241912305355
1761341768961646600,0.434646484375,0.0008965544402599335,-0.0011670663952827454,0.0008052382618188858
1761341768971712500,0.44471240234375,0.0010830131359398365,0.0015909075736999512,0.00039254408329725266
1761341768981779500,0.454779541015625,-0.002011580392718315,0.0012782532721757889,-0.0029979259707033634
1761341768991845600,0.464845703125,0.0006055436097085476,-0.0008464213460683823,0.002895468845963478
1761341769001911600,0.47491162109375,0.002365626860409975,0.0005522705614566803,-0.001872920896857977
1761341769011978800,0.484978759765625,0.0013705980964004993,0.00037118885666131973,0.0017494047060608864
1761341769022044700,0.495044677734375,0.0010888357646763325,-0.0017460240051150322,0.00037947483360767365
1761341769032110600,0.505110595703125,0.0005555246025323868,-0.0012411288917064667,-0.002286382485181093
1761341769042177800,0.515177734375,-0.0011555561795830727,-0.001225949265062809,-0.0017375051975250244
1761341769052243500,0.525243408203125,-0.001769869588315487,0.0007204702123999596,0.0011865440756082535
1761341769062309400,0.535309326171875,-0.0013429648242890835,0.0007316553965210915,-0.0006835274398326874
1761341769072376600,0.54537646484375,0.0012157331220805645,-0.0012024519965052605,0.001928284764289856
1761341769082442500,0.5554423828125,0.00037017930299043655,0.00035682879388332367,-0.003299499861896038
1761341769092508700,0.5655087890625,0.0010858476161956787,0.0007982868701219559,-0.0025529591366648674
1761341769102575600,0.57557568359375,0.0005090069025754929,0.001598833128809929,-0.00045279040932655334
1761341769112641500,0.5856416015625,0.0009191548451781273,-0.002649664878845215,0.001506546512246132
1761341769122708500,0.59570849609375,-0.00021162349730730057,0.00002681184560060501,-0.00143890967592597
1761341769132774700,0.605774658203125,0.0003713564947247505,0.000331241637468338,0.0001411740668118
1761341769142840600,0.615840576171875,-0.000525063369423151,-0.001381702721118927,0.0007494394667446613
1761341769152906800,0.62590673828125,0.0022285114973783493,-0.0007252506911754608,0.0009105023927986622
1761341769162973700,0.6359736328125,0.0021246480755507946,-0.0010743914172053337,0.0008180900476872921
1761341769173039600,0.64603955078125,-0.0031832167878746986,-0.00021171849220991135,0.0006842818111181259
1761341769183105500,0.65610546875,-0.00014375103637576103,-0.00025113392621278763,0.002526124007999897
1761341769193172500,0.66617236328125,-0.0008771852590143681,-0.0006625726819038391,0.0011539952829480171
1761341769203238400,0.67623828125,0.0016213925555348396,0.00028391461819410324,-0.0012644208036363125
1761341769213304600,0.6863046875,-0.000930179376155138,0.0024195872247219086,0.00012969458475708961
1761341769223371500,0.69637158203125,-0.0015996978618204594,-0.0019860807806253433,0.00014940230175852776
1761341769233437400,0.7064375,-0.0004332335665822029,0.0015366580337285995,-0.0024072444066405296
1761341769243503600,0.716503662109375,0.0005891541950404644,0.001857834868133068,0.0007994682528078556
1761341769253570600,0.726570556640625,-0.000895173754543066,-0.0000592181459069252,-0.0015550395473837852
1761341769263636500,0.736636474609375,0.00002841046079993248,-0.001262967474758625,-0.0028016651049256325
1761341769273703700,0.74670361328125,0.0002512773498892784,0.0005071358755230904,0.0006050863303244114
1761341769283769600,0.75676953125,-0.0012896275147795677,0.0003321664407849312,0.0001254514791071415
1761341769293835500,0.76683544921875,0.0026151554193347692,0.0012017283588647842,-0.0010499097406864166
1761341769303901700,0.776901611328125,0.0000329543836414814,-0.001004168763756752,0.00016156211495399475
1761341769313968600,0.78696875,0.0001920638605952263,0.0016332129016518593,-0.0011422238312661648
1761341769324034800,0.797034912109375,-0.0004257895052433014,0.0017112437635660172,-0.00010865135118365288
1761341769334101800,0.807101806640625,0.0014680661261081696,0.0005561076104640961,-0.0003081602044403553
1761341769344167400,0.81716748046875,-0.00008269259706139565,-0.0011954531073570251,-0.0007347986102104187
1761341769354233600,0.827233642578125,0.0010236059315502644,-0.0005568955093622208,-0.00030437717214226723
1761341769364299500,0.837299560546875,-0.0009359479881823063,0.0016125161200761795,0.0009284000843763351
1761341769374366500,0.847366455078125,0.0014794720336794853,-0.0012312931939959526,0.001325258519500494
1761341769384432600,0.8574326171875,0.00024882517755031586,-0.00025018490850925446,0.0031380723230540752
1761341769394499600,0.86749951171875,-0.00137052359059453,0.00019022729247808456,-0.003933950327336788
1761341769404565500,0.8775654296875,-0.001151079311966896,-0.0007804948836565018,0.001213939394801855
1761341769414631700,0.887631591796875,-0.0009735268540680408,0.0002973647788167,-0.0005218526348471642
1761341769424697600,0.897697509765625,-0.00018256762996315956,0.0008070943877100945,0.0011649937368929386
1761341769434764500,0.9077646484375,-0.000817685853689909,0.0008009877055883408,0.0003714468330144882
1761341769444830700,0.917830810546875,0.0032036874908953905,0.0010302858427166939,-0.0008972836658358574
1761341769454897700,0.927897705078125,0.002893774537369609,0.0008413204923272133,0.0004833173006772995
1761341769464963600,0.937963623046875,-0.0003504883497953415,0.0010791411623358727,-0.0006517223082482815
1761341769475029500,0.948029541015625,-0.001167262438684702,-0.0007557421922683716,0.0026220292784273624
1761341769485095400,0.958095458984375,0.00048602791503071785,-0.0008489526808261871,-0.0004898738116025925
1761341769495162400,0.968162353515625,-0.0021764864213764668,-0.00007889047265052795,-0.0012461971491575241
1761341769505228500,0.978228515625,-0.001228933222591877,-0.000337749719619751,-0.0009023831225931644
1761341769515295500,0.98829541015625,0.00010584620758891106,0.00004580058157444,0.0032964632846415043
1761341769525361700,0.998361572265625,0.0018904302269220352,0.0001597842201590538,-0.0005315644666552544
1761341769535427600,1.008427490234375,-0.00022070016711950302,-0.0022065211087465286,-0.00010022567585110664
1761341769545493500,1.018493408203125,0.0014315247535705566,0.0006387997418642044,0.00017274823039770126
1761341769555560700,1.028560791015625,-0.0007599894888699055,-0.00014442671090364456,0.0023721023462712765
1761341769565626600,1.038626708984375,0.0015218066982924938,0.0018396275117993355,0.0013598348014056683
1761341769575692500,1.048692626953125,-0.0021407343447208405,0.0011342857033014297,-0.0006826478056609631
1761341769585759700,1.058759765625,-0.0029303617775440216,0.00027674809098243713,0.0009088572114706039
1761341769595825700,1.06882568359375,0.0012134974822402,-0.00024062488228082657,0.003638635389506817
1761341769605891600,1.0788916015625,0.0008896570652723312,-0.000597221776843071,0.0009086290374398232
1761341769615958800,1.088958740234375,0.0013259323313832283,0.00007343664765357971,0.00004146154969930649
1761341769626024400,1.0990244140625,0.000863607507199049,0.0003565307706594467,-0.0019109020940959454
1761341769636090600,1.109090576171875,-0.0008917157538235188,-0.0009056935086846352,0.0006970926187932491
1761341769646157600,1.119157470703125,-0.0013069026172161102,0.0006373422220349312,-0.00025152508169412613
1761341769656223500,1.129223388671875,0.0007063471712172031,0.0015010600909590721,0.005332038272172213
1761341769666289700,1.13928955078125,-0.0009027346968650818,0.0005335342139005661,-0.0013873837888240814
1761341769676356600,1.149356689453125,0.0005848556756973267,-0.0002969149500131607,0.002667216584086418
1761341769686422500,1.159422607421875,-0.0006098384037613869,-0.0002492442727088928,0.003756982274353504
1761341769696488200,1.16948828125,0.00037650251761078835,0.0012773601338267326,0.0005976520478725433
1761341769706555100,1.17955517578125,0.0005181827582418919,-0.0003652777522802353,0.0018677134066820145
1761341769716621000,1.18962109375,-0.0007843947969377041,0.0017694644629955292,0.00032299431040883064
1761341769726687000,1.19968701171875,0.00017887074500322342,0.001491163857281208,0.0036791102029383183
1761341769736754200,1.209754150390625,-0.0003876537084579468,0.00033011287450790405,-0.0010702735744416714
1761341769746820000,1.219820068359375,0.00208881963044405,-0.0013178512454032898,-0.0011256672441959381
1761341769756886000,1.229885986328125,-0.001534285955131054,-0.0012435568496584892,-0.0004236055538058281
1761341769766953000,1.239952880859375,0.0007874579168856144,0.000580974854528904,-0.0016555837355554104
1761341769777019100,1.25001904296875,0.0013669785112142563,-0.00028005335479974747,0.0005050846375524998
1761341769787085000,1.2600849609375,-0.0002405056729912758,0.00019532069563865662,0.000012932810932397842
1761341769797152000,1.270152099609375,0.001238296739757061,0.0012372024357318878,-0.00007464829832315445
1761341769807218200,1.28021826171875,0.0003461376763880253,-0.00008292682468891144,-0.0009510945528745651
1761341769817284000,1.2902841796875,-0.0003431355580687523,-0.0004137987270951271,0.00025783246383070946
1761341769827351000,1.30035107421875,0.0010435725562274456,0.002559354528784752,-0.0008484446443617344
1761341769837417200,1.310417236328125,0.00014910753816366196,-0.002398592419922352,0.0025914241559803486
1761341769847483100,1.320483154296875,0.00005270121619105339,-0.00010667648166418076,-0.0012794802896678448
1761341769857550000,1.330550048828125,0.00139140198007226,-0.00009695719927549362,0.0015786616131663322
1761341769867616300,1.3406162109375,0.0005327989347279072,-0.0004184003919363022,0.0004630638286471367
1761341769877682000,1.350681884765625,0.0004094117321074009,0.0015511680394411087,0.0020218947902321815
1761341769887748900,1.360748779296875,0.0004461631178855896,-0.0004949383437633514,0.0012666219845414162
1761341769897815000,1.37081494140625,0.002461082534864545,0.0004978487268090248,0.004335521720349789
1761341769907881000,1.380880859375,0.00024080509319901466,-0.00032959599047899246,-0.002594555728137493
1761341769917948000,1.390947998046875,-0.0007745553739368916,-0.0013871686533093452,0.0013360865414142609
1761341769928014000,1.40101416015625,-0.00011915108188986778,-0.0017160689458251,-0.0010367901995778084
1761341769938080000,1.411080078125,0.0013802237808704376,-0.0011248961091041565,-0.0026068310253322124
1761341769948147000,1.42114697265625,-0.0038345116190612316,-0.0013398127630352974,0.0008715237490832806
1761341769958213000,1.431213134765625,-0.0008111675269901752,0.00024596694856882095,-0.002652096562087536
1761341769968279000,1.441279052734375,0.0008706185035407543,-0.0013066558167338371,-0.00007016165181994438
1761341769978346000,1.451345947265625,-0.0008458779193460941,-0.0010944968089461327,-0.00028375256806612015
1761341769988412200,1.461412109375,-0.003280273638665676,0.000667184591293335,0.0004970869049429893
1761341769998478000,1.47147802734375,0.00024372292682528496,-0.002090723253786564,0.0016412301920354366
1761341770008545300,1.481545166015625,-0.002169633749872446,0.0011924216523766518,-0.002273883204907179
1761341770018611000,1.49161083984375,0.0012739254161715508,-0.0022424031049013138,-0.0016860002651810646
1761341770028676900,1.5016767578125,0.0005868300795555115,-0.0006679417565464973,-0.0016758805140852928
1761341770038744000,1.511744140625,-0.00023067882284522057,0.002672262489795685,0.0009388993494212627
1761341770048810000,1.52181005859375,-0.0003462601453065872,0.001210452988743782,0.0018843221478164196
1761341770058876200,1.531876220703125,0.0011175158433616161,-0.0012559909373521805,0.0007740636356174946
1761341770068943000,1.541943115234375,0.0016376310959458351,-0.0001513119786977768,0.00042439019307494164
1761341770079009000,1.552009033203125,0.0014133504591882229,-0.0026425523683428764,-0.0012844032607972622
1761341770089075200,1.5620751953125,0.0010282574221491814,0.0015442026779055595,-0.0012226179242134094
1761341770099142100,1.57214208984375,-0.0004929029382765293,-0.0007112976163625717,0.00031644105911254883
1761341770109208000,1.5822080078125,0.0013950117863714695,-0.0003102254122495651,-0.00022924039512872696
1761341770119274200,1.592274169921875,-0.0015429495833814144,0.0005321037024259567,0.0034033753909170628
1761341770129341200,1.602341064453125,-0.0012294957414269447,0.0014333175495266914,0.0012816344387829304
1761341770139407000,1.612406982421875,-0.0005616550333797932,0.0011344226077198982,0.0006205602549016476
1761341770149473300,1.622473388671875,-0.003285802435129881,-0.003302137367427349,0.0006722253747284412
1761341770159540200,1.632540283203125,-0.0010774731636047363,0.002286616712808609,-0.0032835323363542557
1761341770169606000,1.64260595703125,0.002079437952488661,0.00009669922292232513,-0.0012542037293314934
1761341770179672000,1.652672119140625,0.0013945302926003933,-0.0015836898237466812,-0.0007589804008603096
1761341770189739000,1.662739013671875,0.00002193683758378029,-0.00031123124063014984,0.0021225595846772194
1761341770199805000,1.672804931640625,-0.0015670377761125565,-0.00034729018807411194,-0.0013828878290951252
1761341770209871000,1.68287109375,-0.0014903382398188114,-0.0024109743535518646,-0.0010406714864075184
1761341770219938000,1.69293798828125,0.0001284601166844368,0.003059227019548416,0.000613632146269083
1761341770230004000,1.70300390625,-0.00039325328543782234,0.0008077910169959068,-0.0006106230430305004
1761341770240070100,1.713070068359375,0.002357771620154381,-0.00020016822963953018,-0.00041478313505649567
1761341770250137000,1.72313720703125,-0.0011077998206019402,0.0003116913139820099,-0.0008307686075568199
1761341770260203000,1.733203125,0.0005362569354474545,0.0005919188261032104,-0.00023323530331254005
1761341770270269200,1.743269287109375,0.002219640649855137,0.0006110938265919685,-0.00005427049472928047
1761341770280336100,1.753336181640625,-0.0000709150917828083,0.0004919236525893211,0.002060899045318365
1761341770290402000,1.763402099609375,-0.0015218048356473446,-0.0009363293647766113,0.0007106759585440159
1761341770300468000,1.773468017578125,0.0002450020983815193,0.0006007635965943336,-0.0024774884805083275
1761341770310534000,1.783533935546875,0.00027190009132027626,-0.00038061104714870453,-0.0011658817529678345
1761341770320601000,1.79360107421875,-0.0003665531985461712,0.0014272863045334816,-0.0008232947438955307
1761341770330667000,1.8036669921875,0.0020822235383093357,-0.0009562429040670395,0.001969296019524336
1761341770340733000,1.81373291015625,-0.00021122489124536514,-0.002100890502333641,0.0031336043030023575
1761341770350800100,1.823800048828125,-0.0011302814818918705,-0.0004872819408774376,0.0010036081075668335
1761341770360866000,1.833865966796875,-0.0005237688310444355,-0.00022657588124275208,-0.0027307304553687572
1761341770370932200,1.84393212890625,0.0007755872793495655,-0.0004979521036148071,0.001404625829309225
1761341770380999200,1.853999267578125,0.0020383568480610847,-0.00037541892379522324,-0.0020777550525963306
1761341770391065000,1.864065185546875,-0.00013345107436180115,0.0006269952282309532,0.000968368723988533
1761341770401131300,1.87413134765625,-0.0011748834513127804,-0.0005350848659873009,0.000996011309325695
1761341770411198200,1.8841982421875,0.0003268728032708168,-0.0006605200469493866,-0.003535090945661068
1761341770421264100,1.89426416015625,-0.0011224611662328243,-0.001337752677500248,-0.0006501874886453152
1761341770431330000,1.904330078125,-0.00013123219832777977,0.0011339271441102028,0.002443606499582529
1761341770441397200,1.914397216796875,0.00084711704403162,-0.0008899793028831482,-0.000499204732477665
1761341770451463000,1.924462890625,0.00039917370304465294,-0.0029864199459552765,-0.0035085766576230526
1761341770461529000,1.934529052734375,0.0029445989057421684,-0.0005110278725624084,0.0006587430834770203
1761341770471596000,1.944595947265625,0.0001280396245419979,-0.0010180938988924026,0.0010393084958195686
1761341770481662000,1.954661865234375,0.0007277438417077065,0.0008152369409799576,0.0016736430115997791
1761341770491728100,1.96472802734375,0.0007679578848183155,0.0003529125824570656,0.0005844100378453732
1761341770501795000,1.974795166015625,-0.000971717294305563,-0.000964796170592308,-0.0007017832249403
1761341770511861000,1.984861083984375,0.0007217871025204659,-0.0019903788343071938,-0.0023121964186429977
1761341770521927200,1.99492724609375,0.0009589055553078651,-0.00026192329823970795,0.0025120917707681656
1761341770531994000,2.004994140625,0.00033892178907990456,-0.0010211905464529991,0.0018031587824225426
1761341770542060000,2.01506005859375,-0.00043765129521489143,-0.0013118525967001915,0.001040501520037651
1761341770552126200,2.025126220703125,0.0009964611381292343,0.0015798071399331093,-0.0006420831196010113
1761341770562193200,2.035193115234375,-0.0000354633666574955,-0.0003002472221851349,0.0002688528038561344
1761341770572259000,2.045259033203125,0.0005882489494979382,-0.0003053070977330208,0.0003847004845738411
1761341770582325000,2.055324951171875,-0.0002827155403792858,-0.00027258414775133133,-0.0007302430458366871
1761341770592392000,2.065391845703125,0.0027468965854495764,0.00008534546941518784,0.0025196122005581856
1761341770602458000,2.0754580078125,0.0004436229355633259,0.00027310755103826523,-0.0023462865501642227
1761341770612524000,2.08552392578125,-0.003362833522260189,0.00034874118864536285,0.0015762830153107643
1761341770622591000,2.095591064453125,-0.00009956257417798042,-0.0009145457297563553,0.0015095043927431107
1761341770632657200,2.1056572265625,0.00026768725365400314,0.0011227726936340332,0.00030069518834352493
1761341770642723000,2.11572314453125,0.00008764397352933884,-0.0009481022134423256,0.0011818567290902138
1761341770652790000,2.1257900390625,-0.0009778868407011032,-0.0010746018961071968,0.0012809261679649353
1761341770662856200,2.135856201171875,0.001842146273702383,-0.00008748378604650497,-0.0004303688183426857
1761341770672922000,2.145922119140625,-0.0009698858484625816,-0.00022463593631982803,-0.003861319040879607
1761341770682989000,2.155989013671875,0.002381623722612858,-0.0017277784645557404,0.00007434794679284096
1761341770693055700,2.1660556640625,-0.000835740938782692,0.0017087645828723907,-0.00046733906492590904
1761341770703121400,2.176121337890625,0.001057156827300787,0.0016854302957654,-0.0015235133469104767
1761341770713187600,2.1861875,-0.002406550105661154,-0.001348709687590599,0.002308509312570095
1761341770723254500,2.196254638671875,-0.000581938773393631,-0.0007531363517045975,-0.0007677539251744747
1761341770733320400,2.206320556640625,0.0035816472955048084,0.00024608150124549866,-0.00005722278729081154
1761341770743386600,2.21638671875,-0.0014527845196425915,-0.0006475336849689484,0.0008575390093028545
1761341770753453600,2.22645361328125,0.0032173346262425184,-0.0023024221882224083,-0.0008074687793850899
1761341770763519500,2.23651953125,0.0016723955050110817,-0.0002235816791653633,0.0012329616583883762
1761341770773585700,2.246585693359375,0.0028732148930430412,-0.0006219903007149696,0.002020725514739752
1761341770783652600,2.256652587890625,-0.0006983154453337193,0.0035920003429055214,0.00003858096897602081
1761341770793718500,2.266718505859375,-0.0013595782220363617,0.000676104798913002,0.0019778949208557606
1761341770803784700,2.27678466796875,-0.001707221381366253,0.001254192553460598,0.001162561122328043
1761341770813851600,2.2868515625,-0.0005021411925554276,-0.000058745965361595154,-0.001228957436978817
1761341770823917600,2.29691748046875,0.0006562392227351665,-0.0019648661836981773,-0.0015525873750448227
1761341770833983500,2.3069833984375,0.0003422521986067295,0.001400836743414402,0.00036302488297224045
1761341770844050700,2.31705078125,-0.0011469563469290733,-0.0011969702318310738,-0.0011059693060815334
1761341770854116400,2.327116455078125,-0.001274521928280592,-0.00162493996322155,-0.0002127452753484249
1761341770864182500,2.3371826171875,-0.0014162533916532993,-0.0010342877358198166,-0.00264974357560277
1761341770874249500,2.34724951171875,0.00013530440628528595,-0.0006009917706251144,0.0002744067460298538
1761341770884315400,2.3573154296875,0.0033609261736273766,0.002486695535480976,0.0020393291488289833
1761341770894381600,2.367381591796875,0.001353168860077858,-0.00020682532340288162,0.000023050233721733093
1761341770904448500,2.377448486328125,-0.0005086776800453663,0.0017694132402539253,-0.00012667663395404816
1761341770914514400,2.387514404296875,0.0010679136030375957,0.00036246515810489655,0.000003552064299583435
1761341770924580600,2.39758056640625,0.0014846576377749443,0.0007771849632263184,-0.000040815677493810654
1761341770934647600,2.4076474609375,0.001314481720328331,0.0009838463738560677,0.0003067268989980221
1761341770944713500,2.41771337890625,-0.0008052531629800797,0.001833002083003521,0.0035228109918534756
1761341770954779600,2.427779541015625,-0.00020178081467747688,-0.001277036964893341,-0.0029606549069285393
1761341770964846600,2.4378466796875,0.0026756650768220425,0.0004908246919512749,0.0008311779238283634
1761341770974912800,2.447912841796875,0.0011608591303229332,0.0015417085960507393,0.0011065485887229443
1761341770984978400,2.457978515625,-0.0024852147325873375,-0.002039489336311817,0.00028076255694031715
1761341770995045400,2.46804541015625,0.00032149069011211395,-0.002913272939622402,-0.00013469019904732704
1761341771005111600,2.478111572265625,-0.0006783599965274334,-0.0008891290053725243,-0.000049808528274297714
1761341771015177500,2.488177490234375,-0.0010975413024425507,-0.00015143398195505142,-0.0020274720154702663
1761341771025243600,2.49824365234375,0.00347414193674922,-0.0018390314653515816,-0.0004906239919364452
1761341771035310600,2.508310546875,-0.00003830110654234886,0.0001024128869175911,0.0006018048152327538
1761341771045376500,2.51837646484375,-0.000663507729768753,0.0029458291828632355,-0.0032846969552338123
1761341771055442700,2.528442626953125,-0.0013982737436890602,-0.0003410438075661659,-0.000491041224449873
1761341771065509600,2.538509521484375,-0.0013652360066771507,0.00007907859981060028,-0.0007239743135869503
1761341771075575600,2.548575439453125,-0.0008131628856062889,-0.0012253373861312866,0.0008030817843973637
1761341771085641700,2.558641845703125,0.0007208497263491154,-0.001651001162827015,0.0025471006520092487
1761341771095708700,2.568708740234375,-0.0012219264172017574,0.002947479486465454,0.0012251068837940693
1761341771105774600,2.578774658203125,0.0002737510949373245,-0.0016851751133799553,-0.0011810436844825745
1761341771115840500,2.588840576171875,-0.001519621815532446,0.0006344383582472801,0.0002197790890932083
1761341771125907500,2.598907470703125,0.000577226746827364,0.0038609374314546585,-0.0021105785854160786
1761341771135973400,2.608973388671875,0.0020499546080827713,-0.0017769737169146538,-0.00115690054371953
1761341771146039600,2.61903955078125,0.0016897101886570454,0.00123661570250988,0.0009696688503026962
1761341771156106500,2.6291064453125,0.000651609618216753,-0.0049821315333247185,0.001840522512793541
1761341771166172400,2.63917236328125,-0.0022869836539030075,-0.0011261431500315666,-0.0022206660360097885
1761341771176238600,2.649238525390625,-0.0008262395858764648,0.0010661715641617775,-0.002618542406708002
1761341771186305500,2.659305419921875,-0.0006162249483168125,-0.0009775049984455109,-0.0015670373104512691
1761341771196371500,2.669371337890625,0.0012501184828579426,-0.0009074639528989792,-0.00020163459703326225
1761341771206437600,2.679437744140625,0.00016033602878451347,-0.0002878066152334213,0.002512842882424593
1761341771216504600,2.689504638671875,-0.0005725654773414135,-0.002507285214960575,-0.002015329897403717
1761341771226570500,2.699570556640625,-0.0022784913890063763,0.0004984363913536072,-0.0004168311133980751
1761341771236636700,2.70963671875,0.00046589644625782967,0.0029698489233851433,0.002521434798836708
1761341771246703600,2.71970361328125,0.0004528588615357876,0.001048254780471325,-0.002457830123603344
1761341771256769500,2.72976953125,-0.0005167978815734386,0.0003329301252961159,0.0020232051610946655
1761341771266835500,2.73983544921875,-0.0005199848674237728,-0.000022065825760364532,-0.00006776303052902222
1761341771276902400,2.74990234375,-0.000756473746150732,0.001904997043311596,-0.000367102213203907
1761341771286968600,2.759968505859375,0.0020374967716634274,-0.0009034164249897003,0.004010644741356373
1761341771297034500,2.770034423828125,-0.000807558186352253,-0.00006052572280168533,0.0019176667556166649
1761341771307100400,2.780100341796875,0.00001587485894560814,-0.0015729134902358055,-0.0011967876926064491
1761341771317167600,2.790167724609375,0.0010044402442872524,0.000908886082470417,0.00028472859412431717
1761341771327233500,2.800233642578125,0.0015251394361257553,0.0027294913306832314,-0.0015739412046968937
1761341771337299700,2.8102998046875,-0.0016011456027626991,0.0018274793401360512,-0.00043437443673610687
1761341771347366700,2.82036669921875,0.00021121837198734283,0.0009258482605218887,0.004438426811248064
1761341771357432600,2.8304326171875,0.00042293965816497803,0.002730938605964184,0.0024578343145549297
1761341771367498800,2.840498779296875,0.002440717304125428,0.0015405146405100822,0.00022710906341671944
1761341771377565700,2.850565673828125,0.0034947965759783983,-0.0010320991277694702,0.0008478919044137001
1761341771387631400,2.86063134765625,-0.0013837618753314018,-0.0004342002794146538,-0.0006910483352839947
1761341771397697500,2.870697509765625,-0.00039226701483130455,-0.0002645570784807205,-0.0004284605383872986
1761341771407764500,2.880764404296875,-0.00048452848568558693,0.0009324792772531509,0.0025773243978619576
1761341771417830400,2.890830322265625,0.0006361301057040691,0.00032048486173152924,-0.001040846575051546
1761341771427896600,2.900896484375,0.0004089479334652424,0.0006032576784491539,-0.000535865779966116
1761341771437963500,2.910963623046875,-0.0011689751408994198,0.0006176391616463661,0.00007346551865339279
1761341771448029400,2.921029541015625,-0.0005835816264152527,0.00010726973414421082,0.00024502305313944817
1761341771458095600,2.931095703125,-0.0006283228285610676,-0.000733490101993084,-0.0013036052696406841
1761341771468162600,2.94116259765625,0.0014235032722353935,-0.0008767861872911453,-0.00045487890020012856
1761341771478228500,2.951228515625,-0.0004225997254252434,-0.0005625337362289429,-0.00115555664524436
1761341771488294700,2.961294677734375,-0.0001558074727654457,0.0001279851421713829,-0.0036433273926377296
1761341771498361600,2.971361572265625,0.002623999724164605,0.0027277637273073196,-0.0002997289411723614
1761341771508427500,2.981427490234375,0.0012458530254662037,0.0004155253991484642,-0.0017550750635564327
1761341771518493400,2.991493408203125,0.00030149612575769424,-0.00057197455316782,-0.0024080821312963963
1761341771528560600,3.001560546875,-0.001899823546409607,-0.000459122471511364,0.0005661486648023129
1761341771538626600,3.01162646484375,0.00125522306188941,-0.00022263452410697937,0.001169621478766203
1761341771548692500,3.0216923828125,-0.0013431310653686523,-0.001817474141716957,0.00020309071987867355
1761341771558759400,3.031759521484375,0.00008325790986418724,-0.0005745766684412956,0.002366377040743828
1761341771568825600,3.04182568359375,0.0029394146986305714,-0.0021537579596042633,0.0003274199552834034
1761341771578891500,3.0518916015625,-0.0002563786692917347,-0.000574503093957901,-0.002557582687586546
1761341771588957400,3.06195751953125,0.004061195068061352,0.002323489636182785,-0.00001617521047592163
1761341771599024600,3.072024658203125,-0.0014254492707550526,0.0009650103747844696,0.0019271336495876312
1761341771609090600,3.082090576171875,-0.00112496642395854,0.0026005273684859276,-0.0012109139934182167
1761341771619156500,3.092156494140625,0.0026870821602642536,-0.0004285518079996109,0.0007339930161833763
1761341771629223700,3.1022236328125,-0.0011603892780840397,-0.00011320970952510834,0.0009311572648584843
1761341771639289600,3.11228955078125,-0.0005004578270018101,0.0015643155202269554,-0.0012331935577094555
1761341771649355800,3.122355712890625,0.0003430652432143688,-0.002049652859568596,0.000673539936542511
1761341771659422700,3.132422607421875,-0.00009955186396837234,0.0017466824501752853,0.00019949767738580704
1761341771669488400,3.14248828125,-0.0009054141119122505,0.0008270023390650749,-0.0013830759562551975
1761341771679554600,3.152554443359375,0.0004498683847486973,0.00019583292305469513,0.0025461516343057156
1761341771689621500,3.16262158203125,-0.002916992176324129,0.002187008038163185,0.00037555210292339325
1761341771699687400,3.1726875,0.0011768192052841187,-0.0019856328144669533,0.00225174892693758
1761341771709753600,3.182753662109375,-0.0006530191749334335,0.002421547658741474,0.00019608810544013977
1761341771719820500,3.192820556640625,0.00044340454041957855,0.00182393379509449,0.0025071795098483562
1761341771729886500,3.202886474609375,0.00022843899205327034,0.0005776472389698029,-0.0008918284438550472
1761341771739952600,3.21295263671875,-0.001265061553567648,0.001029851846396923,0.00033588940277695656
1761341771750019600,3.22301953125,0.0009287628345191479,-0.00042165257036685944,-0.0023533650673925877
1761341771760085500,3.23308544921875,0.0010057277977466583,0.00016557518392801285,0.0011156685650348663
1761341771770151700,3.243151611328125,0.0013538980856537819,0.0020026089623570442,-0.002314489334821701
1761341771780218600,3.253218505859375,0.0001821070909500122,0.001327764242887497,0.00277667585760355
1761341771790284500,3.263284423828125,-0.0014006439596414566,0.001206940971314907,-0.0037274884525686502
1761341771800350500,3.2733505859375,-0.0011005057021975517,-0.0019206758588552475,-0.0027061663568019867
1761341771810417400,3.28341748046875,0.00007629347965121269,0.0025307899340987206,-0.0018872106447815895
1761341771820483300,3.2934833984375,-0.0001332974061369896,0.0011243754997849464,0.0005501145496964455
1761341771830549500,3.303549560546875,0.0012055146507918835,-0.0002794908359646797,0.0014876085333526134
1761341771840616400,3.313616455078125,-0.0004762713797390461,0.0005197236314415932,0.00010382989421486855
1761341771850682600,3.3236826171875,0.0010148119181394577,0.0014230487868189812,0.002273141872137785
1761341771860748500,3.33374853515625,-0.003480869811028242,0.0024411752820014954,0.00000759027898311615
1761341771870814500,3.343814453125,0.0012527834624052048,-0.0005934322252869606,-0.0025043170899152756
1761341771880881700,3.353881591796875,0.0008772779256105423,0.00046810414642095566,0.000516506377607584
1761341771890947600,3.363947509765625,-0.00038060126826167107,0.000605936162173748,0.002427824307233095
1761341771901013500,3.374013427734375,0.0001016971655189991,0.001743372529745102,0.0013021058402955532
1761341771911080700,3.384080810546875,-0.001055858563631773,-0.00007723644375801086,0.00020164623856544495
1761341771921146600,3.394146728515625,-0.00000737188383936882,0.000044469721615314484,0.000768100842833519
1761341771931212500,3.404212646484375,0.0013672425411641598,-0.0013042120262980461,0.0004083891399204731
1761341771941279700,3.41427978515625,0.0019121253862977028,0.0007352372631430626,-0.0028454605489969254
1761341771951345400,3.424345458984375,0.0002783406525850296,-0.0023518772795796394,0.0006866534240543842
1761341771961411600,3.43441162109375,0.0004597017541527748,0.0025877533480525017,-0.000122149009257555
1761341771971478500,3.444478515625,-0.00018183467909693718,0.00047487206757068634,0.0012979498133063316
1761341771981544400,3.45454443359375,-0.0009347102604806423,0.0005592936649918556,0.00009952764958143234
1761341771991610600,3.464610595703125,0.0004749470390379429,0.0021199677139520645,0.0008389195427298546
1761341772001677600,3.474677490234375,-0.0005343910306692123,-0.0006449269130825996,0.0029358919709920883
1761341772011743500,3.484743408203125,0.001328440848737955,-0.000004699453711509705,0.0038854293525218964
1761341772021809700,3.4948095703125,0.00034520169720053673,-0.0009067123755812645,0.0018630241975188255
1761341772031876600,3.504876708984375,0.0002168421633541584,0.0005956515669822693,-0.0025727138854563236
1761341772041942500,3.514942626953125,-0.0019594929181039333,0.0003138892352581024,-0.0004986440762877464
1761341772052008700,3.5250087890625,0.000712342094630003,-0.0008198413997888565,0.0006717219948768616
1761341772062074400,3.535074462890625,0.00003510061651468277,0.0005636699497699738,-0.0013006147928535938
1761341772072141600,3.5451416015625,-0.0001690685749053955,-0.0000756261870265007,-0.0010568075813353062
1761341772082207500,3.55520751953125,-0.0003448375500738621,0.0026996536180377007,0.0002808980643749237
1761341772092273400,3.5652734375,0.0008468669839203358,-0.00010714586824178696,0.002495852764695883
1761341772102340400,3.57534033203125,-0.0008104178123176098,0.0005653025582432747,0.0012684022076427937
1761341772112406500,3.585406494140625,0.0022688736207783222,0.0011874623596668243,-0.00012923870235681534
1761341772122472400,3.595472412109375,0.00030931970104575157,0.0016612382605671883,0.0017336425371468067
1761341772132539400,3.605539306640625,-0.0007485006935894489,0.0006572632119059563,-0.001201413106173277
1761341772142605600,3.61560546875,0.0010842867195606232,-0.00006285496056079865,-0.0007899547927081585
1761341772152671500,3.62567138671875,0.0024205162189900875,0.0016258973628282547,0.0014724698849022388
1761341772162738700,3.63573876953125,0.0011280840262770653,-0.0009192852303385735,0.0003568721003830433
1761341772172804600,3.6458046875,-0.00011819275096058846,-0.0011618072167038918,-0.0012387069873511791
1761341772182870500,3.65587060546875,-0.00032671820372343063,-0.00003076251596212387,-0.0013034217990934849
1761341772192937700,3.665937744140625,-0.0016507483087480068,-0.0020919889211654663,-0.0007201978005468845
1761341772203003600,3.676003662109375,-0.0012523396871984005,0.0026716068387031555,-0.0002674604766070843
1761341772213069300,3.6860693359375,0.00015674438327550888,0.0008890889585018158,-0.0023994785733520985
1761341772223136500,3.696136474609375,0.0035267083439975977,-0.0004928251728415489,0.00330687640234828
1761341772233202400,3.706202392578125,0.0016349069774150848,0.0006598802283406258,-0.001927888486534357
1761341772243268600,3.7162685546875,0.0014090710319578648,-0.0011947443708777428,0.002540096640586853
1761341772253335600,3.72633544921875,-0.00004112068563699722,0.0005734069272875786,-0.0023748925887048244
1761341772263401500,3.7364013671875,0.00011653825640678406,0.001802988350391388,0.0021538124419748783
1761341772273467600,3.746467529296875,-0.0010338537395000458,0.0001771058887243271,-0.001827307976782322
1761341772283534600,3.75653466796875,-0.0006245258264243603,0.0004980172961950302,-0.0001673595979809761
1761341772293600500,3.7666005859375,-0.00021083559840917587,-0.0002594161778688431,-0.0012145424261689186
1761341772303666700,3.776666748046875,-0.00007634609937667847,0.001027955673635006,-0.00025154324248433113
1761341772313732600,3.786732666015625,0.0016276827082037926,-0.0006307801231741905,0.0004097498022019863
1761341772323799600,3.796799560546875,0.00017892289906740189,0.0002746954560279846,0.0021698330529034138
1761341772333865700,3.80686572265625,0.0003435509279370308,-0.000750962644815445,-0.0010884329676628113
1761341772343931400,3.816931396484375,-0.000485491007566452,0.0004919348284602165,0.0016197357326745987
1761341772353998300,3.826998291015625,-0.0006324034184217453,0.0007180869579315186,-0.0015804772265255451
1761341772364064500,3.837064453125,0.00006241537630558014,0.00029331259429454803,0.0006267507560551167
1761341772374130400,3.84713037109375,0.0004305848851799965,0.00105305016040802,0.0003156815655529499
1761341772384197400,3.857197265625,-0.001555067952722311,0.0001190798357129097,-0.0004909895360469818
1761341772394263600,3.867263671875,0.0006542298942804337,-0.0010492820292711258,0.0034489398822188377
1761341772404329500,3.87732958984375,-0.0005455240607261658,-0.00007137004286050797,-0.0006414088420569897
1761341772414396400,3.887396484375,0.0001990855671465397,0.000974191352725029,0.004618425387889147
1761341772424462600,3.897462646484375,-0.00043048569932579994,-0.0009067999199032784,0.0017581903375685215
1761341772434528500,3.907528564453125,0.0006644674576818943,-0.0016449326649308205,0.0014601470902562141
1761341772444595500,3.917595458984375,0.002950791036710143,0.00034711137413978577,-0.000006722286343574524
1761341772454661600,3.92766162109375,-0.0021320409141480923,-0.0010714735835790634,-0.0004528593271970749
1761341772464727600,3.9377275390625,-0.0013565286062657833,-0.0008187396451830864,-0.002805761992931366
1761341772474794800,3.947794677734375,-0.001014934852719307,-0.0009483601897954941,-0.00005446188151836395
1761341772484860400,3.9578603515625,-0.002443987410515547,-0.0023353341966867447,-0.0016483636572957039
1761341772494926300,3.96792626953125,-0.0030987909995019436,-0.0031801313161849976,0.0008660196326673031
1761341772504992500,3.977992431640625,0.0008109956979751587,0.002299589104950428,-0.0026205903850495815
1761341772515059500,3.9880595703125,0.001434133853763342,0.0024411147460341454,0.0007999804802238941
1761341772525125400,3.99812548828125,0.00021307449787855148,-0.0008087418973445892,0.0008021113462746143
1761341772535191600,4.008191650390625,0.00011965632438659668,0.00050346739590168,0.0011569974012672901
1761341772545257500,4.018257568359375,0.0005867751315236092,0.0004238393157720566,0.0030531673692166805
1761341772555323600,4.02832373046875,0.0009775306098163128,-0.00027230754494667053,0.0013250401243567467
1761341772565390600,4.038390625,-0.002005209680646658,-0.0012914985418319702,0.0007788259536027908
1761341772575456500,4.04845654296875,-0.0011959467083215714,-0.002471710555255413,0.0004579396918416023
1761341772585522400,4.0585224609375,0.002167093101888895,-0.00011987332254648209,0.002742932178080082
1761341772595589600,4.068589599609375,-0.00035317661240696907,-0.00216680858284235,-0.0013983496464788914
1761341772605655600,4.078655517578125,0.0012156916782259941,-0.0021162088960409164,0.0023079714737832546
1761341772615721500,4.088721435546875,-0.0023652450181543827,-0.003484901040792465,-0.003425000701099634
1761341772625788400,4.098788330078125,-0.0005705407820641994,-0.0007250672206282616,0.0025149136781692505
1761341772635854600,4.1088544921875,0.0010187020525336266,0.0014396477490663528,-0.002838087733834982
1761341772645920500,4.11892041015625,-0.00026440853253006935,-0.0018986249342560768,-0.0006250008009374142
1761341772655987500,4.128987548828125,0.000557679682970047,-0.0008248304948210716,0.003043132834136486
1761341772666053600,4.1390537109375,0.00015714019536972046,-0.0007601156830787659,0.00011898158118128777
1761341772676119600,4.14911962890625,0.0014679813757538795,-0.002598344348371029,0.0004223245196044445
1761341772686186500,4.1591865234375,0.0012290957383811474,-0.0012225555256009102,0.0016258065588772297
1761341772696252700,4.169252685546875,0.0003933398984372616,0.0004450678825378418,0.0005318457260727882
1761341772706318600,4.179318603515625,-0.000012792181223630905,-0.00047265738248825073,-0.0008138497360050678
1761341772716385500,4.189385498046875,-0.0003092740662395954,-0.000514141283929348,0.001616036519408226
1761341772726451700,4.19945166015625,0.001486495602875948,0.0001079728826880455,-0.00005669472739100456
1761341772736517600,4.209517578125,-0.0002129785716533661,0.0005372576415538788,0.003477545455098152
1761341772746583800,4.219583740234375,0.0014722701162099838,-0.002938433550298214,0.0008767023682594299
1761341772756650800,4.229650634765625,0.001551288180053234,-0.0011266330257058144,0.0009711268357932568
1761341772766716700,4.239716552734375,0.000750209204852581,0.0006765928119421005,-0.0008044028654694557
1761341772776782800,4.249782958984375,-0.00017581460997462273,-0.0021364502608776093,-0.00008798064664006233
1761341772786849800,4.259849853515625,-0.00005144486203789711,-0.001947632059454918,0.0005884622223675251
1761341772796915700,4.269915771484375,0.002078801393508911,-0.0006629312410950661,0.00018499558791518211
1761341772806981600,4.279981689453125,0.0012670699506998062,0.0004894193261861801,-0.0017399373464286327
1761341772817048600,4.290048583984375,0.001312995795160532,0.0008270926773548126,-0.00059156259521842
1761341772827114500,4.300114501953125,-0.000028971116989850998,-0.003665659576654434,0.0009285695850849152
1761341772837180700,4.3101806640625,0.0002628052607178688,0.0002532443031668663,-0.001945259515196085
1761341772847247600,4.32024755859375,0.000057208817452192307,0.000865238718688488,-0.0009758686646819115
1761341772857313500,4.3303134765625,-0.0012955078855156898,-0.001984111964702606,-0.0013728942722082138
1761341772867379700,4.340379638671875,0.0012656543403863907,0.0024455245584249496,0.0019398112781345844
1761341772877446700,4.35044677734375,0.0009544910863041878,0.0015810001641511917,-0.0007823258638381958
1761341772887512600,4.3605126953125,-0.0005685705691576004,-0.0019013499841094017,-0.0005303910002112389
1761341772897578800,4.370578857421875,-0.0007908176630735397,0.00010855589061975479,0.0003184857778251171
1761341772907645700,4.380645751953125,0.00024674972519278526,0.00004810187965631485,0.000490258913487196
1761341772917711600,4.390711669921875,0.004499492235481739,-0.00020948704332113266,0.0017358548939228058
1761341772927778800,4.40077880859375,-0.002435113303363323,-0.0019583851099014282,-0.0007291669026017189
1761341772937844700,4.4108447265625,-0.0012327693402767181,0.0014264872297644615,0.0006238524802029133
1761341772947910700,4.42091064453125,0.0003456859849393368,-0.0014212308451533318,-0.00048242462798953056
1761341772957977900,4.430977783203125,0.002406640211120248,0.0004106462001800537,0.000582634937018156
1761341772968043500,4.44104345703125,-0.0016363044269382954,0.00016457028687000275,0.00046439049765467644
1761341772978109700,4.451109619140625,0.0005022347904741764,0.0006966842338442802,0.003118375316262245
1761341772988176600,4.4611767578125,-0.000027734320610761642,-0.0030751507729291916,0.0007609445601701736
1761341772998242600,4.47124267578125,0.0021129008382558823,0.0006458833813667297,-0.0012390888296067715
1761341773008308700,4.481308837890625,0.0010471036657691002,-0.0013948967680335045,0.000997699797153473
1761341773018375700,4.491375732421875,-0.00003988062962889671,-0.0018375162035226822,0.001415811013430357
1761341773028441600,4.501441650390625,0.0003063301555812359,0.0014253892004489899,0.0008240561001002789
1761341773038507800,4.5115078125,-0.000653871800750494,-0.0025506848469376564,-0.0004499056376516819
1761341773048574700,4.52157470703125,-0.00030526425689458847,0.000031249597668647766,0.000321878120303154
1761341773058640600,4.531640625,0.0009565819054841995,-0.0014030002057552338,0.0018708743155002594
1761341773068706800,4.541706787109375,-0.0009134896099567413,-0.00019206106662750244,0.002166484482586384
1761341773078773800,4.551773681640625,0.0004457850009202957,0.0007537407800555229,-0.0012906459160149097
1761341773088839700,4.561839599609375,0.002419187454506755,-0.001826595515012741,0.001734705176204443
1761341773098905600,4.571905517578125,0.0017815944738686085,0.0008494798094034195,-0.0003862106241285801
1761341773108971500,4.581971435546875,-0.00046158628538250923,-0.00018435902893543243,0.0006231279112398624
1761341773119038500,4.59203857421875,-0.000552373006939888,-0.0007392698898911476,0.0021208766847848892
1761341773129104600,4.602104736328125,-0.00006315018981695175,0.003691962920129299,-0.0008160574361681938
1761341773139170600,4.612170654296875,-0.00004883250221610069,0.0008786311373114586,-0.0013199192471802235
1761341773149237800,4.62223779296875,0.0020308298990130424,0.0004868805408477783,0.001287049613893032
1761341773159303700,4.6323037109375,0.0001540747471153736,0.0003454778343439102,-0.001592203974723816
1761341773169369600,4.64236962890625,-0.000049923546612262726,0.0013731913641095161,0.0013324799947440624
1761341773179436800,4.652436767578125,0.0014548595063388348,-0.00017173495143651962,-0.0009232629090547562
1761341773189502700,4.662502685546875,0.0001874612644314766,-0.0009624268859624863,-0.00026759272441267967
1761341773199568600,4.672568603515625,0.0007797353900969028,-0.0023964671418070793,-0.0009110243991017342
1761341773209635800,4.6826357421875,-0.0024541416205465794,0.0013964064419269562,-0.0013296734541654587
1761341773219701800,4.69270166015625,0.0017437799833714962,-0.0004421202465891838,0.00001634424552321434
1761341773229767700,4.702767578125,-0.0012717172503471375,0.0009437892585992813,-0.0014278879389166832
1761341773239834600,4.712834716796875,0.001409313641488552,0.001484151929616928,-0.0016704029403626919
1761341773249900500,4.722900634765625,-0.0026410878635942936,0.0003160890191793442,-0.00063683046028018
1761341773259966700,4.732966796875,-0.00022441940382122993,0.0009138099849224091,0.0013282280415296555
1761341773270033700,4.74303369140625,0.0018541780300438404,0.0007521556690335274,-0.001746391411870718
1761341773280099600,4.753099609375,0.0009084241464734077,0.001963730901479721,0.000209820456802845
1761341773290165800,4.763165771484375,0.0012165517546236515,-0.0017524445429444313,0.0006633568555116653
1761341773300231700,4.773231689453125,-0.0006568450480699539,0.0015282025560736656,0.004304945468902588
1761341773310298600,4.783298583984375,-0.0015623196959495544,0.0013822615146636963,-0.002420335076749325
1761341773320364800,4.79336474609375,-0.0005885520949959755,-0.00200845580548048,0.0009453780949115753
1761341773330430700,4.8034306640625,-0.0000021238811314105988,0.00039291661232709885,-0.001451733522117138
1761341773340497700,4.81349755859375,0.0018044388853013515,-0.00162461306899786,0.0003535640425980091
1761341773350563800,4.823563720703125,0.0009785923175513744,0.00011629518121480942,-0.0010927985422313213
1761341773360629500,4.83362939453125,0.0005480600520968437,0.0011237449944019318,0.00006179092451930046
1761341773370696400,4.843696533203125,-0.0006290571764111519,-0.001963125541806221,-0.0011092009954154491
1761341773380762600,4.8537626953125,0.0013188482262194157,0.0010618148371577263,-0.0018465165048837662
1761341773390828500,4.86382861328125,0.0009385491721332073,0.002055973745882511,-0.002345326356589794
1761341773400895500,4.8738955078125,-0.0010018902830779552,0.0005886005237698555,0.0027074269019067287
1761341773410961700,4.883961669921875,-0.00133105693385005,0.0004900628700852394,-0.0028966632671654224
1761341773421027600,4.894027587890625,0.0014076041989028454,-0.0011937003582715988,0.0011609382927417755
1761341773431094500,4.904094482421875,-0.0005631349049508572,0.0006617242470383644,-0.0016979649662971497
1761341773441160700,4.91416064453125,0.0012317830696702003,-0.0006991662085056305,-0.0011465353891253471
1761341773451226600,4.9242265625,-0.0022817254066467285,-0.002566307783126831,-0.00023413635790348053
1761341773461293800,4.9342939453125,-0.00038969842717051506,-0.001267027109861374,0.0023293406702578068
1761341773471359700,4.94435986328125,-0.0003308425657451153,0.0007441919296979904,-0.0006491383537650108
1761341773481425700,4.95442578125,-0.0016876100562512875,-0.0015435554087162018,0.001803734339773655
1761341773491491600,4.96449169921875,-0.0027102637104690075,0.0015963111072778702,0.0002026418223977089
1761341773501558500,4.97455859375,-0.0003024674952030182,-0.001592639833688736,-0.0005104672163724899
1761341773511624400,4.98462451171875,0.0007042074576020241,-0.0002855602651834488,0.00020832009613513947
1761341773521690600,4.994690673828125,0.0011850949376821518,-0.0006947219371795654,-0.001348705030977726
1761341773531757600,5.004757568359375,-0.0003105360083281994,0.0016885409131646156,0.00009339628741145134
1761341773541823700,5.01482373046875,0.0005334974266588688,-0.0007984433323144913,0.0018458175472915173
1761341773551889700,5.0248896484375,-0.0010737203992903233,-0.0004996368661522865,0.0005214274860918522
1761341773561956600,5.03495654296875,-0.0017933337949216366,0.000537484884262085,-0.002495202235877514
1761341773572022800,5.045022705078125,-0.0023171775974333286,0.0006466740742325783,-0.001139919739216566
1761341773582088700,5.055088623046875,0.00039901118725538254,0.0003211144357919693,0.0013337479904294014
1761341773592155600,5.06515576171875,-0.001553618349134922,0.00026678666472435,-0.0026857606135308743
1761341773602221800,5.075221923828125,-0.0016799275763332844,-0.003415565937757492,0.00039045093581080437
1761341773612287700,5.085287841796875,-0.001319602131843567,0.00017597340047359467,0.00216891011223197
1761341773622354700,5.095354736328125,0.0011257147416472435,0.0015475377440452576,-0.0028727096505463123
1761341773632420600,5.105420654296875,-0.00009241513907909393,-0.0013121645897626877,0.0009758244268596172
1761341773642486500,5.115486572265625,0.0024020762648433447,0.0006043277680873871,-0.002898111008107662
1761341773652552700,5.125552734375,0.00244255643337965,-0.0007243230938911438,0.001035644207149744
1761341773662619600,5.13561962890625,-0.0006004893220961094,0.0015980107709765434,-0.0010128375142812729
1761341773672685600,5.145685546875,-0.0016433834098279476,-0.0008449060842394829,0.0034346412867307663
1761341773682751700,5.155751708984375,0.0015648426488041878,-0.00017244834452867508,-0.0025368924252688885
1761341773692818700,5.165818603515625,-0.001901527401059866,0.0006669797003269196,-0.0005523045547306538
1761341773702884400,5.17588427734375,-0.00146072031930089,0.0028839847072958946,-0.0026674335822463036
1761341773712950500,5.185950439453125,0.0016272151842713356,-0.0033179856836795807,0.0003917394205927849
1761341773723017500,5.196017578125,-0.00031529879197478294,0.0020622732117772102,0.00034972047433257103
1761341773733083400,5.20608349609375,-0.002257009968161583,0.0014308374375104904,0.00007141986861824989
1761341773743149600,5.216149658203125,0.0009012473747134209,-0.001172228716313839,-0.002779865637421608
1761341773753216500,5.226216552734375,0.002182228025048971,0.0022368840873241425,-0.0003230995498597622
1761341773763282200,5.2362822265625,0.001366693526506424,-0.002071693539619446,-0.0015570688992738724
1761341773773348400,5.246348388671875,-0.0009710290469229221,-0.0015462515875697136,-0.0007059224881231785
1761341773783415300,5.256415283203125,0.00006731459870934486,-0.0011853566393256187,-0.0001692604273557663
1761341773793481500,5.2664814453125,0.0006777108646929264,0.00020268280059099197,0.0018249144777655602
1761341773803547400,5.27654736328125,0.0002564922906458378,-0.0033353306353092194,0.0006416607648134232
1761341773813613300,5.28661328125,-0.0012335460633039474,0.00015207845717668533,-0.000053956639021635056
1761341773823680500,5.296680419921875,-0.0017090896144509315,0.00010745972394943237,0.000023764558136463165
1761341773833746400,5.306746337890625,-0.0013098819181323051,0.0014552855864167213,-0.0027288785204291344
1761341773843812400,5.316812255859375,0.00021382421255111694,-0.000599665567278862,0.00007257144898176193
1761341773853879600,5.326879638671875,-0.00006474275141954422,0.0005958275869488716,-0.0014363755472004414
1761341773863945500,5.336945556640625,-0.0014899810776114464,-0.0007222890853881836,0.0013888166286051273
1761341773874011400,5.347011474609375,-0.001593844499439001,0.00041434820741415024,-0.002802732866257429
1761341773884078600,5.35707861328125,0.00039831269532442093,-0.0009551756083965302,-0.0006920639425516129
1761341773894144300,5.367144287109375,-0.0002483027055859566,-0.0009573055431246758,-0.002573587466031313
1761341773904210400,5.37721044921875,-0.00012104818597435951,0.0006241723895072937,0.0007527037523686886
1761341773914277400,5.38727734375,0.0019916375167667866,0.00006331037729978561,-0.0001453137956559658
1761341773924343300,5.39734326171875,-0.0006297915242612362,-0.0009388839825987816,-0.004562778398394585
1761341773934409500,5.407409423828125,-0.00033604493364691734,-0.0018691262230277061,0.0007994966581463814
1761341773944476400,5.417476318359375,-0.0003706761635839939,0.00016465410590171814,0.0009303526021540165
1761341773954542300,5.427542236328125,-0.00023645302280783653,-0.0008372273296117783,-0.0018451940268278122
1761341773964608500,5.4376083984375,-0.0015359558165073395,-0.00144182238727808,-0.0005990988574922085
1761341773974674400,5.44767431640625,-0.0005258191376924515,0.00016219913959503174,-0.0015929904766380787
1761341773984741400,5.457741455078125,-0.0012031891383230686,-0.003483022563159466,-0.0005928026512265205
1761341773994807600,5.4678076171875,0.0006527677178382874,-0.0007354393601417542,-0.0007983986288309097
1761341774004873500,5.47787353515625,-0.0006100493483245373,0.00040877796709537506,-0.0008371365256607533
1761341774014940400,5.4879404296875,0.000947101041674614,-0.001654106192290783,0.002018570899963379
1761341774025006300,5.49800634765625,-0.0009515667334198952,-0.0003536250442266464,-0.0005769394338130951
1761341774035072300,5.508072265625,0.0015424834564328194,0.00019471999257802963,-0.001349522266536951
1761341774045139200,5.51813916015625,-0.000007529743015766144,-0.0012927642092108727,-0.0018642493523657322
1761341774055205400,5.528205322265625,-0.00105255376547575,0.0011006183922290802,0.00006547756493091583
1761341774065271300,5.538271240234375,0.0004379069432616234,-0.002019466832280159,0.00025962619110941887
1761341774075338200,5.548338134765625,-0.001558132003992796,0.0004708552733063698,0.00213209493085742
1761341774085404400,5.558404296875,-0.00014775199815630913,0.0010324018076062202,-0.0010653426870703697
1761341774095470300,5.56847021484375,-0.00042179133743047714,-0.000007295981049537659,-0.0009162053465843201
1761341774105537500,5.57853759765625,-0.0002613016404211521,0.0009040674194693565,0.00008471403270959854
1761341774115603500,5.588603515625,0.0019254200160503387,0.00032456405460834503,-0.0003334023058414459
1761341774125669400,5.59866943359375,-0.00032550422474741936,-0.0020476775243878365,-0.0004991362802684307
1761341774135735600,5.608735595703125,0.0010598720982670784,0.0009547704830765724,-0.0021798573434352875
1761341774145802500,5.618802490234375,0.0007544313557446003,-0.001643364317715168,-0.0012347851879894733
1761341774155868400,5.628868408203125,-0.000493259634822607,-0.0004324251785874367,0.001430773176252842
1761341774165934300,5.638934326171875,-0.00039988942444324493,0.0006461068987846375,0.0007323804311454296
1761341774176001300,5.649001220703125,-0.0005452977493405342,0.00020508747547864914,-0.0015227841213345528
1761341774186067500,5.6590673828125,0.00006086612120270729,0.00037691090255975723,0.0016478216275572777
1761341774196133400,5.66913330078125,-0.0034435875713825226,-0.0010870294645428658,-0.0013469033874571323
1761341774206200300,5.679200439453125,0.0010576201602816582,0.002399149350821972,0.0021774303168058395
1761341774216266500,5.6892666015625,0.000596360769122839,0.0016899490728974342,0.003216329962015152
1761341774226332400,5.69933251953125,0.0012103910557925701,-0.0011430541053414345,-0.001490508671849966
1761341774236399400,5.7093994140625,0.0036828697193413973,0.0006529809907078743,0.001128976233303547
1761341774246465500,5.719465576171875,0.0002677463926374912,-0.000042669475078582764,0.0011991015635430813
1761341774256531500,5.729531494140625,0.002135421149432659,-0.0010533398017287254,-0.00024885963648557663
1761341774266597600,5.73959765625,0.0008958000689744949,0.0006807530298829079,-0.00025049736723303795
1761341774276664600,5.74966455078125,-0.00020435219630599022,-0.0013922518119215965,-0.0007327958010137081
1761341774286730200,5.759730224609375,0.0009226389229297638,0.0024131834506988525,0.0014202436432242393
1761341774296796400,5.76979638671875,0.0008499347604811192,-0.0010252241045236588,-0.0007174760103225708
1761341774306863400,5.77986328125,-0.002095965202897787,0.0014852238819003105,0.00009708013385534286
1761341774316929300,5.78992919921875,-0.003324482124298811,-0.0002458300441503525,-0.001766866073012352
1761341774326995500,5.799995361328125,-0.0004514269530773163,-0.00007957592606544495,0.0011689835228025913
1761341774337062400,5.8100625,0.00014858320355415344,0.0003800857812166214,-0.0022854022681713104
1761341774347128300,5.82012841796875,-0.0012522945180535316,-0.00003056693822145462,-0.0026602004654705524
1761341774357194500,5.830194580078125,-0.0003718538209795952,-0.0006873030215501785,0.0021739695221185684
1761341774367261400,5.840261474609375,-0.001707511954009533,-0.002417079173028469,-0.0007302514277398586
1761341774377327400,5.850327392578125,-0.00003264984115958214,0.0010423669591546059,0.002386712469160557
1761341774387393500,5.8603935546875,0.0008396399207413197,0.00015568546950817108,0.0022025355137884617
1761341774397460500,5.87046044921875,0.001780800987035036,-0.0007977262139320374,0.00043845782056450844
1761341774407526400,5.8805263671875,0.0013865367509424686,-0.0019553136080503464,-0.001629954669624567
1761341774417592600,5.890592529296875,0.0007183500565588474,-0.001038121059536934,-0.002411858644336462
1761341774427658200,5.900658203125,0.0008232342079281807,-0.0005428800359368324,0.0008458783850073814
1761341774437725200,5.91072509765625,-0.0009038257412612438,-0.0001567220315337181,-0.0015584235079586506
1761341774447791400,5.920791259765625,0.0009185420349240303,0.0017319563776254654,0.0010028313845396042
1761341774457857300,5.930857177734375,-0.0018759127706289291,0.0004437854513525963,-0.00025178398936986923
1761341774467924500,5.940924560546875,0.0014104736037552357,0.0011852942407131195,-0.0017145364545285702
1761341774477990400,5.950990478515625,0.0009135277941823006,-0.002342861145734787,0.0007291799411177635
1761341774488056300,5.961056396484375,-0.0030426164157688618,0.0005771461874246597,0.001394093967974186
1761341774498123500,5.97112353515625,-0.0002763909287750721,-0.0006098253652453423,0.0034021176397800446
1761341774508189400,5.981189453125,0.0002697911113500595,-0.0017651552334427834,-0.00262357946485281
1761341774518255400,5.99125537109375,0.0012266645208001137,0.0024005621671676636,0.0011184285394847393
1761341774528322600,6.001322509765625,-0.00042020203545689583,0.00002997554838657379,-0.0004587816074490547
1761341774538388500,6.011388427734375,-0.00039090728387236595,-0.0002896040678024292,0.0020549758337438107
1761341774548454400,6.021454345703125,0.000263056717813015,-0.0011628344655036926,-0.0017365412786602974
1761341774558520300,6.031520263671875,0.0004361621104180813,-0.0003013024106621742,-0.0009226794354617596
1761341774568587300,6.041587158203125,-0.0018387315794825554,0.0016965847462415695,-0.00023330189287662506
1761341774578653400,6.0516533203125,-0.0013995766639709473,-0.0014957468956708908,-0.0017001712694764137
1761341774588719400,6.06171923828125,-0.00011057499796152115,-0.0013214601203799248,-0.0002359095960855484
1761341774598786300,6.071786376953125,0.0010090176947414875,0.0006471481174230576,0.002579051535576582
1761341774608852500,6.0818525390625,0.0014651021920144558,-0.0011762753129005432,0.0002577253617346287
1761341774618918400,6.09191845703125,0.0004083598032593727,0.0019196495413780212,0.0030311415903270245
1761341774628985300,6.1019853515625,0.0011089644394814968,-0.0015118876472115517,-0.000027233269065618515
1761341774639051500,6.112051513671875,0.0008050976321101189,-0.0009891083464026451,-0.000996890477836132
1761341774649117400,6.122117431640625,-0.0003339177928864956,0.0001891041174530983,0.0024435375817120075
1761341774659184400,6.132184326171875,-0.0001059514470398426,-0.0023728571832180023,0.0021234252490103245
1761341774669250600,6.14225048828125,0.001528729684650898,0.0011690398678183556,-0.003801485290750861
1761341774679316500,6.15231640625,-0.001178906299173832,-0.000029383227229118347,-0.0008275331929326057
1761341774689382400,6.16238232421875,0.0020209108479321003,0.0008333232253789902,0.0013449210673570633
1761341774699450000,6.1724501953125,0.00010423362255096436,0.0011100256815552711,-0.0013342187739908695
1761341774709515800,6.182515869140625,-0.000055983662605285645,-0.0012741051614284515,-0.00029185833409428596
1761341774719582000,6.19258203125,0.003531827125698328,-0.0003664996474981308,-0.0033550262451171875
1761341774729649000,6.20264892578125,0.000833418220281601,0.000890401192009449,-0.0014804382808506489
1761341774739714800,6.21271484375,-0.0014949836768209934,-0.00013012252748012543,-0.00261574424803257
1761341774749781000,6.222781005859375,0.0012962124310433865,0.001519467681646347,0.002018280327320099
1761341774759848000,6.232847900390625,-0.0007549542933702469,-0.0007921559736132622,-0.0011285110376775265
1761341774769913900,6.242913818359375,0.0003176601603627205,-0.00125091802328825,-0.00048256851732730865
1761341774779980000,6.25297998046875,-0.00038248486816883087,0.0005618957802653313,-0.0002183830365538597
1761341774790047000,6.263046875,0.00031668180599808693,0.0005118399858474731,0.0002216189168393612
1761341774800113000,6.27311279296875,-0.0037201372906565666,0.0011454056948423386,0.000054638832807540894
1761341774810179000,6.283178955078125,-0.0002558846026659012,0.0016866270452737808,0.0007788757793605328
1761341774820244700,6.29324462890625,0.0011265622451901436,-0.0008076895028352737,0.0015786229632794857
1761341774830312000,6.30331201171875,-0.0001646876335144043,-0.001815861091017723,-0.0008186292834579945
1761341774840377900,6.3133779296875,0.000544245820492506,0.001472344622015953,0.00017313146963715553
1761341774850443800,6.32344384765625,0.000059324782341718674,0.00006437394767999649,0.002116710878908634
1761341774860510700,6.3335107421875,0.00035839807242155075,-0.0010751932859420776,-0.0021920171566307545
1761341774870577000,6.343576904296875,-0.001565997488796711,0.0006343768909573555,0.0019577923230826855
1761341774880642800,6.353642822265625,-0.00030126282945275307,-0.001931845210492611,-0.003196223173290491
1761341774890709800,6.363709716796875,-0.0019542062655091286,0.001143154688179493,-0.0011763609945774078
1761341774900776000,6.37377587890625,-0.00026789214462041855,0.0011729821562767029,-0.001922312192618847
1761341774910841900,6.383841796875,0.0014100056141614914,-0.0011809086427092552,0.00016165943816304207
1761341774920908000,6.393907958984375,0.0029612970538437366,-0.0019641444087028503,-0.00011451030150055885
1761341774930975000,6.40397509765625,0.0006155772134661674,0.0005739768967032433,0.0022495342418551445
1761341774941041000,6.414041015625,0.00156312994658947,-0.0004420187324285507,0.002179226838052273
1761341774951107000,6.424107177734375,-0.0006197448819875717,-0.00022540241479873657,0.0008051702752709389
1761341774961174000,6.434174072265625,0.00039918068796396255,0.0036241961643099785,0.0007076989859342575
1761341774971239700,6.44423974609375,0.0008078739047050476,-0.0007280148565769196,-0.00025446992367506027
1761341774981305900,6.454305908203125,0.0008709910325706005,0.002185482531785965,0.002276864368468523
1761341774991372800,6.464372802734375,-0.0004559163935482502,0.0010302821174263954,-0.0003431355580687523
1761341775001439000,6.47443896484375,0.001058623194694519,-0.0014467239379882812,-0.0007260981947183609
1761341775011505000,6.4845048828125,-0.0017904965206980705,0.0027805985882878304,-0.0009515895508229733
1761341775021571800,6.49457177734375,-0.0001550493761897087,-0.0022538406774401665,0.001378143671900034
1761341775031638000,6.504637939453125,0.0014384635724127293,-0.00012751854956150055,-0.0023616142570972443
1761341775041704000,6.514703857421875,0.0008347248658537865,0.0004884703084826469,-0.0020337789319455624
1761341775051769900,6.524769775390625,0.0016808286309242249,0.000357908196747303,0.0020302128978073597
1761341775061837000,6.534837158203125,-0.0005418458022177219,0.0032722046598792076,0.000401956494897604
1761341775071903000,6.544903076171875,0.0010521714575588703,0.0010670628398656845,-0.0001760772429406643
1761341775081969000,6.554968994140625,-0.0013553262688219547,-0.0009385636076331139,-0.0022741155698895454
1761341775092036000,6.5650361328125,0.00009375298395752907,0.00039703957736492157,-0.0019239322282373905
1761341775102101800,6.575101806640625,-0.0004692394286394119,-0.0007214881479740143,-0.0006525390781462193
1761341775112168000,6.58516796875,-0.0025542411021888256,0.0009254934266209602,0.002083451021462679
1761341775122235000,6.59523486328125,0.0013717911206185818,0.0007981946691870689,-0.000606075394898653
1761341775132300800,6.60530078125,-0.0021841777488589287,-0.00013771280646324158,0.0011120326817035675
1761341775142367000,6.615366943359375,0.000006538815796375275,0.0003152908757328987,0.0032092714682221413
1761341775152434000,6.625433837890625,0.00013595540076494217,0.00028031785041093826,0.0013490472920238972
1761341775162499800,6.635499755859375,-0.0004595275968313217,0.0012603607028722763,-0.001013442873954773
1761341775172566000,6.64556591796875,-0.00038564205169677734,-0.0030971793457865715,0.001293958630412817
1761341775182632000,6.6556318359375,-0.00013743573799729347,0.00005360599607229233,-0.0010024853982031345
1761341775192699000,6.665698974609375,-0.0025290162302553654,-0.0007630838081240654,-0.0026355646550655365
1761341775202765000,6.67576513671875,0.0003879442811012268,0.0015711765736341476,0.0005706148222088814
1761341775212831000,6.6858310546875,0.0030509140342473984,-0.0017968341708183289,0.001400691457092762
1761341775222898000,6.69589794921875,-0.0004924219101667404,0.0019912458956241608,-0.0021053599193692207
1761341775232963800,6.7059638671875,0.0013179881498217583,0.0007840720936655998,0.0007875626906752586
1761341775243029800,6.71602978515625,-0.0003558085300028324,0.0012988615781068802,-0.0012841098941862583
1761341775253096700,6.7260966796875,0.002150340937077999,0.00027200113981962204,0.003213250543922186
1761341775263163000,6.736162841796875,0.001454989891499281,-0.001871311105787754,0.000444894190877676
1761341775273228800,6.746228759765625,0.00004152022302150726,0.0025425469502806664,0.00028666527941823006
1761341775283295700,6.756295654296875,-0.0004306579940021038,0.00039204489439725876,-0.0016630347818136215
1761341775293362000,6.76636181640625,-0.00046725012362003326,0.00037744175642728806,0.0010337657295167446
1761341775303427800,6.776427734375,-0.00023182667791843414,-0.000712856650352478,-0.0014996998943388462
1761341775313494000,6.786493896484375,-0.0010126493871212006,0.00014437641948461533,0.0008343737572431564
1761341775323561000,6.79656103515625,-0.0011261003091931343,-0.0012716269120573997,-0.0006929486989974976
1761341775333627000,6.806626953125,-0.00032152747735381126,0.0004439130425453186,0.0007016928866505623
1761341775343693000,6.816693115234375,0.001203398685902357,0.0009437883272767067,-0.002111936453729868
1761341775353760000,6.826760009765625,0.0015983041375875473,-0.001931680366396904,-0.0006274217739701271
1761341775363826000,6.836825927734375,0.0010113436728715897,-0.002231818623840809,0.0014290716499090195
1761341775373891800,6.846891845703125,0.0004652892239391804,0.0011191973462700844,-0.0008787587285041809
1761341775383958800,6.856958740234375,-0.0006556352600455284,-0.001268060877919197,-0.00006063561886548996
1761341775394025000,6.86702490234375,-0.00010176002979278564,0.0018279096111655235,-0.0020499820820987225
1761341775404091000,6.8770908203125,-0.00040296372026205063,-0.0019007828086614609,0.0014254427514970303
1761341775414156800,6.88715673828125,0.001761480700224638,-0.0009454060345888138,-0.002748701721429825
1761341775424224000,6.89722412109375,-0.00014081504195928574,-0.0007986659184098244,0.0009520268067717552
1761341775434290000,6.9072900390625,-0.0008972743526101112,0.00028508156538009644,-0.0007307934574782848
1761341775444355800,6.91735595703125,-0.00016357330605387688,0.0007631191983819008,0.000822627916932106
1761341775454423000,6.927423095703125,0.0005676820874214172,-0.0015850262716412544,-0.0012144963257014751
1761341775464489000,6.937489013671875,-0.000952716451138258,-0.0009487969800829887,0.00048380112275481224
1761341775474555100,6.94755517578125,0.00033104605972766876,0.0001162281259894371,0.003036266192793846
1761341775484622000,6.9576220703125,0.0003936300054192543,0.0007442012429237366,-0.0012538200244307518
1761341775494687700,6.967687744140625,0.0004558013752102852,0.0027670571580529213,-0.0036094905808568
1761341775504754000,6.97775390625,-0.0014001554809510708,-0.00047241244465112686,-0.0011215656995773315
1761341775514820900,6.98782080078125,-0.0005039656534790993,0.0013341289013624191,-0.000024415552616119385
1761341775524886800,6.99788671875,-0.001133803278207779,0.0012643542140722275,0.00222648773342371
1761341775534953000,7.007952880859375,-0.0018909941427409649,-0.001244131475687027,-0.0023715179413557053
1761341775545019000,7.018018798828125,-0.0019762148149311543,0.002540220506489277,0.00011640693992376328
1761341775555085800,7.0280859375,-0.0018117185682058334,-0.0022264132276177406,0.002308097667992115
1761341775565152000,7.038152099609375,0.000985932070761919,-0.0009965654462575912,-0.0003529326058924198
1761341775575218000,7.048218017578125,0.00009469222277402878,0.0023104874417185783,-0.0013187485747039318
1761341775585284900,7.058284912109375,0.0011295969597995281,-0.0004472155123949051,0.0021071420051157475
1761341775595351000,7.06835107421875,0.0008668089285492897,-0.0009491480886936188,0.0013469173572957516
1761341775605417000,7.0784169921875,0.0014702812768518925,-0.002592051401734352,-0.00254476023837924
1761341775615484000,7.08848388671875,0.00005452428013086319,-0.0006754659116268158,0.0007270234636962414
1761341775625549800,7.0985498046875,0.001428715419024229,0.0010297559201717377,-0.0027731689624488354
1761341775635615700,7.10861572265625,-0.000705525279045105,0.0002042427659034729,-0.000299766194075346
1761341775645682000,7.118681884765625,-0.001212857197970152,0.00019998196512460709,-0.0005743382498621941
1761341775655748900,7.128748779296875,-0.00006725359708070755,-0.0009316718205809593,0.0009080441668629646
1761341775665814800,7.138814697265625,-0.0007133367471396923,-0.0006941184401512146,-0.0007569640874862671
1761341775675881000,7.148880859375,-0.0005630846135318279,-0.0021641869097948074,-0.001335118431597948
1761341775685948000,7.158947998046875,0.0004249480552971363,0.0021258993074297905,0.0014580050483345985
1761341775696013800,7.169013916015625,0.0009757210500538349,0.0013422146439552307,0.0025357832200825214
1761341775706079500,7.17907958984375,-0.001241627149283886,-0.0005454337224364281,-0.0031519304029643536
1761341775716146400,7.189146484375,0.000770301092416048,-0.00003430154174566269,0.0012791361659765244
1761341775726212600,7.199212646484375,-0.0002659345045685768,0.000860254280269146,-0.0004990561865270138
1761341775736278500,7.209278564453125,0.0009356108494102955,-0.003121914342045784,-0.0005455734208226204
1761341775746345500,7.219345458984375,-0.001911308616399765,-0.0005897814407944679,0.00312745850533247
1761341775756411600,7.22941162109375,-0.0015753842890262604,0.00013756193220615387,-0.00031060073524713516
1761341775766477600,7.2394775390625,0.00046965712681412697,-0.0006107864901423454,-0.0015905159525573254
1761341775776543700,7.249543701171875,0.000231932383030653,0.00026005133986473083,0.0005178097635507584
1761341775786610700,7.259610595703125,0.00016109226271510124,-0.00024301931262016296,-0.000007365364581346512
1761341775796676600,7.269676513671875,0.001472725998610258,0.00010019633919000626,0.0011293445713818073
1761341775806742500,7.279742431640625,0.00002529798075556755,0.001482376828789711,0.001031340565532446
1761341775816809500,7.2898095703125,-0.0015547098591923714,-0.0016918182373046875,0.000855504535138607
1761341775826875400,7.29987548828125,-0.002176291309297085,0.0015140948817133904,-0.002117915078997612
1761341775836941600,7.309941650390625,0.0014970558695495129,0.0013468926772475243,0.0024228612892329693
1761341775847008500,7.320008544921875,0.0008230097591876984,0.001043291762471199,0.0008971360512077808
1761341775857074400,7.330074462890625,0.0019632428884506226,-0.00004323478788137436,-0.0002603442408144474
1761341775867140600,7.340140625,-0.0012946021743118763,-0.000007548369467258453,-0.001400975976139307
1761341775877206500,7.35020654296875,0.0006450959481298923,0.00136627908796072,0.0017048357985913754
1761341775887273500,7.3602734375,-0.0010478757321834564,0.0005356390029191971,-0.0006587193347513676
1761341775897339600,7.370339599609375,0.0017586885951459408,-0.0012432215735316277,0.0010854178108274937
1761341775907405600,7.380405517578125,-0.00018754974007606506,0.0004468197003006935,-0.0012432504445314407
1761341775917472500,7.390472412109375,0.002637410070747137,-0.0002814093604683876,0.002375344280153513
1761341775927538700,7.40053857421875,-0.00022415630519390106,0.0007598865777254105,-0.0014683962799608707
1761341775937604400,7.410604248046875,0.0015203505754470825,0.0017878292128443718,-0.004611470270901918
1761341775947671300,7.42067138671875,0.00046493997797369957,0.001044008880853653,-0.0010004900395870209
1761341775957737500,7.430737548828125,-0.0014215419068932533,0.0011719046160578728,-0.0020411149598658085
1761341775967803400,7.440803466796875,-0.0007964982651174068,-0.0005783252418041229,0.002607965376228094
1761341775977869600,7.45086962890625,0.0001971432939171791,-0.001815957948565483,-0.00014608213678002357
1761341775987936500,7.4609365234375,0.00043070269748568535,0.0005545215681195259,0.00034500518813729286
1761341775998002400,7.47100244140625,-0.00027642492204904556,-0.0011484986171126366,-0.0021746326237916946
1761341776008068600,7.481068603515625,-0.0017014825716614723,0.000036874786019325256,0.0008110376074910164
1761341776018135600,7.491135498046875,0.0014870939776301384,-0.0009426325559616089,-0.0007255119271576405
1761341776028201500,7.501201416015625,0.001302802935242653,0.0018217293545603752,-0.00017690099775791168
1761341776038267600,7.511267578125,-0.00017725396901369095,0.0019787000492215157,-0.00047139357775449753
1761341776048334600,7.52133447265625,0.00015377672389149666,-0.0009342655539512634,-0.0010879156179726124
1761341776058400500,7.531400390625,-0.0015987958759069443,-0.0003083711490035057,-0.001396888867020607
1761341776068466400,7.541466552734375,0.00005689123645424843,0.0017156312242150307,-0.000593679491430521
1761341776078532400,7.551532470703125,0.0016097151674330235,0.00038095563650131226,-0.0013224687427282333
1761341776088599600,7.561599609375,-0.0003887210041284561,0.00029147323220968246,0.001282901968806982
1761341776098665500,7.57166552734375,0.0022024456411600113,-0.0016476623713970184,-0.0017075096257030964
1761341776108731400,7.5817314453125,-0.0008239708840847015,0.0015973998233675957,0.0009652390144765377
1761341776118798600,7.591798583984375,-0.0014784527011215687,-0.002235082909464836,0.0003948523662984371
1761341776128864500,7.601864501953125,0.003069160971790552,-0.0011612959206104279,0.0006862017326056957
1761341776138930400,7.611930419921875,-0.001491266768425703,0.002660083584487438,0.0009125913493335247
1761341776148997600,7.62199755859375,-0.00030722562223672867,-0.002158108167350292,0.002432457637041807
1761341776159063600,7.6320634765625,-0.0012000370770692825,0.0014995373785495758,0.0020422996021807194
1761341776169129700,7.642129638671875,0.0019555422477424145,-0.0011204807087779045,0.0015064715407788754
1761341776179195600,7.652195556640625,0.0017362036742269993,-0.0019624140113592148,0.00026850495487451553
1761341776189262600,7.6622626953125,-0.0025562793016433716,0.0011079441756010056,0.0026869215071201324
1761341776199328500,7.67232861328125,0.0012131361290812492,0.0012370720505714417,0.002415406983345747
1761341776209394400,7.68239453125,-0.0008050072938203812,-0.0009640306234359741,-0.0007590809836983681
1761341776219461400,7.69246142578125,-0.002254732884466648,0.0004942361265420914,-0.0022699451074004173
1761341776229527600,7.702527587890625,-0.00014231307432055473,0.0027123838663101196,0.0012917662970721722
1761341776239593500,7.712593505859375,0.0015360470861196518,0.0007091797888278961,0.0023062624968588352
1761341776249660400,7.722660400390625,-0.00018914835527539253,-0.0011851266026496887,-0.0023811678402125835
1761341776259726600,7.7327265625,-0.0008414848707616329,-0.0013420162722468376,0.0012701614759862423
1761341776269792500,7.74279248046875,0.0003257789649069309,0.00044469814747571945,-0.0013517201878130436
1761341776279858700,7.752858642578125,0.0011545517481863499,-0.0003947252407670021,-0.00012810900807380676
1761341776289925600,7.762925537109375,0.00017690518870949745,-0.0013087224215269089,-0.0024248193949460983
1761341776299991600,7.772991455078125,-0.00032873498275876045,0.002034168690443039,0.002782223280519247
1761341776310057700,7.7830576171875,-0.0009897318668663502,-0.00033231545239686966,-0.00022262148559093475
1761341776320124700,7.793124755859375,0.0006323941051959991,0.0017495565116405487,-0.0010617012158036232
1761341776330190300,7.8031904296875,0.001720828004181385,0.0003074556589126587,-0.0015778220258653164
1761341776340256500,7.813256591796875,0.000671016052365303,0.001574014313519001,-0.0017781988717615604
1761341776350323500,7.823323486328125,-0.000016878359019756317,-0.0011061914265155792,0.00020079640671610832
1761341776360389400,7.833389404296875,-0.0008589401841163635,-0.0013799546286463737,0.00037215277552604675
1761341776370455600,7.84345556640625,0.0022745351307094097,-0.0009993882849812508,0.0010315515100955963
1761341776380522500,7.8535224609375,0.0005421265959739685,-0.0034930286929011345,-0.0018136580474674702
1761341776390588400,7.86358837890625,0.0006079068407416344,0.0004665590822696686,0.000887320376932621
1761341776400654600,7.873654541015625,0.0016900370828807354,-0.0014270655810832977,-0.001621562521904707
1761341776410720500,7.883720458984375,-0.00117046432569623,0.0005346182733774185,0.0006676907651126385
1761341776420787500,7.893787353515625,-0.0003619384951889515,-0.0003115730360150337,-0.0012565101496875286
1761341776430853600,7.903853515625,0.00062582828104496,0.00012997910380363464,0.001247127540409565
1761341776440919600,7.91391943359375,0.0011302740313112736,-0.0019530579447746277,-0.00004707137122750282
1761341776450986500,7.923986572265625,0.0013095047324895859,-0.0014491882175207138,0.00023442506790161133
1761341776461052400,7.934052490234375,0.0011376258917152882,-0.0003942018374800682,-0.0012272396124899387
1761341776471118300,7.944118408203125,-0.0011510946787893772,0.00009502097964286804,0.0006628059782087803
1761341776481184500,7.9541845703125,0.0014699012972414494,0.0012143626809120178,-0.0013762377202510834
1761341776491251500,7.96425146484375,0.0009836084209382534,-0.001547602005302906,-0.0003706282004714012
1761341776501317400,7.9743173828125,0.0014849244616925716,0.0014482634142041206,-0.00009154994040727615
1761341776511383600,7.984383544921875,0.002423422411084175,0.001692209392786026,0.0005755717866122723
1761341776521450500,7.994450439453125,0.000303907785564661,-0.0023499177768826485,0.0014164815656840801
1761341776531516700,8.0045166015625,-0.0004367176443338394,0.002092501148581505,-0.000983026809990406
1761341776541582600,8.01458251953125,0.00048188120126724243,-0.002048872411251068,0.0006526964716613293
1761341776551648500,8.0246484375,0.001391883473843336,0.0002710074186325073,-0.000277811661362648
1761341776561714700,8.034714599609375,0.00021552667021751404,-0.0038301823660731316,-0.0007635187357664108
1761341776571781600,8.04478173828125,-0.00019193673506379128,-0.0012849997729063034,-0.0007786983624100685
1761341776581847600,8.05484765625,0.0014470168389379978,-0.000576152466237545,0.0005132267251610756
1761341776591913500,8.06491357421875,-0.00006699003279209137,0.0011655548587441444,-0.0037102806381881237
1761341776601980400,8.07498046875,-0.000007434748113155365,-0.00022802595049142838,0.0008798064664006233
1761341776612046600,8.085046630859376,0.0005363826639950275,0.000508604571223259,-0.0011692298576235771
1761341776622112500,8.095112548828125,0.0003306437283754349,0.00022857170552015305,-0.0005570519715547562
1761341776632178400,8.105178466796875,0.0014318609610199928,0.0015010302886366844,0.00000594044104218483
1761341776642245600,8.11524560546875,0.0006398595869541168,-0.00045109912753105164,0.0031493743881583214
1761341776652311600,8.1253115234375,-0.0005409861914813519,0.0006123017519712448,-0.0007138075307011604
1761341776662377500,8.13537744140625,-0.0015600020997226238,-0.000008274801075458527,0.002278424333781004
1761341776672444700,8.145444580078125,0.0007968954741954803,0.0004276847466826439,0.001219285186380148
1761341776682510600,8.155510498046874,0.00021713832393288612,0.00046047475188970566,0.001770785078406334
1761341776692576800,8.16557666015625,0.0013926574029028416,0.0011094873771071434,-0.003035421948879957
1761341776702643200,8.175643310546874,-0.0014357957988977432,0.00040025636553764343,-0.0009264270775020123
1761341776712709000,8.185709228515625,0.0017924881540238857,0.001307062804698944,0.00011513521894812584
1761341776722775000,8.195775146484374,0.0031264424324035645,-0.0007896954193711281,0.00008306559175252914
1761341776732841000,8.205841064453125,0.0012814044021070004,0.0021275319159030914,-0.0012282747775316238
1761341776742908000,8.215907958984374,-0.000059081241488456726,-0.001216634176671505,-0.0009791790507733822
1761341776752974000,8.22597412109375,0.002657076809555292,0.00040150247514247894,-0.0008249818347394466
1761341776763040000,8.2360400390625,-0.0001223171129822731,-0.00010084453970193863,-0.0007817409932613373
1761341776773107000,8.24610693359375,-0.0015007690526545048,-0.002214595675468445,0.0002869856543838978
1761341776783173000,8.256173095703126,-0.0025424775667488575,0.0014639655128121376,-0.0024028336629271507
1761341776793239000,8.266239013671875,0.0014011319726705551,-0.0027241213247179985,0.002863566856831312
1761341776803306000,8.276305908203126,0.0009966492652893066,0.0012373412027955055,-0.0015459549613296986
1761341776813372200,8.2863720703125,0.0016155680641531944,-0.00008838064968585968,0.0023180251009762287
1761341776823438000,8.29643798828125,-0.00022629555314779282,-0.0011558514088392258,0.0014406661503016949
1761341776833504000,8.30650390625,0.0005172588862478733,-0.0003691539168357849,0.0015458608977496624
1761341776843571200,8.3165712890625,0.0005576563999056816,0.0005558636039495468,-0.0031382753513753414
1761341776853636900,8.326636962890625,0.0015811091288924217,-0.0008130008354783058,0.0009683193638920784
1761341776863703000,8.336703125,0.0014617959968745708,0.0021988749504089355,-0.00048799673095345497
1761341776873770000,8.34677001953125,-0.001780868973582983,0.00024065282195806503,0.0033008824102580547
1761341776883836000,8.3568359375,-0.0016390220262110233,-0.0004969378933310509,0.00009929435327649117
1761341776893902000,8.366902099609375,-0.0009239637292921543,0.0000974796712398529,0.0018684319220483303
1761341776903969000,8.376968994140626,-0.000329543836414814,-0.0008236318826675415,-0.0028576524928212166
1761341776914035200,8.38703515625,-0.00016895541921257973,0.0009825238958001137,0.0004206993617117405
1761341776924102100,8.39710205078125,-0.0006745909340679646,-0.0013580285012722015,0.00032659340649843216
1761341776934168000,8.40716796875,-0.0003472883254289627,0.0020404309034347534,0.0009756060317158699
1761341776944235000,8.417235107421876,0.0018256688490509987,-0.0005784519016742706,0.0018645552918314934
1761341776954301200,8.42730126953125,0.0019409838132560253,-0.0006764568388462067,-0.00024440232664346695
1761341776964367000,8.4373671875,-0.0019461768679320812,0.0009553590789437294,0.0010790592059493065
1761341776974433300,8.447433349609375,-0.0005605346523225307,-0.0013077957555651665,-0.0010749055072665215
1761341776984500200,8.457500244140626,-0.0007982421666383743,0.0005172677338123322,-0.0015612277202308178
1761341776994566000,8.46756591796875,0.0003730161115527153,0.0014997078105807304,0.0005418704822659492
1761341777004632000,8.477632080078125,0.002870380412787199,0.0012594517320394516,0.0015055807307362556
1761341777014699000,8.487698974609375,-0.0006708246655762196,-0.0005877166986465454,0.003384707495570183
1761341777024765000,8.497764892578125,-0.00094942981377244,-0.002967403270304203,0.0004466213285923004
1761341777034831000,8.5078310546875,0.0000886702910065651,0.0014760810881853104,0.00048763398081064224
1761341777044898000,8.51789794921875,0.0007577142678201199,-0.000914950855076313,0.0017944229766726494
1761341777054964000,8.5279638671875,-0.000598100945353508,-0.0006638150662183762,0.0008218362927436829
1761341777065030100,8.538030029296875,0.0002582436427474022,0.0010174484923481941,0.0000065267086029052734
1761341777075096000,8.548095947265624,0.0002675643190741539,0.001353539526462555,-0.0011008158326148987
1761341777085163000,8.5581630859375,0.001199229620397091,-0.00033461395651102066,0.000742016825824976
1761341777095229200,8.568229248046874,-0.002025325782597065,0.00018523447215557098,0.00018754694610834122
1761341777105295000,8.578295166015625,-0.0005891537293791771,-0.0021579135209321976,-0.000372106209397316
1761341777115362000,8.588362060546874,0.0009464249014854431,0.0004186946898698807,0.00036425748839974403
1761341777125428000,8.598427978515625,-0.0009703151881694794,-0.0005969852209091187,-0.0020180707797408104
1761341777135494000,8.608493896484376,-0.0021216003224253654,-0.0005290750414133072,0.0009678658097982407
1761341777145561000,8.61856103515625,-0.00006181327626109123,0.00030640140175819397,-0.0011028549633920193
1761341777155627000,8.628626953125,-0.000049829017370939255,0.0020409179851412773,0.003282838501036167
1761341777165693000,8.63869287109375,0.0003784657455980778,0.002533223479986191,-0.0011369474232196808
1761341777175759000,8.648759033203126,-0.00028279703110456467,0.0010437173768877983,0.0007299282588064671
1761341777185826000,8.658825927734375,-0.0006312541663646698,0.0007721502333879471,0.0014294078573584557
1761341777195892000,8.66889208984375,-0.00003177626058459282,0.000844322144985199,0.0002070162445306778
1761341777205958100,8.678958251953125,0.001874465961009264,-0.0014659883454442024,0.00048049725592136383
1761341777216025000,8.689025146484376,-0.003236939199268818,0.001561759039759636,0.00012975884601473808
1761341777226091300,8.69909130859375,-0.00004353467375040054,-0.002176932990550995,-0.0025510163977742195
1761341777236157200,8.7091572265625,0.0002480815164744854,0.0015546884387731552,0.0012349337339401245
1761341777246224100,8.71922412109375,-0.0007979120127856731,-0.001313820481300354,0.0015963674522936344
1761341777256290000,8.7292900390625,0.0016391463577747345,0.0005234945565462112,0.002274142112582922
1761341777266356000,8.73935595703125,-0.0006881016306579113,0.000012670643627643585,-0.00023492751643061638
1761341777276422100,8.749422119140625,0.000013641547411680222,0.0001197298988699913,-0.000008825212717056274
1761341777286489000,8.759489013671875,0.000535920262336731,0.00021094363182783127,-0.0009541269391775131
1761341777296555000,8.769554931640625,-0.0014896797947585583,0.001870625652372837,0.0012616231106221676
1761341777306621200,8.77962109375,-0.001524866558611393,-0.0010422049090266228,0.0004226015880703926
1761341777316688100,8.789688232421875,0.0021308548748493195,-0.0007820138707756996,-0.002007000148296356
1761341777326754000,8.799754150390624,0.0005262563936412334,-0.0008666375651955605,-0.004267051815986633
1761341777336820200,8.8098203125,0.001971287652850151,-0.0013145813718438148,0.0018419735133647919
1761341777346887200,8.81988720703125,0.0010684621520340443,0.0008565820753574371,-0.0006320001557469368
1761341777356953000,8.829953125,-0.00018801726400852203,-0.0005471706390380859,-0.00020083412528038025
1761341777367019300,8.840019287109374,-0.00035314448177814484,-0.0002773599699139595,0.002813951577991247
1761341777377086200,8.850086181640625,0.0006303610280156136,0.0019554337486624718,0.0021843803115189075
1761341777387152000,8.86015185546875,0.000045250169932842255,-0.0007971702143549919,0.0018960265442728996
1761341777397218000,8.870218017578125,-0.0007409146055579185,0.001006854698061943,0.0004965346306562424
1761341777407284000,8.880283935546874,-0.0016117049381136894,0.00038514286279678345,-0.002000691369175911
1761341777417351000,8.890350830078125,0.0003017764538526535,-0.00019116606563329697,-0.0008320962078869343
1761341777427417000,8.9004169921875,0.0017189052887260914,-0.001146860420703888,0.0009884657338261604
1761341777437483000,8.91048291015625,0.0014331480488181114,0.000879005528986454,-0.00040117138996720314
1761341777447550000,8.920550048828124,0.0012022978626191616,0.00011555291712284088,0.0022722757421433926
1761341777457616100,8.9306162109375,0.0014430475421249866,0.00021808501332998276,0.001348158810287714
1761341777467682000,8.94068212890625,-0.0006962437182664871,0.00006802845746278763,-0.0003039431758224964
1761341777477748200,8.950748291015625,-0.00030742213129997253,0.00040838029235601425,0.0004047243855893612
1761341777487815200,8.960815185546876,-0.0002793814055621624,-0.0007150005549192429,0.0003036288544535637
1761341777497881000,8.970881103515625,-0.0015534376725554466,-0.0003805076703429222,-0.000804245937615633
1761341777507947000,8.980947021484376,-0.00023252470418810844,0.00025082286447286606,0.004186267964541912
1761341777518014000,8.991013916015625,-0.0004889871925115585,-0.0030131470412015915,-0.0008513676002621651
1761341777528080000,9.001079833984376,-0.0009105582721531391,0.0012019146233797073,0.0006617167964577675
1761341777538146000,9.01114599609375,0.0012995991855859756,0.002525506541132927,-0.0003473549149930477
1761341777548213000,9.021212890625,0.00019917450845241547,0.00042931269854307175,-0.00008736178278923035
1761341777558279000,9.03127880859375,-0.001280477736145258,0.0012833885848522186,-0.002033067401498556
1761341777568345000,9.041344970703125,-0.0005121296271681786,0.01936979964375496,0.0037328610196709633
1761341777578411000,9.051410888671874,-0.001416538842022419,-0.00016954541206359863,-0.003525850363075733
1761341777588478200,9.061478271484376,0.000267853494733572,0.0027732346206903458,0.003489944152534008
1761341777598544100,9.071544189453125,0.0005533443763852119,0.0010309955105185509,-0.001083236187696457
1761341777608610000,9.081610107421875,-0.0014780652709305286,0.00020722579210996628,0.0020758267492055893
1761341777618677200,9.09167724609375,-0.00040374603122472763,-0.00133607629686594,-0.002702949568629265
1761341777628743200,9.1017431640625,0.001911926083266735,0.0002927090972661972,-0.00401142705231905
1761341777638809000,9.11180908203125,-0.00025615328922867775,-0.0035443734377622604,-0.00467402208596468
1761341777648875000,9.121875,0.0009864945895969868,-0.00472232885658741,-0.0029232632368803024
1761341777658942000,9.13194189453125,-0.001467608381062746,-0.0052594877779483795,-0.0007591787725687027
1761341777669008100,9.142008056640625,0.0007682330906391144,0.0013679899275302887,-0.0020876494236290455
1761341777679074000,9.152073974609374,-0.00021287519484758377,0.0005453396588563919,0.0034479969181120396
1761341777689141000,9.16214111328125,-0.0003814445808529854,-0.0011164452880620956,-0.0012155082076787949
