time,seconds_elapsed,z,y,x
1761391571503765000,0.072764892578125,-2.590644269710779,0.7078034745056182,0.6870617883153259
1761391571513831200,0.0828310546875,-2.5713351736068724,0.828431768336892,0.7696181256446987
1761391571523897000,0.09289697265625,-2.2215222035050393,0.9360280735723674,0.9769331346083432
1761391571533963300,0.10296337890625,-1.6625626250982284,1.0319378134716302,1.2078537678260355
1761391571544030200,0.1130302734375,-1.0761854629337786,1.0605120929837226,1.3833882485821842
1761391571554096000,0.12309619140625,-0.5404284809380769,0.9683246615432203,1.554202495883405
1761391571564162300,0.133162353515625,-0.1655985584795475,0.8204623968929052,1.6554992625832556
1761391571574228200,0.143228271484375,-0.04684066163003445,0.6874741685084998,1.7454726712360977
1761391571584294400,0.15329443359375,-0.3649158466875553,0.5434946635756641,1.8217210675276816
1761391571594360000,0.163360107421875,-0.6363976228743791,0.5214670292280614,1.9036165297955274
1761391571604427300,0.17342724609375,-0.6918155587136745,0.5762710344200953,1.9303014153644442
1761391571614493200,0.1834931640625,-0.5477940412700176,0.5611019241977483,1.9942644767090678
1761391571624559000,0.19355908203125,-0.13040975619852543,0.5396127806410194,2.0942250263690947
1761391571634625300,0.203625244140625,0.35257015985548495,0.5331537772273645,2.1792289760462937
1761391571644691200,0.213691162109375,0.7688847698688507,0.5388185615234077,2.2645430145859717
1761391571654757400,0.22375732421875,1.0733172140210867,0.5566501689532771,2.3553959825523196
1761391571664824300,0.23382421875,1.0351806678503752,0.5771738650113344,2.4639549953401088
1761391571674890200,0.24389013671875,0.5574339762747288,0.5937373156689107,2.475853522926569
1761391571684956400,0.253956298828125,0.14001461988985536,0.6918521643970161,2.3996285075105726
1761391571695022000,0.26402197265625,-0.15646832656264303,0.7898023240827023,2.3443039490431548
1761391571705088300,0.274088134765625,-0.3283727071881294,0.8736192559324204,2.3243678070820866
1761391571715154200,0.284154296875,-0.3952285673648119,1.009822354710102,2.303586446468532
1761391571725221000,0.29422119140625,-0.4947995331853628,1.1732261796243488,2.2549906117342413
1761391571735287300,0.304287353515625,-0.5965940202742814,1.2861001330018043,2.233381860385835
1761391571745353200,0.314353271484375,-0.6607850451558828,1.3342812494553624,2.2039069057069716
1761391571755419100,0.324419189453125,-0.6355728624880314,1.358459997422248,2.139782954712212
1761391571765485300,0.3344853515625,-0.5132686713337898,1.4107181540563702,2.0305507188379766
1761391571775551200,0.34455126953125,-0.42104339210093017,1.4651285202883184,1.8976605440005658
1761391571785618400,0.354618408203125,-0.3643319093197584,1.4466568979218601,1.7473256056264042
1761391571795684400,0.364684326171875,-0.2736304786533117,1.4250520920962095,1.5650836631208658
1761391571805750000,0.37475,-0.31414895152449607,1.2976802422888576,1.3585259022653102
1761391571815816200,0.384816162109375,-0.2561620419800281,1.14183136279881,1.1218114150118081
1761391571825882000,0.394882080078125,-0.08957973316013812,1.0349025084961205,0.8834660386208444
1761391571835948300,0.4049482421875,0.112525139939785,0.9616342239938676,0.6746824914745986
1761391571846015200,0.41501513671875,0.21192717893421648,0.8244783545359968,0.5223408894531428
1761391571856081200,0.4250810546875,0.27110592861175536,0.6200700267992914,0.36760026346594094
1761391571866147300,0.435147216796875,0.47048166900873184,0.3894929828548804,0.21047829530015585
1761391571876213200,0.445213134765625,0.6636310822367668,0.1191687792053446,0.05286196774616837
1761391571886279200,0.455279052734375,0.7400754394918679,-0.21810020501334218,-0.09719042735956608
1761391571896345000,0.465344970703125,0.7246130819439888,-0.5335520558299497,-0.21876849619634448
1761391571906412000,0.475412109375,0.5724310543984175,-0.714421212144941,-0.3235639186669141
1761391571916478200,0.485478271484375,0.24158581961691378,-0.7245778645001352,-0.4403204856313765
1761391571926544100,0.495544189453125,-0.18097557583153248,-0.8498791916437447,-0.3771592421889305
1761391571936610300,0.5056103515625,-0.5548275931686163,-1.0604385893560946,-0.23593846137970684
1761391571946676200,0.51567626953125,-0.7263835987478494,-1.1643961727630345,-0.28036614358387885
1761391571956742400,0.525742431640625,-0.7065478484213352,-1.082588754104823,-0.5052309108287095
1761391571966809300,0.535809326171875,-0.7654974655181169,-1.0217585108932108,-0.6820007055334747
1761391571976875300,0.545875244140625,-1.0522311713725327,-1.122815331357345,-0.675089830166474
1761391571986941400,0.55594140625,-1.502443374812603,-1.163095246232301,-0.5921902323573828
1761391571997007000,0.566007080078125,-1.9493588747948407,-0.878275265044719,-0.5617230517707765
1761391572007073300,0.5760732421875,-2.0862170764803887,-0.40064043634571134,-0.5073519946359097
1761391572017139200,0.58613916015625,-1.7814625607669352,0.04917049281708896,-0.29380554393678904
1761391572027206100,0.5962060546875,-1.1338818650990723,0.3999902288086712,0.06205825063660741
1761391572037272300,0.606272216796875,-0.2288058330208063,0.7056630284108221,0.42102234931290144
1761391572047338200,0.616338134765625,0.6415080977559089,0.9092768447689712,0.627898966859281
1761391572057404200,0.626404052734375,1.23498836992383,0.9111660195164382,0.7430025059197097
1761391572067470300,0.63647021484375,1.6358797853559255,0.8416863136421888,0.7765299508597702
1761391572077536000,0.646535888671875,1.8545628682911395,0.8218623998839407,0.7237713704228401
1761391572087603500,0.656603515625,1.7753163130968808,0.7383391172185539,0.5812165645308792
1761391572097669000,0.666669189453125,1.5193898334383964,0.6043351359203457,0.3717326870955527
1761391572107735000,0.676735107421875,1.0767939502209425,0.5347030159633607,0.1532343130774796
1761391572117801200,0.68680126953125,0.41918811962306496,0.5557493476560339,-0.09906345468983054
1761391572127867100,0.6968671875,-0.2636930220067501,0.6107214028913527,-0.35607729119360443
1761391572137933300,0.706933349609375,-0.5562672705829144,0.7045968604840338,-0.5150151496749371
1761391572148000300,0.717000244140625,-0.560318591800332,0.8125536695949733,-0.6091721276227384
1761391572158066200,0.727066162109375,-0.3458446509927511,0.7618249875504524,-0.7315497493393719
1761391572168132400,0.73713232421875,0.04536942003369331,0.614008023346588,-0.8372821603991091
1761391572178198300,0.7471982421875,0.505713141387701,0.5071499692577869,-0.826624718914926
1761391572188264200,0.75726416015625,0.8747335007846355,0.4127474921163171,-0.6272179988577962
1761391572198330000,0.767330078125,1.1571084269076586,0.34386640972234306,-0.36063144736662506
1761391572208397000,0.77739697265625,1.290328564351797,0.2612884450830519,-0.1518180896040052
1761391572218463200,0.787463134765625,1.0832353814452886,0.1681707470551133,-0.08246807452403009
1761391572228529200,0.797529052734375,0.6913637232929468,0.15059720603954047,-0.15502813769169152
1761391572238595300,0.80759521484375,0.13090133910775184,0.15434117834083735,-0.3655862932950258
1761391572248661200,0.8176611328125,-0.433705305275321,0.15449600357636809,-0.6315584392149001
1761391572258727400,0.8277275390625,-0.9131196378022431,0.07506685835681855,-0.9144701025631278
1761391572268793000,0.83779296875,-1.1027958219617604,-0.019099727669544517,-1.2228342601411044
1761391572278860300,0.8478603515625,-0.9778677120447158,-0.16928985074553637,-1.4051166807875037
1761391572288926200,0.85792626953125,-0.6241489666759967,-0.4403903725298121,-1.3503906727351247
1761391572298992000,0.8679921875,-0.11290040299296378,-0.6510106701165437,-1.177148759895563
1761391572309058300,0.878058349609375,0.3716559685975313,-0.742481696915999,-1.048227634819597
1761391572319124200,0.888124267578125,0.7475526435047387,-0.7298173725888133,-0.9377126656584441
1761391572329190100,0.898190185546875,0.868466257083416,-0.7864302173011004,-0.8600543295037001
1761391572339257300,0.90825732421875,0.7778408142626285,-1.0338807642329484,-0.7145358515005559
1761391572349323300,0.9183232421875,0.4051543335735798,-1.2883750921964645,-0.4589315164685249
1761391572359389200,0.92838916015625,-0.1605786844909191,-1.4362218670167028,-0.3443701214607805
1761391572369455400,0.938455322265625,-0.5603606773763895,-1.2722646460033953,-0.3897672332189977
1761391572379521300,0.948521240234375,-0.729717127084732,-0.8764779332991689,-0.5004483527272939
1761391572389587500,0.95858740234375,-0.570274168625474,-0.6001973054632544,-0.6092500151645391
1761391572399654400,0.968654296875,-0.16550561949908732,-0.5400557386355475,-0.5975680529382079
1761391572409720300,0.97872021484375,0.2576239312261343,-0.6266209828127175,-0.5051591972993686
1761391572419786500,0.988786376953125,0.5257020364493131,-0.8385997458036989,-0.45632191849201914
1761391572429852400,0.998852294921875,0.4528974970012903,-1.110607080234587,-0.43697745881378647
1761391572439918600,1.008918701171875,0.18621815266013145,-1.4036030613541601,-0.5073739507393911
1761391572449984500,1.018984619140625,0.0007727379381656646,-1.454015590121597,-0.5693868643969298
1761391572460051500,1.029051513671875,-0.2691659004598856,-1.328015467058867,-0.5431596594676376
1761391572470117600,1.03911767578125,-0.5698275939017534,-1.145169932636991,-0.5477714641120285
1761391572480183300,1.049183349609375,-0.9576374094426632,-0.9499680438585579,-0.6779922005444765
1761391572490249500,1.05924951171875,-0.9661170684963464,-0.8985152122579514,-0.8841440109476446
1761391572500315400,1.0693154296875,0.18856325448155403,-1.2465529893808067,-0.6245896231155842
1761391572510381600,1.079381591796875,0.2557452778726816,-1.7609606016166508,-0.22112784573882818
1761391572520448500,1.089448486328125,0.16298048493564127,-1.7965259821251034,-0.5830912358289584
1761391572530514400,1.099514404296875,0.13303075235188005,-1.4420932432681322,-0.7680269109304994
1761391572540580600,1.10958056640625,-0.04252689008414745,-1.1972646423377096,-0.5865813064344227
1761391572550646500,1.119646484375,-0.1847778907239437,-1.1260578204099088,-0.3695165088834241
1761391572560712400,1.12971240234375,-0.3111865945875644,-1.2239740778259933,-0.18191183376833794
1761391572570778400,1.1397783203125,-0.561922519865632,-1.242653497724235,-0.16907176928175613
1761391572580845300,1.14984521484375,-0.9115431822657585,-1.0726536355458198,-0.19760524185942485
1761391572590911500,1.159911376953125,-1.2059048987805843,-0.9540301056656986,0.013006809630413771
1761391572600977400,1.169977294921875,-1.2019506081968545,-0.9504243362586945,0.19041794243752955
1761391572611043300,1.180043212890625,-0.9192904353916644,-0.7626498940672725,0.08159261599690652
1761391572621109500,1.190109619140625,-0.6023311026215553,-0.5110817192161455,-0.214451436714828
1761391572631175400,1.200175537109375,-0.26234862166047096,-0.4001562695579603,-0.5480868502041325
1761391572641242600,1.21024267578125,-0.1288636958003044,-0.525573076307401,-0.7638111929316074
1761391572651308500,1.22030859375,-0.31232407418489455,-0.8444473758533596,-0.7823309652887285
1761391572661374500,1.23037451171875,-0.6461456944286823,-1.0214907998677343,-0.6576859831620008
1761391572671440400,1.2404404296875,-1.1069850903451441,-0.9734615860402583,-0.599926817958802
1761391572681506300,1.25050634765625,-1.6612030271828173,-0.8106272315770388,-0.6137412621691822
1761391572691572500,1.260572509765625,-2.192773078882694,-0.48901294914055615,-0.612022512085177
1761391572701639400,1.270639404296875,-2.5487995166718957,-0.12182941324934363,-0.4812403058450669
1761391572711705300,1.280705322265625,-2.495010643339157,0.27504772504009306,-0.21169585439637303
1761391572721771500,1.290771484375,-1.963604842290282,0.5898248184002935,0.2379883431142196
1761391572731837400,1.30083740234375,-1.1251590449392794,0.7741334111120551,0.662416445749998
1761391572741903600,1.310903564453125,-0.28357670312821864,0.8868306196831166,0.8923627540428191
1761391572751969500,1.320969482421875,0.4516507118105888,0.9331555868759751,0.9570243921108543
1761391572762035500,1.331035400390625,1.18069797680974,0.9508684998296201,1.0683132682539522
1761391572772102400,1.341102294921875,1.6943378195434808,0.9133611914731562,1.238123453079164
1761391572782168300,1.351168212890625,1.9071335980057715,0.7665691864028572,1.4368591420069337
1761391572792234500,1.361234375,1.8123440212428568,0.6471167314179241,1.504342632562667
1761391572802300400,1.371300537109375,1.5408891330629586,0.6868634892642498,1.3874287561446428
1761391572812366600,1.38136669921875,1.0794687223881483,0.8013559106890111,1.0734006545208394
1761391572822432500,1.3914326171875,0.5019610953778029,0.8876111756015569,0.7080033079266548
1761391572832499500,1.40149951171875,0.10792378362417221,0.916281316703558,0.3813623929671943
1761391572842565600,1.411565673828125,0.03936345761716366,0.926379736065492,0.11401417292114346
1761391572852631600,1.421631591796875,0.003734510353207588,0.8060437031790614,-0.004470277281850576
1761391572862697500,1.431697509765625,-0.06504676492810249,0.5331139932062476,0.029573665812984106
1761391572872763400,1.441763427734375,-0.22077742486596105,0.3150421740371734,0.045843613416701554
1761391572882829300,1.451829345703125,-0.44977965724170205,0.12739625359624623,0.014936799303814767
1761391572892896500,1.461896484375,-0.4753793779224157,-0.0401543157339096,0.02093472454436123
1761391572902962400,1.47196240234375,-0.2259001747071743,-0.1272259385306388,0.009025456368178128
1761391572913028400,1.4820283203125,0.25602701742351053,-0.09105857354104518,0.025015052660554645
1761391572923094500,1.492094482421875,0.7586123821794987,-0.08442074296176433,0.06915230055078864
1761391572933160400,1.502160400390625,0.9819260475248098,-0.15789280640780926,0.1118851615358144
1761391572943226600,1.5122265625,1.0443038855046034,-0.2173340064138174,0.21546974691189824
1761391572953293600,1.52229345703125,1.1442828476041556,-0.2121202903535217,0.30979521329440174
1761391572963359200,1.532359130859375,1.230500995376706,-0.1961834471616894,0.4525397696048021
1761391572973425400,1.54242529296875,1.1982751345545053,-0.21879209626764057,0.641432913627848
1761391572983491300,1.5524912109375,1.0687094279646874,-0.24290683908760546,0.8168141765836626
1761391572993557500,1.5625576171875,0.9859925663113593,-0.20613105987608432,0.9244120892543345
1761391573003623400,1.57262353515625,0.9966799645423888,-0.11899323997534811,0.9253699014358222
1761391573013690400,1.5826904296875,1.0074965421110391,-0.041493236187472936,0.896854293308407
1761391573023756500,1.592756591796875,0.8257096498966217,-0.001353095109388232,0.8548739311911165
1761391573033822500,1.602822509765625,0.4609662371665239,-0.07924341338910162,0.7317731097664684
1761391573043888600,1.612888671875,-0.009782558345794678,-0.23326851151809094,0.5611003898277879
1761391573053954300,1.622954345703125,-0.41140228805243967,-0.3690149525694549,0.42852125370092686
1761391573064020500,1.6330205078125,-0.66938803832829,-0.4340944507233798,0.32886041763983664
1761391573074087400,1.64308740234375,-0.8303191895186901,-0.4401827576611191,0.2561753398530185
1761391573084153300,1.6531533203125,-0.8728057475924491,-0.4283170363657176,0.22885880531705916
1761391573094219500,1.663219482421875,-0.8376350654900073,-0.4062208668265492,0.21188728531524537
1761391573104285400,1.673285400390625,-0.7996575092732906,-0.39625812960825857,0.2017652658820152
1761391573114351600,1.6833515625,-0.8149275591194629,-0.34746801441088315,0.26348361703976986
1761391573124417500,1.69341748046875,-0.9941945774674416,-0.3407457204185426,0.29002471022382376
1761391573134484500,1.703484375,-1.075487543797493,-0.36226153278648854,0.2866122714318335
1761391573144550700,1.713550537109375,-0.9629618193358183,-0.31160730421766636,0.22598317681550978
1761391573154616300,1.7236162109375,-0.7490010887473821,-0.25918197432309387,0.12796550485156477
1761391573164682500,1.7336826171875,-0.5546785400867462,-0.32760493768602605,-0.02603979259841144
1761391573174748400,1.74374853515625,-0.39065000740289685,-0.41297845132797956,-0.21900508143119513
1761391573184814300,1.753814453125,-0.21593816814124583,-0.5086376505322754,-0.3250754192084074
1761391573194880500,1.763880615234375,-0.12862637991309164,-0.6766284379106015,-0.31860403123721476
1761391573204947500,1.773947509765625,-0.0776601627856493,-0.7486451879817992,-0.39055020029023285
1761391573215013600,1.784013671875,0.15750760648250578,-0.5194412224888801,-0.6238717571698129
1761391573225079600,1.79407958984375,0.3667237728923559,-0.25386545547544953,-0.9845610722035169
1761391573235145500,1.8041455078125,0.35862522211074827,-0.15165676156245173,-1.282619451279193
1761391573245211400,1.81421142578125,0.035057869377732274,-0.17902246900238095,-1.3687377919390797
1761391573255277300,1.82427734375,-0.5210071566313504,-0.20430800916738806,-1.2747798436947166
1761391573265344300,1.83434423828125,-1.1065139657020568,-0.07779496814645827,-0.9481092642493546
1761391573275410400,1.844410400390625,-1.6737006897062061,0.15361870928518473,-0.36081352593526245
1761391573285476400,1.854476318359375,-2.284208669042587,0.4996502611521631,0.44175928626284
1761391573295542500,1.86454248046875,-2.898179940575361,0.8440534080997109,1.0362028505049645
1761391573305608400,1.8746083984375,-3.225859404802322,1.2225532512426376,1.4079063115060328
1761391573315674600,1.884674560546875,-3.3716607914000747,1.5311305401146411,1.5233205970160661
1761391573325741600,1.894741455078125,-3.113008686169982,1.6049189760334788,1.4690819340892136
1761391573335807500,1.904807373046875,-2.49798878236711,1.5552594575904308,1.2509959402643143
1761391573345873400,1.914873291015625,-1.6871154670745134,1.5053835199177263,0.8446060735464096
1761391573355939300,1.924939208984375,-0.7593313441038131,1.3594004931427537,0.4361214265063405
1761391573366005500,1.935005615234375,0.11565057848393917,1.1135207026589662,0.18872341347932814
1761391573376072000,1.945072021484375,0.8355044832020998,0.8256707061257212,0.09738134682178497
1761391573386139000,1.955138916015625,1.2946616251200436,0.5515460142146795,0.00690218060389161
1761391573396205000,1.965205078125,1.5754700325787065,0.4096208845283836,-0.13363207924589515
1761391573406270700,1.975270751953125,1.6686679562360047,0.37013277761824426,-0.3519482285648584
1761391573416337000,1.9853369140625,1.6007009199470281,0.35475225313492115,-0.5465886110030115
1761391573426402800,1.99540283203125,1.3798860856801272,0.24332331093400716,-0.7269041154906153
1761391573436468700,2.00546875,0.9640659811854362,0.11487352969683706,-0.7803456366904079
1761391573446535000,2.015534912109375,0.5187947412788868,0.18080080378651617,-0.6647733841396868
1761391573456601900,2.025601806640625,0.12672726829349995,0.4047595621023327,-0.36639337189421056
1761391573466667800,2.035667724609375,-0.1587836177676916,0.5904107285294682,0.026303192774951457
1761391573476734000,2.04573388671875,-0.24586861150264738,0.712919867671281,0.44095483801215885
1761391573486800000,2.0557998046875,-0.1686830804914236,0.8629301772009581,0.743193863773346
1761391573496865800,2.06586572265625,0.09443769458532333,1.001900037278235,0.9020096302449703
1761391573506931700,2.075931640625,0.4858797291487455,1.1399060938246548,0.985110084388405
1761391573516998700,2.08599853515625,0.9009089755266905,1.2014588791571557,1.032793042061478
1761391573527064800,2.09606494140625,1.2427461444437502,1.0967382024232297,1.0960454709187148
1761391573537130800,2.106130859375,1.4588456406265495,0.8545954065106809,0.9961429350562393
1761391573547197000,2.116197021484375,1.5451538047701119,0.5599658328399062,0.7292064010836183
1761391573557262800,2.126262939453125,1.6129864010244608,0.29748167516626417,0.4096231495507061
1761391573567329000,2.1363291015625,1.6648516128182411,0.11814853277951479,0.09610913492888212
1761391573577396000,2.14639599609375,1.8125199623316526,0.011964505494758486,-0.18277575712129474
1761391573587462000,2.1564619140625,2.017761379891634,-0.019242972065135835,-0.3747688399210572
1761391573597527800,2.16652783203125,2.2119354599922896,-0.07984094089083373,-0.4785907411843538
1761391573607593700,2.17659375,2.3408353961497546,-0.18883724911734462,-0.5231345240488648
1761391573617660000,2.186659912109375,2.292500696569681,-0.2715687238179147,-0.5365927021674811
1761391573627725800,2.196725830078125,2.006418148100376,-0.36731823165416716,-0.5464192457854747
1761391573637792800,2.206792724609375,1.5406138232529163,-0.5061006794005632,-0.5796675815232097
1761391573647859000,2.21685888671875,0.9973954193353652,-0.6074916271898895,-0.6419247157327831
1761391573657924900,2.2269248046875,0.49308396143913263,-0.6974686160393059,-0.7211125264771282
1761391573667991000,2.236990966796875,0.10974924548566341,-0.8536556414425372,-0.7864306556925177
1761391573678057000,2.247056884765625,-0.12225333774983882,-0.9956838661771267,-0.8412162849776447
1761391573688122600,2.25712255859375,-0.2224398051202297,-1.096486638814956,-0.8776018958278
1761391573698189800,2.26718994140625,-0.2897340567141771,-1.1729692822538316,-0.8696963834002613
1761391573708255700,2.277255859375,-0.3070008333355188,-1.2175973824009299,-0.7940592508748173
1761391573718322000,2.287322021484375,-0.35988194417357444,-1.233615620265901,-0.7089005490273237
1761391573728387800,2.297387939453125,-0.4735340423166752,-1.2501043982520699,-0.6732219174027443
1761391573738453800,2.307453857421875,-0.5754296516925096,-1.2386638435661792,-0.587916062169522
1761391573748520000,2.31752001953125,-0.7094476615160703,-1.154425398368761,-0.5039842717684805
1761391573758587000,2.3275869140625,-0.8908914393812417,-0.9703359283003955,-0.43917102333530783
1761391573768652800,2.33765283203125,-1.1300474015027284,-0.7909412649847567,-0.4111021360620856
1761391573778719000,2.347718994140625,-1.4224305114209652,-0.6768028446294367,-0.37369711903631686
1761391573788784600,2.35778466796875,-1.6729542552530765,-0.5545208287743851,-0.3216394534103572
1761391573798850800,2.367850830078125,-1.8333628438740968,-0.35153530038241293,-0.3485151853762567
1761391573808916700,2.377916748046875,-1.795463613590598,-0.14603621826693414,-0.3732537591829896
1761391573818983000,2.38798291015625,-1.458179285672307,-0.10758896217923611,-0.2258119119018316
1761391573829049900,2.3980498046875,-1.0110147793650626,-0.35773674883842466,-0.07936375183314084
1761391573839115800,2.40811572265625,-0.5079617970973253,-0.45108599059991533,-0.17654811477810142
1761391573849182000,2.418181884765625,0.11024667361378669,-0.2379484129626304,-0.4127032876484096
1761391573859247900,2.428247802734375,0.5560369689583778,-0.13517214829474686,-0.5227105995483696
1761391573869314000,2.43831396484375,0.6206061795026063,-0.11986037819869816,-0.6719234020248055
1761391573879379700,2.448379638671875,0.30405951918661595,0.017578326788544655,-0.8747593658782541
1761391573889446700,2.45844677734375,-0.2325356671988964,0.12447035621218383,-1.0188239918112754
1761391573899512800,2.468512939453125,-1.0043272644251584,0.10930793145895004,-1.0313659318678081
1761391573909578800,2.478578857421875,-1.7809663016825914,0.20304427284188567,-0.9296104616150259
1761391573919645000,2.48864501953125,-2.2662176697999237,0.4554303764797747,-0.6923634018547833
1761391573929710800,2.4987109375,-2.4645821873277423,0.7333950118798762,-0.3085677903912961
1761391573939777000,2.508777099609375,-2.270508644992113,0.9673210374586284,0.27123715377599
1761391573949844000,2.518843994140625,-1.7937585632383823,1.1153600469153373,0.9805543207801878
1761391573959910000,2.528909912109375,-1.2208394330620764,1.1658932794529944,1.5843712780453263
1761391573969976000,2.53897607421875,-0.6376935079038143,1.1930073502194136,1.9321996502012013
1761391573980041700,2.549041748046875,-0.08478548462092876,1.2420105236455798,1.9819705200642346
1761391573990107600,2.559107666015625,0.41368893768489357,1.2772124776691198,1.871850395439565
1761391574000173800,2.569173828125,0.8682306947618722,1.2925322118759155,1.6986971837967633
1761391574010240800,2.57924072265625,1.301835462272167,1.219897622167319,1.5266168620824814
1761391574020307000,2.589306884765625,1.7910113103568552,1.0611829049173742,1.37778268366009
1761391574030372900,2.599372802734375,2.193670904505253,0.8739818786997348,1.3175877426773308
1761391574040438800,2.609438720703125,2.398945639812946,0.6633295420069247,1.2402037664845584
1761391574050505000,2.6195048828125,2.399035656183958,0.5457619509205222,0.9828153245147317
1761391574060571000,2.62957080078125,2.2418559664815665,0.5759020184446126,0.6215699830334633
1761391574070636800,2.63963671875,1.9165134207695722,0.6412462319493294,0.2165812152851373
1761391574080703700,2.649703857421875,1.5518068329185246,0.6323904330596327,-0.16917342129163443
1761391574090769700,2.659769775390625,1.1363643295645713,0.493903388063237,-0.48397477231025693
1761391574100835800,2.6698359375,0.6158569391489028,0.20167108479253948,-0.6722586983937769
1761391574110901800,2.67990185546875,0.0363595996260643,-0.1339166683409363,-0.7949014007873832
1761391574120968000,2.689968017578125,-0.5637111568480729,-0.3451020159319043,-0.9110761492758989
1761391574131033900,2.700033935546875,-1.1635691473543643,-0.4333144793268293,-0.9458522791028022
1761391574141100800,2.710100830078125,-1.7228560580193995,-0.3961460475359112,-0.8937846766047179
1761391574151167000,2.7201669921875,-1.9121920504391192,-0.2233057742998004,-0.7069925234489143
1761391574161233000,2.73023291015625,-1.6802140171229838,-0.08214585683234035,-0.5279597522482276
1761391574171298800,2.740298828125,-1.1560907742977142,0.011430033291876316,-0.34069252892658114
1761391574181364700,2.75036474609375,-0.5769698668718337,-0.01035674150455743,-0.14838497335016726
1761391574191431000,2.760430908203125,-0.035597383081912994,-0.14677994930632413,0.013825842387229203
1761391574201497900,2.770497802734375,0.4860650225877762,-0.2709219503469765,0.1881776161648333
1761391574211563800,2.780563720703125,0.9285574454307556,-0.35050292512737213,0.31891090522930027
1761391574221630000,2.7906298828125,1.2947259225279093,-0.4140241609886288,0.41101613827906547
1761391574231696000,2.80069580078125,1.590012937194109,-0.44167204637080426,0.4637443235777318
1761391574241762000,2.810761962890625,1.783698941516876,-0.4467999473111704,0.5144187181517481
1761391574251828000,2.820827880859375,1.8044295948565006,-0.3596806494478136,0.5817425611663609
1761391574261895000,2.83089501953125,1.5410083755284547,-0.22398911692146212,0.562249340667203
1761391574271960800,2.8409609375,1.127256309479475,-0.17053725699074565,0.5630464093290269
1761391574282026800,2.85102685546875,0.6489098984450101,-0.14055252615883945,0.6345514835510403
1761391574292093000,2.861093017578125,0.18582944560348985,-0.18033073858935386,0.7157612285770475
1761391574302158800,2.871158935546875,-0.13091770572066305,-0.2380957124788314,0.768910196571052
1761391574312224800,2.881224853515625,-0.3331178558886051,-0.3102965504126623,0.7476274623066187
1761391574322291000,2.891291015625,-0.4420353267252445,-0.3214886832954362,0.6363987919181585
1761391574332358000,2.90135791015625,-0.4483253667801618,-0.31800781890973445,0.4865609894111752
1761391574342423800,2.911423828125,-0.349470440274477,-0.35501141552776094,0.42223610901683567
1761391574352490000,2.921489990234375,-0.22599778986275196,-0.37167653646152465,0.39823841670528054
1761391574362555600,2.9315556640625,-0.20530162331461904,-0.3598059563279152,0.4014988798059523
1761391574372621800,2.941621826171875,-0.2946925559043884,-0.35474659057911484,0.39318098718523975
1761391574382687200,2.951687255859375,-0.5949772327274083,-0.32951040598116815,0.3990823201835155
1761391574392754400,2.96175439453125,-1.0358049372285605,-0.22965024795569478,0.4087302923642099
1761391574402820400,2.9718203125,-1.4055956964761018,-0.15033881083168088,0.4343509097024798
1761391574412886300,2.98188623046875,-1.516188407048583,-0.016376622848585248,0.39735505799949167
1761391574422952400,2.991952392578125,-1.40319331150949,0.021134083041362463,0.3945069750919938
1761391574433018400,3.002018310546875,-1.152083292222023,-0.03498725182693451,0.4748461478285491
1761391574443084500,3.01208447265625,-0.862962398970127,-0.13504980055671184,0.5459240096144378
1761391574453151500,3.0221513671875,-0.6157049634575843,-0.25277594320569186,0.5196712318524718
1761391574463217400,3.032217529296875,-0.33920214423835277,-0.2585867483763024,0.4233776802673936
1761391574473283300,3.042283447265625,-0.12318740372955798,-0.2741759837068617,0.309146174801141
1761391574483349200,3.052349365234375,-0.09476035066843032,-0.478536745974794,0.17733678093776106
1761391574493415400,3.06241552734375,-0.3970879314959049,-0.5579091560384258,-0.09933452671617268
1761391574503481300,3.0724814453125,-1.1369202098816633,-0.36033429105095566,-0.5138214829109609
1761391574513548300,3.08254833984375,-1.9998188959658145,-0.1959883629810065,-0.7775628741040825
1761391574523614500,3.092614501953125,-2.656857740330696,-0.08049078310169279,-0.7550212258197366
1761391574533680400,3.102680419921875,-2.9680834978848694,0.2123101869024336,-0.5712981048457324
1761391574543746600,3.11274658203125,-2.940930118021369,0.5556193280681967,-0.25928251208812
1761391574553812500,3.1228125,-2.6427655020922423,0.8526870886713266,0.0661526803433895
1761391574563878400,3.13287841796875,-2.227287342903018,1.056079517363757,0.3599504793651402
1761391574573944300,3.1429443359375,-1.8324252707630395,1.1821262560471892,0.6009982465825975
1761391574584011300,3.15301123046875,-1.3557652053803204,1.2199869078859686,0.8891431344091891
1761391574594077400,3.163077392578125,-0.7858417498886585,1.237596360465139,1.1421233314827084
1761391574604143400,3.173143310546875,-0.24051205290555952,1.2865797332122921,1.2180100548550485
1761391574614209500,3.18320947265625,0.18914543828368185,1.3798884237676858,1.0605047864601016
1761391574624275500,3.193275390625,0.5484048666447401,1.4657573197111486,0.7822165451288223
1761391574634341400,3.20334130859375,0.9037205258160829,1.5282371567606925,0.4794347907930612
1761391574644408600,3.21340869140625,1.2859767988830804,1.4567884158357978,0.20727964538931845
1761391574654474500,3.223474609375,1.5640081428438424,1.269231708048284,-0.11706819019690155
1761391574664540400,3.23354052734375,1.824481033760309,1.0694574698530137,-0.52002413694337
1761391574674606300,3.2436064453125,2.0699469096809624,0.9022299949973821,-0.8669184431195258
1761391574684672300,3.25367236328125,2.215584045627713,0.787078525141999,-1.1247256219580768
1761391574694738400,3.263738525390625,2.236900974422693,0.7414302881669252,-1.3214711599819362
1761391574704805400,3.273805419921875,2.0688281347841024,0.6999145478866994,-1.432283212393522
1761391574714871300,3.283871337890625,1.6356114898085594,0.5003642546404152,-1.4328648116737603
1761391574724937500,3.2939375,1.0458984612196682,0.23155177072808145,-1.3008971585087477
1761391574735003400,3.30400341796875,0.3478331944614649,0.2008983468543738,-1.1388916560851037
1761391574745069600,3.314069580078125,-0.4156096766144037,0.37719803982935846,-1.0296610276460647
1761391574755135200,3.32413525390625,-1.0320575673937797,0.5712845877770334,-0.8165737188912927
1761391574765202200,3.3342021484375,-1.5064759913295507,0.7192691636327654,-0.524010722361505
1761391574775268400,3.344268310546875,-1.7187012764275074,0.8695088980041443,-0.25021307044774294
1761391574785334300,3.354334228515625,-1.5545669452816246,0.9729708799138664,0.1909454734429717
1761391574795400400,3.364400390625,-1.0850748718321324,0.9609749563675373,0.5979970189400017
1761391574805466400,3.37446630859375,-0.38583237798810005,0.9462021885190158,0.855828893828392
1761391574815532500,3.384532470703125,0.4118734126955271,0.9099408616356551,0.9259596840225159
1761391574825598500,3.394598388671875,1.170988483700156,0.7904185562849044,0.9207445797227323
1761391574835665400,3.40466552734375,1.7724264368742704,0.6005337708760052,0.89221888859272
1761391574845731600,3.414731689453125,2.1415046639382838,0.43056342705301937,0.7070913076482713
1761391574855797200,3.42479736328125,2.1555448797285557,0.25510478801205755,0.4059169154439121
1761391574865863400,3.434863525390625,1.8188894973635672,-0.009696925888955592,0.19327135910727083
1761391574875929300,3.444929443359375,1.4519903679043054,-0.16425328135043382,0.020090674935653804
1761391574885995300,3.454995361328125,1.1528262195438146,-0.17221161994375286,-0.13860679891854524
1761391574896062500,3.4650625,0.9404109648317098,-0.24197262697741387,-0.23315905979424714
1761391574906128400,3.47512841796875,0.7868862905055284,-0.3994222927276045,-0.3127564742527902
1761391574916194600,3.485194580078125,0.6346165846765041,-0.6142369367316365,-0.472045118933171
1761391574926260500,3.495260498046875,0.48601650727093215,-0.7974939014986157,-0.7741771771885454
1761391574936326400,3.505326416015625,0.3220855897426605,-1.1460955230493097,-0.9316505891405046
1761391574946392300,3.515392333984375,0.09727145670652389,-1.4638541164383292,-0.9686055243112146
1761391574956459300,3.525459228515625,-0.2345996139913797,-1.7050021291598676,-0.9703054600968957
1761391574966525400,3.535525390625,-0.6028495735377073,-1.775763180081546,-0.8784910997524857
1761391574976591400,3.54559130859375,-0.931583515253663,-1.5118834033310413,-0.8548993578933178
1761391574986657300,3.5556572265625,-1.2273247034281491,-1.0705542521137743,-0.9235172593064606
1761391574996723500,3.565723388671875,-1.5794102946370838,-0.7318572809185833,-0.7786953852653503
1761391575006789400,3.575789306640625,-1.6916677235513924,-0.4392573133792728,-0.3852387960091233
1761391575016856300,3.585856201171875,-1.6523527812510728,-0.2698364201325923,0.06310805195048451
1761391575026922500,3.595922607421875,-1.5358178211480378,-0.2319031414490193,0.39710393278263506
1761391575036988400,3.605988525390625,-1.3219880234628916,-0.043753143943473696,0.4825524113569408
1761391575047054300,3.616054443359375,-0.9967547833442687,0.1730637797936797,0.41317368163913487
1761391575057120300,3.626120361328125,-0.5797025067061186,0.24734394475221633,0.25635581098645926
1761391575067186400,3.6361865234375,-0.15919629022181034,0.3549468989241868,0.04906330611556768
1761391575077252400,3.64625244140625,0.3783955059856176,0.5860146124623715,-0.15268303587026893
1761391575087319300,3.6563193359375,0.8558902686268091,0.6335284241136163,-0.2958083351265639
1761391575097385500,3.666385498046875,1.2561387099802492,0.5435011663816869,-0.3235698369510472
1761391575107451400,3.676451416015625,1.403965464925766,0.4702979830048978,-0.3456024032020941
1761391575117517600,3.686517578125,1.0872808574438095,0.42022623049914837,-0.35845286121852693
1761391575127583500,3.69658349609375,0.28754969841241834,0.4229197073668241,-0.33218006358183916
1761391575137649400,3.7066494140625,-0.7746341271758079,0.6368325071603059,-0.4357321349278092
1761391575147716400,3.71671630859375,-1.9440555076897144,0.9385882794491947,-0.7517277372322976
1761391575157782300,3.7267822265625,-2.67217981262505,1.2527135578371584,-1.0104907554909586
1761391575167848400,3.736848388671875,-2.773049586084485,1.4594852537043392,-1.1489242436692118
1761391575177914400,3.746914306640625,-2.3996686933904883,1.4961881138101218,-1.2066833358071745
1761391575187980300,3.756980224609375,-1.7315595889568327,1.3922097068108616,-1.327576637250185
1761391575198046500,3.76704638671875,-0.9011667496800422,1.3005107895396648,-1.5072478524848818
1761391575208113400,3.777113525390625,-0.18064181383252143,1.226289807422459,-1.596933676367998
1761391575218179600,3.7871796875,0.3755120595037937,1.1191840621829032,-1.5503008122697473
1761391575228245500,3.79724560546875,0.6755658501803875,1.214483488164097,-1.452503870384395
1761391575238311200,3.807311279296875,0.6344511649817228,1.4063023834407329,-1.3778192162781953
1761391575248377300,3.81737744140625,0.347650239109993,1.5917526204682886,-1.2602613428682088
1761391575258443300,3.827443359375,-0.16417992385327815,1.7493635411947965,-1.1777364235904066
1761391575268510500,3.837510498046875,-0.6937474035590887,1.8432379028089343,-1.166782410312444
1761391575278576400,3.847576416015625,-1.0288672469198703,1.8330263053961098,-1.1449270637918263
1761391575288642300,3.857642333984375,-1.1737111866623162,1.7454757399760186,-1.14614411143139
1761391575298708500,3.86770849609375,-1.2349176427751778,1.5752381235189734,-1.120935582025349
1761391575308774400,3.8777744140625,-1.268811729070544,1.3717483719319103,-0.9988168304406105
1761391575318840600,3.887840576171875,-1.2385124523967503,1.2450509142547845,-0.8806172981262207
1761391575328906200,3.89790625,-1.206401157864928,1.3136685234069823,-0.7897854460131376
1761391575338973200,3.90797314453125,-1.139939849963784,1.4574911572776734,-0.6949385130397975
1761391575349039400,3.918039306640625,-0.9127034582167863,1.6784398470573125,-0.5319605123221874
1761391575359105300,3.928105224609375,-0.5469453154861926,1.8873858182236551,-0.2992432049460709
1761391575369171500,3.93817138671875,-0.34295594381392003,2.120235519807786,0.0196943690944463
1761391575379237400,3.9482373046875,-0.22073007859289645,2.160520768444985,0.26567959271408614
1761391575389303600,3.958303466796875,0.07950491386950015,2.079074365118891,0.5881861843477935
1761391575399370500,3.96837060546875,0.43567163691222666,1.9622167489327489,0.7389655054885894
1761391575409436400,3.9784365234375,0.7986655756264924,1.840080169430375,0.7221069443419575
1761391575419502600,3.988502685546875,1.1085697291880845,1.6642945634573698,0.6116785574857145
1761391575429568500,3.998568603515625,1.4514701434224844,1.5589162265323102,0.5098982450526207
1761391575439634700,4.008634765625,1.752193796184659,1.7083755511157213,0.3572625554554164
1761391575449700400,4.018700439453125,1.9075567918539047,1.8586178427703677,0.31346973708868026
1761391575459767600,4.028767578125,1.8876187501966952,2.008123344583064,0.45908564758431164
1761391575469833500,4.03883349609375,1.6291040076106786,2.115151202280819,0.6733300539523362
1761391575479899400,4.0488994140625,1.183282732605934,2.0581195476345715,0.8068554579533637
1761391575489965300,4.05896533203125,0.8888999733030796,1.9977480810411272,0.7377448776524513
1761391575500031500,4.069031494140625,0.7294348030120134,1.7844784014567732,0.4875498543180525
1761391575510097400,4.079097412109375,0.6011182197004556,1.535387759167701,0.33515769115313887
1761391575520163600,4.08916357421875,0.519271711140871,1.3261995036780834,0.3911318361030891
1761391575530230500,4.09923046875,0.49440030473470686,1.1779454632312059,0.48762986075170334
1761391575540296400,4.10929638671875,0.31348610370159147,1.1676314283572136,0.5660414629591629
1761391575550362600,4.119362548828125,-0.1536339799195528,1.2812316501826047,0.5303202708344906
1761391575560428300,4.12942822265625,-0.5760328782826661,1.4213932773277163,0.41229646041318774
1761391575570494500,4.139494384765625,-0.9085229576617478,1.5540879295930266,0.2820749933283776
1761391575580560400,4.149560302734375,-1.123669683164358,1.5318727367840705,0.09101298083364963
1761391575590627300,4.15962744140625,-1.1588836198866366,1.4493217332169412,-0.15437325397953391
1761391575600693500,4.169693603515625,-1.0657809732973575,1.4311558157987891,-0.40912250655218957
1761391575610759400,4.179759521484375,-0.8578530931323766,1.4019488644063471,-0.5968079552859068
1761391575620825600,4.18982568359375,-0.6989402960270643,1.4532470899671315,-0.6973001276046037
1761391575630891500,4.1998916015625,-0.65761985912323,1.5889723420999944,-0.7420031196188182
1761391575640957400,4.20995751953125,-0.8245692476898431,1.6852058340609073,-0.6777971894290298
1761391575651024600,4.220024658203125,-1.130589253294468,1.6728474338777362,-0.5813938938591628
1761391575661090300,4.23009033203125,-1.2796604553431272,1.4992955783061683,-0.4007072910368442
1761391575671156500,4.240156494140625,-1.1752402959257364,1.2747437494680285,-0.08313998243622481
1761391575681222400,4.250222412109375,-0.8717711438477039,1.1115537865001708,0.23321035159006714
1761391575691288600,4.26028857421875,-0.48612639738619323,1.0534450041417032,0.41261436725594103
1761391575701354500,4.2703544921875,-0.10946984402239322,1.0588021472606808,0.4819454584397375
1761391575711421400,4.28042138671875,0.28358547095656395,0.9905813554063438,0.46687736090645193
1761391575721487600,4.290487548828125,0.6128700322926044,0.7721287202261388,0.44390638129413124
1761391575731553500,4.300553466796875,0.7845067018926143,0.45367914889827365,0.4022343544736504
1761391575741619700,4.31061962890625,0.8417734804689884,0.21647424777932464,0.30129904149733483
1761391575751685400,4.320685302734375,0.7943553112119436,0.1329338678486645,0.15004764586538075
1761391575761751300,4.330751220703125,0.5782213282376527,0.09888064546883106,-0.06066226623356342
1761391575771818500,4.340818603515625,0.09487725504636764,0.11499079940095543,-0.33798867679536343
1761391575781884400,4.350884521484375,-0.3355740168690681,0.20889920941516757,-0.5701008578851818
1761391575791950600,4.36095068359375,-0.5559311704963446,0.3096499596048146,-0.7619789360031485
1761391575802016500,4.3710166015625,-0.6928437327176332,0.35491942639537155,-0.8910906152151524
1761391575812082400,4.38108251953125,-0.8306459372550249,0.28611579315178093,-0.9703488608472048
1761391575822148600,4.391148681640625,-0.9830687878191471,0.31451720031499864,-1.0923783267132938
1761391575832214300,4.40121435546875,-1.163640459024906,0.48538924221806223,-1.251620648033917
1761391575842281500,4.411281494140625,-1.2570751140475271,0.6564569528236985,-1.3215079848609863
1761391575852347400,4.421347412109375,-1.2128630473554134,0.763062858782336,-1.2719060418240726
1761391575862413300,4.431413330078125,-1.0830682081848382,0.8288504321403801,-1.1128658189468086
1761391575872479500,4.4414794921875,-0.9897738384157418,0.8732227308955043,-0.8929542171299457
1761391575882545400,4.45154541015625,-0.9177543118655681,0.9280658625215291,-0.6730712568856775
1761391575892611600,4.461611572265625,-0.8242080131620169,0.9555027355015278,-0.5004062671512365
1761391575902678500,4.471678466796875,-0.6206096866339444,0.9649141224473714,-0.3890292743332684
1761391575912744400,4.481744384765625,-0.33586861590147016,0.92833715374358,-0.2751074193380773
1761391575922810600,4.491810546875,-0.09697861123979092,0.818093183543533,-0.1573814958848059
1761391575932876500,4.50187646484375,0.11661913125514983,0.716555374629423,-0.04222600744143128
1761391575942942500,4.5119423828125,0.3346908042937517,0.6723673464000225,0.03432327149286866
1761391575953008400,4.52200830078125,0.5208955129504204,0.6460317126601934,0.09635346507877111
1761391575963075300,4.532075439453125,0.6690992845147847,0.5883907670091837,0.164312610322237
1761391575973141500,4.5421416015625,0.7792670476734638,0.4996417855847627,0.21141776810735463
1761391575983207400,4.55220751953125,0.7683587001681328,0.38512766378484664,0.1976956783555448
1761391575993273600,4.562273681640625,0.6692576899468898,0.2221892644252628,0.1274487144358456
1761391576003339500,4.572339599609375,0.6972352456748485,0.06660553867742419,0.09008899785652756
1761391576013405400,4.582405517578125,0.793360454955697,-0.09121062229759991,0.052397711235284805
1761391576023471400,4.592471435546875,0.9663941318720578,-0.29399726711660623,0.008777180695533751
1761391576033538600,4.60253857421875,1.1546546040147543,-0.5087633958037943,-0.07892404524162411
1761391576043604500,4.6126044921875,1.3319342479377985,-0.6458748415980488,-0.19696692568957805
1761391576053670400,4.62267041015625,1.5050965196698902,-0.7402350870329886,-0.19534575422853231
1761391576063736300,4.632736328125,1.5462287405252455,-0.8870042226843535,-0.11730258347466588
1761391576073802500,4.642802490234375,1.3844178838908672,-1.0306920511942357,-0.07634053155444562
1761391576083869400,4.652869384765625,1.210571721547842,-1.1005847217835485,-0.00924231398925185
1761391576093935600,4.662935546875,1.0473077434957028,-1.137805249087885,0.085880732511729
1761391576104001500,4.67300146484375,0.8627122236013411,-1.0940830848045646,0.11221512414254248
1761391576114067500,4.6830673828125,0.6100023679018021,-1.0534371861614287,0.06716704501770436
1761391576124133600,4.693133544921875,0.22320085262060163,-0.9574348726078867,-0.06650938482657075
1761391576134199300,4.70319921875,-0.20613105987608432,-0.8732065834783017,-0.18140914494320748
1761391576144265500,4.713265380859375,-0.5326525862395763,-0.8238508702874183,-0.15526150805614888
1761391576154332400,4.72333251953125,-0.7483727277159691,-0.846853414081782,-0.006287336641177535
1761391576164398300,4.7333984375,-0.8621709563314914,-0.9470645775020122,0.24909780268222093
1761391576174464500,4.743464599609375,-0.9034954848885536,-1.004661903207004,0.4992576816380024
1761391576184530400,4.753530517578125,-0.9814251122653483,-0.99630470148921,0.6832080354966222
1761391576194596600,4.7635966796875,-1.069754553103447,-0.9466387533053755,0.7439157483071088
1761391576204662500,4.77366259765625,-1.1658633957713842,-0.8522786540009081,0.6530574465785175
1761391576214729500,4.7837294921875,-1.4362906944692133,-0.8116965413089842,0.5303296231847257
1761391576224795600,4.793795654296875,-1.9230583123683929,-0.8116920843295753,0.34045214429944753
1761391576234861300,4.803861328125,-2.205480000242591,-0.7938620478022843,0.2440096126977354
1761391576244927500,4.813927490234375,-2.1485855621099472,-0.7956597448740154,0.2603127319186926
1761391576254993400,4.823993408203125,-1.8455676609307528,-0.7877452454224229,0.2782289854247123
1761391576265059600,4.8340595703125,-1.3080208729088305,-0.7229036476776003,0.18612799015864728
1761391576275126500,4.84412646484375,-0.5475526337295771,-0.6791512343864887,0.10290157154798507
1761391576285192400,4.8541923828125,0.33547640171349047,-0.7505836086984723,0.11155592958144843
1761391576295258600,4.864258544921875,1.1897300090491771,-0.8703861192300916,0.17301690844465045
1761391576305324500,4.874324462890625,1.9199393035650252,-0.9430527845773845,0.24384057627376168
1761391576315390500,4.884390380859375,2.6349779169559477,-1.0557237627286464,0.388170684742555
1761391576325456400,4.894456298828125,3.0618057376772163,-1.2265347220942378,0.6862734144166112
1761391576335523300,4.9045234375,2.791287253564596,-1.3458476224780083,0.9112680185861886
1761391576345589500,4.914589599609375,2.0122066683739424,-1.2959037341356276,0.9293708076402545
1761391576355655400,4.924655517578125,0.8464742055058478,-0.919539807042852,0.6163176885284483
1761391576365721300,4.934721435546875,-0.4559638988345861,-0.5083274886045605,0.27797621624004093
1761391576375787300,4.944787353515625,-1.7794307626783847,-0.16353227359950542,0.017600136761553583
1761391576385853000,4.95485302734375,-2.8204104721963406,0.21828926131203769,-0.18945841322299092
1761391576395919000,4.964919189453125,-3.283527749916911,0.5049204566400498,-0.21906272990256548
1761391576405986000,4.974986083984375,-3.082795334213972,0.6820180219944566,-0.05813537810444831
1761391576416052200,4.98505224609375,-2.3755261857807635,0.8256067009788006,0.11862740233764052
1761391576426118100,4.9951181640625,-1.3120640108197927,0.9975937914516776,0.10213946460168809
1761391576436184000,5.00518408203125,-0.15301789384782313,1.200837240127474,-0.02492138302773237
1761391576446250200,5.015250244140625,0.7828682870358228,1.292601039328426,-0.14274409965267404
1761391576456316200,5.025316162109375,1.1770739410936832,1.2221158096734435,-0.32343057461082936
1761391576466383000,5.035383056640625,1.1477128220528363,1.1199410180300473,-0.6050749214369804
1761391576476449300,5.04544921875,0.993865491643548,1.0399841956745832,-0.8251559615366161
1761391576486515000,5.055514892578125,0.8925240090191364,0.9489678538400679,-1.1153605583719908
1761391576496581000,5.0655810546875,0.8959025455415248,0.7653747159212827,-1.300233580033481
1761391576506647000,5.07564697265625,0.946874607887864,0.56486142286174,-1.325485071798414
1761391576516713200,5.085713134765625,0.9950479794263839,0.4064224538132548,-1.3032413835473358
1761391576526780200,5.0957802734375,1.025022261929512,0.3359362743102014,-1.2026191551081835
1761391576536846000,5.10584619140625,1.0834598378509281,0.33111864489540455,-0.9541871228583156
1761391576546912300,5.115912353515625,1.1181985582768916,0.26843722085915506,-0.5776974504940211
1761391576556978200,5.125978271484375,1.075049152380228,0.19403313726000487,-0.17944003682732582
1761391576567044400,5.13604443359375,0.916008929502964,0.1415162566244602,0.16044811691381036
1761391576577110000,5.146110107421875,0.6832441297233104,0.08819397789016366,0.3898138488397002
1761391576587177000,5.156177001953125,0.44298985097110266,-0.00868124604038894,0.5226700483422726
1761391576597242000,5.1662421875,0.19136019172370433,-0.19765096243098376,0.6398563119608909
1761391576607308000,5.17630810546875,-0.13042670733332634,-0.44115737484693524,0.6513624792288989
1761391576617375200,5.186375244140625,-0.44166766245663164,-0.6996896530896425,0.5466933865517377
1761391576627441200,5.196441162109375,-0.574755697953701,-0.9286154592283069,0.44596119493208825
1761391576637507300,5.20650732421875,-0.5905962411642074,-1.1395295886624603,0.313044059022516
1761391576647573200,5.2165732421875,-0.5365975244730711,-1.278716744752228,0.14968367139119654
1761391576657639000,5.226638916015625,-0.44108138700127597,-1.3399964122317731,0.0019630345681216567
1761391576667705000,5.236705078125,-0.3850894506663084,-1.3748840396091342,-0.05167685874798335
1761391576677771000,5.24677099609375,-0.40275779382586474,-1.3445654737129806,0.04463250232758
1761391576687838000,5.256837890625,-0.4584703286975622,-1.3008072882682085,0.20055618235319853
1761391576697904000,5.266904052734375,-0.4775929623186588,-1.2335673972100019,0.39097931242249906
1761391576707970000,5.276969970703125,-0.45832361370325087,-1.1341651390198617,0.5663168823670596
1761391576718036200,5.2870361328125,-0.4578507354944944,-1.0424370687194169,0.7883816436298191
1761391576728102100,5.29710205078125,-0.4589396997749805,-0.9634753218159079,1.0305742700334637
1761391576738168300,5.307168212890625,-0.40372167042195795,-0.9238546745672821,1.2842540667437017
1761391576748235300,5.3172353515625,-0.23977029462754726,-0.8803736986286937,1.552818932570517
1761391576758301200,5.32730126953125,-0.004398527219891548,-0.8822481141984462,1.8643404582008718
1761391576768367000,5.3373671875,0.20855799476206302,-0.9080610392384231,2.135566944452375
1761391576778433000,5.34743310546875,0.33392215800881386,-0.919188363256678,2.2642096909783778
1761391576788499200,5.357499267578125,0.4178969107687473,-0.8356764057029038,2.274730646601319
1761391576798565000,5.367565185546875,0.308805836930871,-0.6673822514638305,2.1276308907561003
1761391576808632000,5.377632080078125,0.22543255719542502,-0.41300555853061377,1.8957129170641303
1761391576818698200,5.3876982421875,0.17535422881841659,-0.23499990188796072,1.7519065036758779
1761391576828764200,5.39776416015625,0.003002688947319984,-0.1686750067828223,1.6949951144084334
1761391576838830300,5.407830322265625,-0.18269290114343165,-0.09670982250208035,1.6028651122435926
1761391576848896000,5.41789599609375,-0.3348772667765617,-0.017901731790322808,1.410004452829063
1761391576858962200,5.427962158203125,-0.5882341882079839,-0.08126719256797806,1.185131648408249
1761391576869028000,5.438028076171875,-0.9121084149330854,-0.31007337264865636,0.8824255896572023
1761391576879095000,5.448094970703125,-1.1697831995636223,-0.48363406911380585,0.4794924392644316
1761391576889161200,5.4581611328125,-1.283653908893466,-0.5012301507547497,0.07928352620378136
1761391576899227100,5.46822705078125,-1.2282272052258252,-0.43005153200812635,-0.2522710989560932
1761391576909293000,5.47829296875,-1.1570686794191598,-0.25713591024717314,-0.437850296125561
1761391576919359200,5.488359130859375,-1.2009358781963586,-0.1298435554168187,-0.5056769740957766
1761391576929425200,5.498425048828125,-1.212156944912672,0.035484387694112954,-0.5532510645668953
1761391576939492400,5.508492431640625,-1.2187018365114926,0.1885915307279676,-0.6196371883399784
1761391576949558300,5.518558349609375,-1.1315262418836354,0.18072390262540428,-0.7081727462094277
1761391576959624000,5.5286240234375,-0.8467740652352571,0.10240213412586599,-0.9079869510889053
1761391576969690000,5.538690185546875,-0.4365168555647135,0.03707056090701371,-1.222289339609444
1761391576979756000,5.548756103515625,-0.09024024289548396,-0.15134670923259108,-1.659838753092289
1761391576989822200,5.558822265625,0.0597089110314846,-0.4482004982914775,-2.1398585041664537
1761391576999889200,5.56888916015625,-0.09992810869514941,-0.7445210937891155,-2.5664631836563347
1761391577009956000,5.5789560546875,-0.5835328786492348,-0.9322853068474679,-2.880414274521172
1761391577020022300,5.589022216796875,-1.1517091982126235,-1.0122077154766769,-3.0226629370734095
1761391577030088200,5.599088134765625,-1.7597165929049252,-0.954732043389976,-2.977767856553197
1761391577040154000,5.609154052734375,-2.243169387167692,-0.6487867835219949,-2.704055837096274
1761391577050220300,5.61922021484375,-2.308296816116571,-0.14074563757814465,-2.1945995636574924
1761391577060286000,5.629285888671875,-2.029732388192415,0.35138803739883,-1.6518521382525562
1761391577070353200,5.639353271484375,-1.582591847282648,0.7899038847610353,-1.2296912864290177
1761391577080419000,5.649419189453125,-1.0947972244232893,1.1288643291980027,-0.8743190747648477
1761391577090485000,5.659485107421875,-0.6446200922966003,1.3326248605504631,-0.6013365386262536
1761391577100551200,5.66955126953125,-0.31130700609683987,1.4310416878998278,-0.37205797352716324
1761391577110617000,5.6796171875,-0.03575695755779743,1.522948987224698,-0.24395744411908088
1761391577120683300,5.689683349609375,0.22479893546700477,1.6814843293197452,-0.2521888275001198
1761391577130750200,5.699750244140625,0.4539017056077718,1.8684822341807186,-0.33013704997953025
1761391577140816100,5.709816162109375,0.58919280410707,1.984303785317391,-0.47379572546016424
1761391577150882300,5.71988232421875,0.6495774224430322,1.9583286554530261,-0.6940182563897221
1761391577160948000,5.729947998046875,0.7450263398975133,1.9329215347349642,-1.0096793660428374
1761391577171014100,5.74001416015625,0.8260358131110668,1.967797617805004,-1.3137423192955553
1761391577181080000,5.750080078125,1.0016378792107106,1.9984886702753601,-1.5534681902594862
1761391577191147000,5.76014697265625,1.301656598573923,2.0159569608181713,-1.7407755994610488
1761391577201213200,5.770213134765625,1.611105994105339,2.030941910112649,-1.879735595731437
1761391577211279000,5.780279052734375,1.8517425501734017,1.9579297192633152,-1.965552469226718
1761391577221345300,5.79034521484375,1.9731196896106002,1.8245824483081696,-2.0391350073099135
1761391577231411200,5.8004111328125,1.9237930563837289,1.6299999335370956,-2.02695810117349
1761391577241477400,5.810477294921875,1.777373245626688,1.4538013628490267,-1.8525547433391212
1761391577251543000,5.82054296875,1.624948056975007,1.3421606045283376,-1.5627151804238557
1761391577261610000,5.83060986328125,1.4044178848683833,1.3620073146402836,-1.2564549363225699
1761391577271676200,5.84067626953125,1.0935364107072352,1.493391030437499,-0.9647899846110493
1761391577281742000,5.8507421875,0.763231274151802,1.6502815279349683,-0.6460811778251081
1761391577291808300,5.860808349609375,0.2765682856708765,1.830221623238921,-0.3947953270466998
1761391577301874200,5.870874267578125,-0.08765607162117958,1.926217068660259,-0.12460656807878985
1761391577311940000,5.880940185546875,-0.27731530464589593,1.7869848313197492,0.26823996298769487
1761391577322007300,5.89100732421875,-0.3698737613558769,1.4608549346223472,0.6360335388023406
1761391577332073200,5.9010732421875,-0.3271130625158548,1.1439464552566407,0.8611844295121729
1761391577342139100,5.91113916015625,-0.1997568486690521,0.8857384405322373,0.8863463432975113
1761391577352205000,5.921205078125,-0.013760814327001571,0.7138618246965109,0.6339348860226571
1761391577362271000,5.93127099609375,0.2721937238484621,0.5428020416690036,0.24854875396471468
1761391577372337200,5.941337158203125,0.571383591172099,0.29273294626921414,-0.12095475843981839
1761391577382405400,5.9514052734375,0.8588812671363353,0.04294971860609948,-0.47953686292804776
1761391577392471300,5.96147119140625,1.0960738202303648,-0.15234496302232145,-0.7736109216079116
1761391577402537200,5.971537109375,1.2362059290200471,-0.3053088251279667,-1.061047003578022
1761391577412603100,5.98160302734375,1.3300088328331707,-0.44965077016502614,-1.3463605404362082
1761391577422669000,5.9916689453125,1.378811734446883,-0.65234644876495,-1.554726519757509
1761391577432735200,6.0017353515625,1.3587684788495302,-0.9376314171157777,-1.6174007103353738
1761391577442802200,6.01180224609375,1.2559060702681542,-1.2738386173218488,-1.6136618160679936
1761391577452868000,6.0218681640625,1.1274714135348796,-1.555926689327508,-1.594791842033714
1761391577462934300,6.031934326171875,1.026103627425432,-1.7445820060066877,-1.6283227941051124
1761391577473000200,6.042000244140625,0.9513163897275924,-1.9286349434569476,-1.681336299151182
1761391577483066400,6.05206640625,0.794416101488471,-2.1239833280339835,-1.690131892286241
1761391577493132000,6.062132080078125,0.49094870297610754,-2.256841646428406,-1.6661133033171296
1761391577503199200,6.07219921875,0.06999298915863036,-2.256977840028703,-1.7320470802128314
1761391577513265200,6.08226513671875,-0.2615314600586891,-2.063813083101064,-1.7558394592106341
1761391577523331000,6.0923310546875,-0.5807271735787392,-1.74496954401955,-1.518107392412424
1761391577533397200,6.102397216796875,-0.9699176298230886,-1.45495170192793,-1.080166933785379
1761391577543463200,6.112463134765625,-1.288372169587016,-1.2651203272067009,-0.5396495324548334
1761391577553529300,6.122529296875,-1.6081699406534433,-1.156441122105345,0.023301471942011265
1761391577563596300,6.13259619140625,-2.233839248764515,-1.0475467398833482,0.46017176232058554
1761391577573662200,6.142662109375,-3.0589234602391717,-0.9477114971034228,0.5441907560810446
1761391577583728400,6.152728271484375,-3.388648751080036,-0.7007352896850556,0.5368865705475211
1761391577593794000,6.1627939453125,-3.123161246871948,-0.4177631283212453,0.559449042424187
1761391577603860200,6.172860107421875,-2.5314853937774897,-0.14916520047504453,0.5438605377459899
1761391577613926100,6.182926025390625,-1.9892519092440604,0.002883912272704765,0.43124293374978
1761391577623993000,6.1929931640625,-1.7472750444829463,-0.20084946621134875,0.09400111153265461
1761391577634059300,6.203059326171875,-1.8862416166245937,-0.46791247610785064,-0.32897374182119965
1761391577644125200,6.213125244140625,-2.3427093733280895,-0.5345808508884161,-0.7543544324740767
1761391577654191400,6.22319140625,-2.999560586166382,-0.30290070454031226,-1.3146883679740131
1761391577664257300,6.23325732421875,-3.641993397551775,0.09286624401751906,-1.829548254022002
1761391577674323200,6.2433232421875,-3.9601024848788975,0.4691876106102019,-2.097562646359205
1761391577684389000,6.25338916015625,-3.767494923442602,0.7385941148929297,-2.0204165705755353
1761391577694456300,6.263456298828125,-3.0396155331790444,1.0170412000477314,-1.6920187289461492
1761391577704522200,6.273522216796875,-1.9238538466602562,1.3050520862311124,-1.2341923972405493
1761391577714588200,6.283588134765625,-0.6836825211405754,1.5228963802546263,-0.7221659810528158
1761391577724654000,6.293654052734375,0.4397615365743637,1.715732782010734,-0.28230003425590694
1761391577734720300,6.30372021484375,1.2882464973807335,1.940154408597946,-0.10950016609542071
1761391577744786200,6.3137861328125,1.9827765757501123,2.3012913212686774,-0.13504435719661415
1761391577754853400,6.323853271484375,2.541025375539064,2.6153680843397975,-0.15619630468823015
1761391577764919300,6.333919189453125,2.9833892035663125,2.718389775136113,-0.08042783740069717
1761391577774985200,6.343985107421875,3.3424832122325894,2.6381734981268643,0.12074974652016535
1761391577785051100,6.354051025390625,3.5983658527493474,2.374775367413461,0.4941838489724323
1761391577795117000,6.364116943359375,3.6692595901399847,2.025301127746701,0.9213455412905662
1761391577805183200,6.374183349609375,3.597870178186893,1.7508929427191615,1.2493639551483093
1761391577815250200,6.384250244140625,3.5033845528066156,1.6218148735158144,1.3786812399350106
1761391577825316000,6.394316162109375,3.3360867891937493,1.697138848438859,1.3323159407317637
1761391577835382300,6.40438232421875,3.1369612241655584,1.8393075776226817,1.3061992104396223
1761391577845448200,6.4144482421875,2.9416672001242636,1.8098076346330343,1.373190971955657
1761391577855514400,6.424514404296875,2.7277532312870023,1.6332000447526573,1.3660188883692026
1761391577865580300,6.434580322265625,2.443179918336868,1.5398688501045108,1.0859399642288685
1761391577875647200,6.444647216796875,2.1318612218022346,1.4177293479926882,0.6573281827002764
1761391577885713400,6.45471337890625,1.7645535115420816,1.1692223508104682,0.3258567788444459
1761391577895779000,6.464779052734375,1.1326327418208122,0.8234875168677419,0.1091578189311549
1761391577905845200,6.47484521484375,0.11622983967661857,0.33415863364581017,-0.0638803149646148
1761391577915911200,6.4849111328125,-1.0422983909010886,-0.12784828994637354,-0.21908285937514155
1761391577925977300,6.494977294921875,-2.026635006698966,-0.377147990142554,-0.3164876236051321
1761391577936044300,6.505044189453125,-2.5717934387683865,-0.4102210423786193,-0.4169045387305319
1761391577946110200,6.515110107421875,-2.585590493452549,-0.2493207429842092,-0.48183359556309874
1761391577956176400,6.52517626953125,-2.1432693355232475,-0.04357054478502832,-0.39161037686765193
1761391577966242300,6.5352421875,-1.4347159924983977,0.03440841075936332,-0.17425145520828664
1761391577976308200,6.54530810546875,-0.6104869365483522,-0.08070159457447007,0.0990543946005404
1761391577986374100,6.5553740234375,0.14073007468283175,-0.2660128615227528,0.3405331005811691
1761391577996440000,6.565440185546875,0.6969511680364608,-0.43834757812321185,0.4365108642153442
1761391578006507300,6.57550732421875,0.9720406133264302,-0.5924777075292542,0.4234137744940817
1761391578016573200,6.5855732421875,0.9945587346047162,-0.7190293635275214,0.40580585628487165
1761391578026639000,6.59563916015625,0.8269704636126756,-0.8483296241141856,0.3482487164597958
1761391578036705300,6.605705322265625,0.56024786465168,-0.9433147234492003,0.2737802623875439
1761391578046771200,6.615771240234375,0.3078384532034397,-0.9617989130362867,0.22532200949303804
1761391578056837400,6.62583740234375,0.014545827224850654,-0.9011535979375243,0.21397388233095407
1761391578066904300,6.635904296875,-0.29252105708420273,-1.011158717880398,0.08965009498260915
1761391578076970200,6.64597021484375,-0.5697171192646027,-1.1122336585231125,-0.02399893442057073
1761391578087036200,6.6560361328125,-0.7957324447840451,-1.0848653937999158,0.017185455013439058
1761391578097102000,6.66610205078125,-0.9391133262366056,-1.1119352600984274,0.11117650180980562
1761391578107168300,6.676168212890625,-1.1293494823664425,-1.049767119346559,0.10829904667735099
1761391578117234200,6.686234130859375,-1.4522528182327747,-0.9404667866721749,-0.005758490461483598
1761391578127301000,6.696301025390625,-1.7393857525378464,-0.8767899949230253,-0.22677184297516942
1761391578137367300,6.7063671875,-1.9163965163916348,-0.9251872383452951,-0.40604697156436736
1761391578147433200,6.71643310546875,-1.9791022711515425,-1.0128491551853716,-0.5233760046545416
1761391578157499400,6.72649951171875,-2.0083079073697325,-1.044064962182194,-0.5865960656121373
1761391578167565000,6.73656494140625,-2.0907138033777475,-1.0232996759206057,-0.5867985293816774
1761391578177631200,6.74663134765625,-1.9238661216199398,-0.9026985623572021,-0.49491716821566223
1761391578187697200,6.756697265625,-1.5709931794255971,-0.6892302183955907,-0.31581776151955127
1761391578197764000,6.76676416015625,-1.0948802265316246,-0.47046409681942314,-0.06988098015151918
1761391578207830300,6.776830322265625,-0.6038175417870283,-0.1947907506942749,0.09722849434763192
1761391578217896200,6.786896240234375,-0.2155646586537361,0.12327468015421181,0.014476488315686582
1761391578227962400,6.79696240234375,0.022337504014372823,0.3203376866294071,-0.21440255607180297
1761391578238028300,6.8070283203125,-0.06312661052048206,0.2752321782289073,-0.460421462765336
1761391578248094200,6.81709423828125,-0.5272936895549297,0.05144156128792092,-0.5389328355528414
1761391578258161400,6.827161376953125,-1.0909358728200196,-0.2721488252608105,-0.448892060752213
1761391578268227300,6.837227294921875,-1.6193652884066103,-0.4092111346837133,-0.40886107913702724
1761391578278293200,6.847293212890625,-2.245212291172147,-0.29925431086197496,-0.3231535112351179
1761391578288359200,6.857359130859375,-2.6954496290534733,0.025002960363961754,0.03429565283358097
1761391578298425000,6.867425048828125,-2.881606406915188,0.3477580103334039,0.5054273101836443
1761391578308491300,6.8774912109375,-2.624218622532487,0.6926226373128592,0.9242954040721059
1761391578318558200,6.88755810546875,-2.0167928271204234,1.0157138239014893,1.12068219178617
1761391578328624000,6.8976240234375,-1.3129670971393586,1.1677366422973572,1.1422855363070965
1761391578338690300,6.907690185546875,-0.5841121398419141,1.118365073950216,1.0806705724585801
1761391578348756200,6.917756103515625,0.07053951712548732,1.017162049948424,0.9157102388173342
1761391578358822100,6.927822265625,0.6315788244158029,1.0067030536457895,0.7318162182558328
1761391578368888000,6.93788818359375,1.0165537087917327,1.036455290896073,0.6313187852401286
1761391578378955300,6.947955322265625,1.296971655628085,1.0530749287202954,0.5247746924713254
1761391578389021400,6.958021484375,1.4953595540314912,1.036465008572489,0.313039894304052
1761391578399087400,6.96808740234375,1.594184669920802,1.0060916437491774,-0.07509425782039761
1761391578409153500,6.978153564453125,1.6571446917027235,0.9115167326502501,-0.540726879362762
1761391578419219200,6.98821923828125,1.7288205193817614,0.7509989845663309,-0.8639553555302322
1761391578429285400,6.998285400390625,1.7238935843735932,0.4958693543739617,-1.0198055501945316
1761391578439352300,7.008352294921875,1.5665759475052357,0.17623798938300458,-1.010046226593852
1761391578449418200,7.018418212890625,1.204825286850333,-0.04310593208111822,-0.9001182635404169
1761391578459484400,7.028484375,0.7427116332143545,-0.11851480880863964,-0.7107412084579467
1761391578469550300,7.03855029296875,0.29283962151408194,-0.07116546700410545,-0.4408654061630368
1761391578479616500,7.048616455078125,0.022857143974304196,0.07208607071405276,-0.11382087883874774
1761391578489682400,7.058682373046875,-0.09829787714481353,0.2866330950241536,0.23597879339009523
1761391578499748400,7.068748291015625,-0.07908464263081551,0.47207105709202585,0.6022575989939272
1761391578509815600,7.078815673828125,0.029033786782622334,0.5553486944332718,0.8832109678812324
1761391578519881200,7.088881103515625,0.20454759007692336,0.5144864130930975,1.0732128768637776
1761391578529947400,7.098947509765625,0.4380570707440376,0.3760421112598851,1.165313652934134
1761391578540013300,7.109013427734375,0.684807725778222,0.21478580150203777,1.2125306735958903
1761391578550079200,7.119079345703125,0.8894505929231643,0.02371107565620914,1.2315654097378252
1761391578560145400,7.1291455078125,1.0328215375036,-0.1167660289125517,1.142875245828554
1761391578570212400,7.13921240234375,1.0117126985013485,-0.21348434524834156,0.9023716684903949
1761391578580278300,7.1492783203125,0.9237164351403713,-0.32725579545479266,0.5566898799091577
1761391578590344400,7.159344482421875,0.860243203139305,-0.5026737736918032,0.25171331894285975
1761391578600410400,7.169410400390625,0.7941723558604716,-0.692901892645657,-0.02882452794611454
1761391578610476300,7.179476318359375,0.7506453488230704,-0.847049228914827,-0.23940832944735882
1761391578620542200,7.189542236328125,0.7316402041018009,-0.9384243941243737,-0.32673633815795183
1761391578630609200,7.199609130859375,0.6778712045133114,-0.9628365855209529,-0.3367968366622925
1761391578640675300,7.20967529296875,0.38707273343801496,-0.9969143578201531,-0.3791595491606742
1761391578650741200,7.2197412109375,-0.006997896063327789,-1.002928649673611,-0.3662052289109677
1761391578660807400,7.229807373046875,-0.3361111924856901,-1.016271969240904,-0.22920418468862772
1761391578670873300,7.239873291015625,-0.6152724172592162,-0.9912887730233371,-0.05256839162707329
1761391578680939500,7.249939453125,-0.7281096918880939,-0.9351263754922896,0.12907536578960715
1761391578691005400,7.26000537109375,-0.730442518749833,-0.883535888986662,0.22488420259766279
1761391578701072400,7.270072265625,-0.6696645171821117,-0.8353389173768461,0.2617495597887784
1761391578711138300,7.28013818359375,-0.6438426781833172,-0.8606402396328747,0.24782003783136605
1761391578721204200,7.290204345703125,-0.6476087527185678,-0.8906674944322556,0.1912734632883221
1761391578731270400,7.3002705078125,-0.6277320858597755,-0.8296796495061367,0.11705620749816298
1761391578741336300,7.31033642578125,-0.5922527761995792,-0.7521431861653923,0.03137508921176195
1761391578751402500,7.320402587890625,-0.5654939486116171,-0.6684831984430551,-0.10937544373720884
1761391578761469400,7.330469482421875,-0.6188029294729233,-0.6108026514340191,-0.24494857404828072
1761391578771535400,7.340535400390625,-0.7587082437694073,-0.5702402663558721,-0.32858167376369235
1761391578781601500,7.3506015625,-0.9545394434273242,-0.47919933806937187,-0.417665293969959
1761391578791667500,7.36066748046875,-1.222796996870637,-0.31350809633769094,-0.4883304102364927
1761391578801733400,7.3707333984375,-1.3548814082831144,-0.18194997382164,-0.47465259801782667
1761391578811799300,7.38079931640625,-1.1285551171183585,-0.4173246638387441,-0.444998341249302
1761391578821866200,7.3908662109375,-0.49923430076241493,-0.6103459206424653,-0.5917445344164968
1761391578831932400,7.400932373046875,0.2470265493661165,-0.3940445086793974,-0.8716267669409513
1761391578841998300,7.410998291015625,0.8136877881914377,-0.05995956132430583,-1.011835228902474
1761391578852064300,7.421064208984375,1.065544826453924,0.24513949351049957,-0.9907149186581372
1761391578862130400,7.43113037109375,0.8634545664012432,0.4915897773586213,-0.7713949991241097
1761391578872196400,7.4411962890625,0.3982330098778009,0.45374709956794973,-0.5351351237703115
1761391578882263300,7.45126318359375,-0.23673136532306668,0.31254969963431356,-0.29347331630773843
1761391578892329500,7.46132958984375,-0.9099322399377823,0.2185126217391342,-0.16432488528192044
1761391578902395100,7.47139501953125,-1.5891770708918571,0.12973748296014964,-0.15037768153734504
1761391578912461300,7.48146142578125,-2.1737533211141824,0.02435894510569051,-0.10783069851323962
1761391578922527200,7.49152734375,-2.372444586378336,-0.0032695231899619102,-0.04034289710856974
1761391578932593400,7.501593505859375,-2.0832646564155817,0.12895910073248668,0.021515227846056223
1761391578942660400,7.511660400390625,-1.4454530750900507,0.3804236508123576,0.18993899981416762
1761391578952726300,7.521726318359375,-0.7171826396822929,0.5780251480784266,0.48582003485076125
1761391578962792400,7.53179248046875,-0.036034020933508874,0.6431906440153717,0.8343263062682003
1761391578972858400,7.5418583984375,0.4429541951358318,0.6708449591383338,1.0584852633312345
1761391578982924500,7.551924560546875,0.8397849370002746,0.7068124907068908,1.1721047013137489
1761391578992990200,7.561990234375,1.1513064626306295,0.7788213497325778,1.2250332314901053
1761391579003056400,7.572056396484375,1.3320225107431412,0.8174902492143213,1.1941058860458433
1761391579013123300,7.582123291015625,1.4543477446854114,0.7376169404238462,1.1789412693355232
1761391579023189200,7.592189208984375,1.5921300754785537,0.5996285291319713,1.126994297542423
1761391579033255400,7.60225537109375,1.707493069192767,0.5093010463444516,1.027106886183843
1761391579043321300,7.6123212890625,1.6860966454207895,0.427866625717096,0.9687779582686722
1761391579053387500,7.622387451171875,1.6601988185763359,0.32552557412870226,0.7802022826969623
1761391579063453400,7.632453369140625,1.6641647995978592,0.314070954384841,0.5630382625551894
1761391579073520400,7.642520263671875,1.5246078603476285,0.23900402296278625,0.5051331860752776
1761391579083586600,7.652586669921875,1.1845517296284436,0.1510497721126303,0.3259834739640355
1761391579093652200,7.66265234375,0.790551827275753,0.15463667242238296,-0.0038300066169351336
1761391579103718400,7.672718505859375,0.4394599232792854,0.09688965431470424,-0.29413294926024974
1761391579113784300,7.682784423828125,0.14621172096431254,-0.04328596482314169,-0.44183527410849927
1761391579123850200,7.692850341796875,-0.10581541316807269,-0.18926402316205201,-0.42454833148196336
1761391579133917400,7.70291748046875,-0.268669056853652,-0.2779802165617235,-0.24012685298025607
1761391579143983400,7.7129833984375,-0.45214404828548427,-0.3033641208009794,0.0011430325552821159
1761391579154049300,7.72304931640625,-0.6761749219894408,-0.25335111274514344,0.22693470538668334
1761391579164115500,7.733115478515625,-0.79066931617558,-0.11784954069978557,0.46195641724765296
1761391579174181400,7.743181396484375,-0.7421066530585289,0.002518780171184335,0.6432488770086318
1761391579184247300,7.753247314453125,-0.5187199224770069,0.08262911030463874,0.7778392068274319
1761391579194313200,7.763313232421875,-0.22161153760254382,0.09745830278182402,0.7779953472372144
1761391579204380200,7.773380126953125,0.1403232474476099,0.02978290409989422,0.691018270856142
1761391579214446300,7.7834462890625,0.5153893167495728,-0.11040227516745217,0.5706083690159023
1761391579224512300,7.79351220703125,0.7822381724387407,-0.230353519120533,0.42021885091029104
1761391579234578400,7.803578369140625,0.8591250127643346,-0.2806510980051011,0.32200664275493474
1761391579244644400,7.813644287109375,0.5735030675441026,-0.2241195931670256,0.28992413592617955
1761391579254710500,7.82371044921875,0.06418868679404259,-0.11783460799213498,0.26254841854888944
1761391579264777500,7.833777587890625,-0.3131663702279329,-0.057780692048417404,0.3999933340812102
1761391579274843400,7.843843505859375,-0.5391127221643924,-0.04848987187547609,0.5087290916753933
1761391579284909300,7.853909423828125,-0.6508826598227023,-0.1397814504547976,0.5452820219164713
1761391579294975200,7.863975341796875,-0.5920359185785055,-0.2780797679460607,0.5720632439993322
1761391579305041400,7.87404150390625,-0.40457507238090035,-0.4034195091376081,0.5738407020006329
1761391579315107300,7.884107421875,-0.16233984894454478,-0.5310774824099614,0.5760021543508396
1761391579325174300,7.89417431640625,0.07144961770772934,-0.6511966211427003,0.5175304934967309
1761391579335240400,7.904240478515625,0.306418649533391,-0.7744226033169775,0.3163121574403718
1761391579345306400,7.914306396484375,0.4671235907524824,-0.9348372563526034,0.12802403010576963
1761391579355372500,7.92437255859375,0.5145055196523666,-1.114486917342618,0.005337780831381678
1761391579365438500,7.9344384765625,0.47881695115566253,-1.2574692279316484,0.03491871663536876
1761391579375504100,7.944504150390625,0.09960603713393211,-1.292284228464216,0.11501578771173954
1761391579385570600,7.954570556640625,-0.5264496399462223,-1.104273420233652,0.21292623644154518
1761391579395636500,7.964636474609375,-1.009531262809038,-0.6734671243354677,0.4582264734717086
1761391579405702700,7.97470263671875,-1.3281523913115263,-0.26090919997449963,0.7366850664012133
1761391579415768600,7.9847685546875,-1.4345862286388873,0.014254150801897049,1.0966164026744663
1761391579425834800,7.994834716796875,-1.4132541022747753,0.2663297637185082,1.3504106926098465
1761391579435900700,8.004900634765624,-1.2875666984230278,0.493200171697326,1.4534201084464788
1761391579445966800,8.014966796875,-1.061811485144496,0.5770190763084218,1.4034882028028368
1761391579456033800,8.02503369140625,-0.8052788562864065,0.49411293916068966,1.2951041081905363
1761391579466099700,8.035099609375,-0.516446132326126,0.3821392225585878,0.9661101272989064
1761391579476165600,8.04516552734375,-0.27636487205326554,0.5483912399781867,0.32237492807805535
1761391579486231600,8.0552314453125,0.006263736569881439,0.7072580425173044,-0.34549174590185283
1761391579496297500,8.06529736328125,0.16781331191956997,0.6860341988332569,-0.76420720651187
1761391579506363600,8.07536376953125,0.0049719431936740876,0.3430856346081942,-0.7904705056678504
1761391579516430600,8.0854306640625,-0.44415071144402024,0.02066662992639467,-0.5120695246770978
1761391579526496800,8.095496826171875,-1.042144661644101,-0.03882577054388821,-0.15210487065613268
1761391579536562700,8.105562744140625,-1.6895365567415952,0.08913257391452789,0.2393704085897654
1761391579546628600,8.115628662109375,-2.146898047414422,0.41829168223999436,0.6247877029709518
1761391579556694800,8.12569482421875,-2.349320315900445,0.7012924851763993,1.0999831756938248
1761391579566760400,8.135760498046874,-2.3251316310614345,1.0948197285160421,1.580575831285119
1761391579576827600,8.14582763671875,-1.9471809462338685,1.3207878538928925,1.9426326352797447
1761391579586893600,8.1558935546875,-1.2505173629671333,1.3194791093818843,2.0811124468177558
1761391579596959500,8.16595947265625,-0.545762243181467,1.3155261339724063,2.0264875610522926
1761391579607025700,8.176025634765624,-0.004969020584225654,1.2475465304628013,1.7481994658514857
1761391579617091600,8.186091552734375,0.26473580905795097,1.1500021020337938,1.3102423483505845
1761391579627157800,8.19615771484375,0.3568769171386957,1.0539929203480483,0.8550253223605453
1761391579637224700,8.206224609375,0.41549861745536326,0.8908529340017587,0.5016173965066671
1761391579647290600,8.21629052734375,0.5471224256187677,0.7064981640607119,0.17017280759252607
1761391579657356800,8.226356689453125,0.8235860818713903,0.5129008974673226,-0.15607304363474248
1761391579667422500,8.23642236328125,1.055352518263459,0.292356185378693,-0.35906522096320986
1761391579677488600,8.246488525390625,1.1827268522888421,0.05844128398215398,-0.5340850301954895
1761391579687554600,8.256554443359375,1.108061195144057,-0.16512160688387229,-0.7212377602919936
1761391579697620700,8.266620849609374,0.874747529309988,-0.3385881770584732,-0.8645905116286128
1761391579707687700,8.276687744140625,0.6561755055338144,-0.37624490382298825,-0.914497867352888
1761391579717753600,8.286753662109374,0.36665187669992444,-0.33726511176116764,-0.9135944887723774
1761391579727819800,8.29681982421875,0.03693652273118496,-0.2547065459420904,-0.7906368021454662
1761391579737885700,8.3068857421875,-0.22844576753675935,-0.11687195523874834,-0.5308761511515826
1761391579747951900,8.316951904296875,-0.4625877008885145,0.00993703652145341,-0.16989589034728705
1761391579758017500,8.327017578125,-0.7489239318579435,0.18006744801066815,0.1856237669635564
1761391579768084500,8.33708447265625,-1.2781073806822298,0.44107619936950504,0.43474319695569574
1761391579778150700,8.347150634765624,-1.6551561482340096,0.6973074341282248,0.7313358143277466
1761391579788216600,8.357216552734375,-1.5375906760394573,1.0130464313231409,1.036418977473676
1761391579798282500,8.367282470703126,-1.0933452720493078,1.2712801650106906,1.2216709154501557
1761391579808348700,8.3773486328125,-0.35860476384460926,1.514158508656174,1.2595574323825538
1761391579818414600,8.38741455078125,0.4761766657799482,1.62059687602818,1.2493952270694075
1761391579828481800,8.397481689453125,1.1421429129660128,1.5535475391060114,1.1536489341035485
1761391579838547700,8.407547607421876,1.6157903525292872,1.3555791812889277,0.9933707669291645
1761391579848613600,8.417613525390625,1.7788813121020792,1.1202904890548437,0.909563041299209
1761391579858679600,8.427679443359375,1.5533587385356424,0.8123613618932664,0.814742850202322
1761391579868745500,8.437745361328124,1.2975222752481699,0.4947133527392521,0.5838211940713226
1761391579878811600,8.447811767578125,1.2226526199638843,0.32844153464064,0.3338106604583561
1761391579888878600,8.457878662109374,1.263916358244419,0.1761724498661235,0.18435425848439335
1761391579898944500,8.467944580078125,1.3777631021767853,-0.07081210525548085,0.02691080327928066
1761391579909010700,8.4780107421875,1.4059353036940097,-0.2843973718613386,-0.06942666051276028
1761391579919076600,8.48807666015625,1.2706231624066828,-0.47431240627802906,-0.08544073365926742
1761391579929142800,8.498142822265624,1.0106780947566032,-0.5313685377784073,-0.07343531163223087
1761391579939208700,8.508208740234375,0.376382412597537,-0.5854417079452425,-0.05330846940465271
1761391579949275600,8.518275634765626,-0.2724164266884327,-0.5153946870444343,-0.03211355955414474
1761391579959341600,8.528341552734375,-0.657809828737378,-0.41655492157526314,0.04846227148249745
1761391579969407500,8.538407470703126,-0.8108376594573259,-0.32726262705437836,0.16891389357261358
1761391579979473700,8.5484736328125,-0.8293634962290525,-0.2322812540464103,0.3240693839710206
1761391579989539600,8.55853955078125,-0.7969470812708139,-0.16019764928407967,0.44067214861325915
1761391579999605800,8.568605712890625,-0.8211515482008457,-0.13118719771127216,0.45354931197352705
1761391580009671700,8.578671630859375,-0.7207108138084412,-0.03819041808268521,0.47149442624785004
1761391580019738600,8.588738525390625,-0.5508066670894622,0.15893519160021097,0.5436751347091049
1761391580029804800,8.5988046875,-0.5783639515787363,0.2505723870131187,0.6145231332618742
1761391580039870700,8.60887060546875,-0.5800064580887556,0.45856447325441985,0.7491356749124825
1761391580049936600,8.6189365234375,-0.7081523610085249,0.6148797646798193,0.9433088051650672
1761391580060002600,8.62900244140625,-0.911101868239045,0.7535634282268583,1.0507296807684003
1761391580070068500,8.639068359375,-0.9444383206516503,0.9913590617805719,1.0879957277148962
1761391580080135700,8.6491357421875,-0.8820189816176891,1.192944806377217,1.060862952248007
1761391580090201600,8.65920166015625,-0.8168868764936924,1.3581203902043402,0.9212281254559754
1761391580100267800,8.669267822265626,-0.7707441339999437,1.4232381745420395,0.8298250493261963
1761391580110333700,8.679333740234375,-0.7980629335582256,1.2296385333284734,0.8187489440385252
1761391580120399600,8.689399658203126,-0.8214303651422261,0.9611121728811413,0.8093870222575962
1761391580130465800,8.6994658203125,-0.7913403473049402,0.8705001740638166,0.7346905315831304
1761391580140532700,8.70953271484375,-0.6259136382609606,0.848966095386818,0.6386462785840034
1761391580150598400,8.719598388671875,-0.48589901837110516,0.868835382656753,0.6319277109187096
1761391580160664600,8.72966455078125,-0.2723977219879627,0.9051371876809745,0.6519343608327209
1761391580170730500,8.73973046875,0.04968845227658748,0.9291200477495789,0.719122083312273
1761391580180796700,8.749796630859375,0.339209158501029,0.8502321697998791,0.7400300659801811
1761391580190862600,8.759862548828124,0.45797874578833575,0.6632290042418986,0.7532448637969792
1761391580200929500,8.769929443359375,0.43048225157558917,0.5738944049492478,0.6970660996530205
1761391580210995700,8.77999560546875,0.2955424507319927,0.5902589355012402,0.5705251477118581
1761391580221061600,8.7900615234375,0.18719956491291523,0.6401598249521107,0.5545034757807851
1761391580231127800,8.8001279296875,0.04798574001193046,0.736824621002376,0.5658629280544817
1761391580241193500,8.810193359375,-0.11541618520617485,0.8271641595538705,0.5798497331570833
1761391580251259600,8.820259765625,-0.32965514821410175,0.8954530482083558,0.5949168808422982
1761391580261326600,8.83032666015625,-0.5388648848831653,0.9429669329248368,0.5841958360699936
1761391580271392500,8.840392578125,-0.6021043081283569,0.8782178357690572,0.6496918426029383
1761391580281458700,8.850458740234375,-0.47903848495185375,0.7691785651836544,0.7383906282100826
1761391580291524600,8.860524658203126,-0.1921446200996637,0.7086394869383424,0.7916130998317151
1761391580301590800,8.8705908203125,0.1475473534822464,0.5130735871531069,0.9227023627270012
1761391580311656700,8.88065673828125,0.9349638053417205,0.4584077117901295,1.1724882938038557
1761391580321722600,8.89072265625,1.3845295275717973,0.8193290089488029,1.6642533546641467
1761391580331789800,8.900789794921875,1.3704133239358662,1.0704610208723693,2.0426221187733113
1761391580341855500,8.91085546875,1.0881576402783393,1.2661962858751414,2.006095492017269
1761391580351921700,8.920921630859375,0.7555494874775409,1.410855662830919,1.978157683777809
1761391580361987600,8.930987548828124,0.19947218650877474,1.3088045706324278,1.9019567798897623
1761391580372053500,8.941053466796875,-0.410482250598073,1.2784081171944737,1.6301783588439225
1761391580382119200,8.951119140625,-0.6226525906383991,1.4951717763744294,1.4963127631030977
