time,seconds_elapsed,z,y,x
1761391571503765000,0.072764892578125,2.6102263927459717,-1.2005741596221924,0.8416401743888855
1761391571513831200,0.0828310546875,2.510960817337036,-0.8625109195709229,0.8258687257766724
1761391571523897000,0.09289697265625,2.441530704498291,-0.48999515175819397,0.7447773218154907
1761391571533963300,0.10296337890625,2.3945138454437256,-0.1467970758676529,0.5929374694824219
1761391571544030200,0.1130302734375,2.3707995414733887,0.10518404096364975,0.40898358821868896
1761391571554096000,0.12309619140625,2.3464362621307373,0.26485690474510193,0.23070849478244781
1761391571564162300,0.133162353515625,2.3139359951019287,0.309233695268631,0.0986388772726059
1761391571574228200,0.143228271484375,2.2633790969848633,0.2697254717350006,0.058496467769145966
1761391571584294400,0.15329443359375,2.2079946994781494,0.2662985324859619,0.12212338298559189
1761391571594360000,0.163360107421875,2.155975818634033,0.2971034348011017,0.24654610455036163
1761391571604427300,0.17342724609375,2.1082417964935303,0.34608855843544006,0.3836301565170288
1761391571614493200,0.1834931640625,2.071577548980713,0.38002753257751465,0.4864887297153473
1761391571624559000,0.19355908203125,2.04278564453125,0.383964478969574,0.5251032114028931
1761391571634625300,0.203625244140625,2.01200270652771,0.35442423820495605,0.4872678220272064
1761391571644691200,0.213691162109375,1.9895838499069214,0.28880181908607483,0.40569785237312317
1761391571654757400,0.22375732421875,1.9815149307250977,0.18968793749809265,0.30063021183013916
1761391571664824300,0.23382421875,1.9838931560516357,0.09767332673072815,0.23792344331741333
1761391571674890200,0.24389013671875,1.9869513511657715,0.059158794581890106,0.22976912558078766
1761391571684956400,0.253956298828125,1.9665908813476562,0.035135749727487564,0.24684929847717285
1761391571695022000,0.26402197265625,1.9318692684173584,0.01847006380558014,0.25814104080200195
1761391571705088300,0.274088134765625,1.901274561882019,0.024393733590841293,0.24067151546478271
1761391571715154200,0.284154296875,1.8938039541244507,0.06196562945842743,0.21471862494945526
1761391571725221000,0.29422119140625,1.9147486686706543,0.10736159980297089,0.19272278249263763
1761391571735287300,0.304287353515625,1.959915280342102,0.1449642926454544,0.18682235479354858
1761391571745353200,0.314353271484375,2.0027921199798584,0.15043522417545319,0.19146184623241425
1761391571755419100,0.324419189453125,2.0388808250427246,0.1402592957019806,0.1942473202943802
1761391571765485300,0.3344853515625,2.0699925422668457,0.1116044819355011,0.19142915308475494
1761391571775551200,0.34455126953125,2.11102032661438,0.1332622915506363,0.17627598345279694
1761391571785618400,0.354618408203125,2.1645894050598145,0.1752646118402481,0.16041259467601776
1761391571795684400,0.364684326171875,2.2088334560394287,0.199338898062706,0.15964609384536743
1761391571805750000,0.37475,2.231351852416992,0.22633004188537598,0.18464039266109467
1761391571815816200,0.384816162109375,2.220787286758423,0.24568282067775726,0.21418048441410065
1761391571825882000,0.394882080078125,2.1952061653137207,0.23656229674816132,0.25452443957328796
1761391571835948300,0.4049482421875,2.17018985748291,0.21136882901191711,0.28929582238197327
1761391571846015200,0.41501513671875,2.1438024044036865,0.17930278182029724,0.328574538230896
1761391571856081200,0.4250810546875,2.1126186847686768,0.12264906615018845,0.33750981092453003
1761391571866147300,0.435147216796875,2.0703084468841553,0.06051646173000336,0.3061918318271637
1761391571876213200,0.445213134765625,2.01810622215271,0.007269890978932381,0.24180343747138977
1761391571886279200,0.455279052734375,1.9532160758972168,-0.03905259817838669,0.1645943969488144
1761391571896345000,0.465344970703125,1.8838043212890625,-0.10490772873163223,0.09602896869182587
1761391571906412000,0.475412109375,1.8089008331298828,-0.17688284814357758,0.03737683966755867
1761391571916478200,0.485478271484375,1.7376443147659302,-0.21127426624298096,0.022709226235747337
1761391571926544100,0.495544189453125,1.670650601387024,-0.21827678382396698,0.05291692912578583
1761391571936610300,0.5056103515625,1.6118427515029907,-0.22245340049266815,0.1158728078007698
1761391571946676200,0.51567626953125,1.541000247001648,-0.2604079842567444,0.18355998396873474
1761391571956742400,0.525742431640625,1.4347918033599854,-0.4145362973213196,0.2160755842924118
1761391571966809300,0.535809326171875,1.3038303852081299,-0.6447985172271729,0.22470475733280182
1761391571976875300,0.545875244140625,1.1581761837005615,-0.7936078310012817,0.2311428189277649
1761391571986941400,0.55594140625,0.9971379637718201,-0.7588663101196289,0.24868853390216827
1761391571997007000,0.566007080078125,0.8512731194496155,-0.5413268804550171,0.28010258078575134
1761391572007073300,0.5760732421875,0.748429000377655,-0.2066599428653717,0.303968220949173
1761391572017139200,0.58613916015625,0.7094374299049377,0.18246524035930634,0.3144364058971405
1761391572027206100,0.5962060546875,0.7361108660697937,0.5309856534004211,0.2758362591266632
1761391572037272300,0.606272216796875,0.8233147263526917,0.7724869847297668,0.18875694274902344
1761391572047338200,0.616338134765625,0.9474737048149109,0.9207140207290649,0.08760607987642288
1761391572057404200,0.626404052734375,1.0869579315185547,0.9486594200134277,-0.008275159634649754
1761391572067470300,0.63647021484375,1.2164720296859741,0.7849833965301514,-0.09568516165018082
1761391572077536000,0.646535888671875,1.3176711797714233,0.5041840672492981,-0.15660321712493896
1761391572087603500,0.656603515625,1.368105411529541,0.23344847559928894,-0.17279018461704254
1761391572097669000,0.666669189453125,1.3682571649551392,-0.0019663432613015175,-0.13571804761886597
1761391572107735000,0.676735107421875,1.3322129249572754,-0.17239826917648315,-0.04245467483997345
1761391572117801200,0.68680126953125,1.2857283353805542,-0.2078048437833786,0.11114810407161713
1761391572127867100,0.6968671875,1.251797080039978,-0.07826682925224304,0.2953791916370392
1761391572137933300,0.706933349609375,1.2363189458847046,0.09680556505918503,0.4534764885902405
1761391572148000300,0.717000244140625,1.2279108762741089,0.22390972077846527,0.5364307761192322
1761391572158066200,0.727066162109375,1.2320653200149536,0.29117628931999207,0.5399612188339233
1761391572168132400,0.73713232421875,1.2279167175292969,0.3172302544116974,0.4672003984451294
1761391572178198300,0.7471982421875,1.206591010093689,0.24787425994873047,0.33514657616615295
1761391572188264200,0.75726416015625,1.155882716178894,0.08643636107444763,0.163030743598938
1761391572198330000,0.767330078125,1.0998293161392212,-0.07514992356300354,-0.03401738032698631
1761391572208397000,0.77739697265625,1.0655062198638916,-0.18333977460861206,-0.2235226035118103
1761391572218463200,0.787463134765625,1.0590859651565552,-0.24234022200107574,-0.3771839141845703
1761391572228529200,0.797529052734375,1.0647478103637695,-0.24678556621074677,-0.45652881264686584
1761391572238595300,0.80759521484375,1.0718505382537842,-0.14227961003780365,-0.4716954529285431
1761391572248661200,0.8176611328125,1.0718352794647217,0.0462021641433239,-0.43917587399482727
1761391572258727400,0.8277275390625,1.0635547637939453,0.26945823431015015,-0.3812640905380249
1761391572268793000,0.83779296875,1.0541013479232788,0.47870972752571106,-0.3071054220199585
1761391572278860300,0.8478603515625,1.055368423461914,0.6563546061515808,-0.23345282673835754
1761391572288926200,0.85792626953125,1.0649904012680054,0.7599268555641174,-0.18652285635471344
1761391572298992000,0.8679921875,1.0714408159255981,0.7598760724067688,-0.1746104210615158
1761391572309058300,0.878058349609375,1.0595171451568604,0.6624088883399963,-0.20253925025463104
1761391572319124200,0.888124267578125,1.0323984622955322,0.5225828886032104,-0.23935510218143463
1761391572329190100,0.898190185546875,0.9951629638671875,0.4161376655101776,-0.25633037090301514
1761391572339257300,0.90825732421875,0.9474577903747559,0.29524853825569153,-0.23908744752407074
1761391572349323300,0.9183232421875,0.8777000904083252,0.18809634447097778,-0.16288596391677856
1761391572359389200,0.92838916015625,0.7971482872962952,0.16742601990699768,-0.05548034980893135
1761391572369455400,0.938455322265625,0.7403257489204407,0.2065657079219818,0.057857394218444824
1761391572379521300,0.948521240234375,0.7302532196044922,0.306953102350235,0.16225716471672058
1761391572389587500,0.95858740234375,0.7631381750106812,0.3956446051597595,0.2161792516708374
1761391572399654400,0.968654296875,0.8256712555885315,0.45998987555503845,0.19107583165168762
1761391572409720300,0.97872021484375,0.8799017667770386,0.4922141134738922,0.10847016423940659
1761391572419786500,0.988786376953125,0.9077121615409851,0.4707484245300293,0.005942912306636572
1761391572429852400,0.998852294921875,0.8896980285644531,0.456835001707077,-0.07974935322999954
1761391572439918600,1.008918701171875,0.8325291872024536,0.447616845369339,-0.14440575242042542
1761391572449984500,1.018984619140625,0.7664865255355835,0.36866238713264465,-0.12118671089410782
1761391572460051500,1.029051513671875,0.7365887761116028,0.34407585859298706,-0.03963097929954529
1761391572470117600,1.03911767578125,0.7346643805503845,0.3922785222530365,0.028694549575448036
1761391572480183300,1.049183349609375,0.7446613311767578,0.5054489374160767,0.07803665846586227
1761391572490249500,1.05924951171875,0.7461340427398682,0.5543065071105957,0.1489505171775818
1761391572500315400,1.0693154296875,0.7054415941238403,0.280282586812973,0.10874731838703156
1761391572510381600,1.079381591796875,0.593835711479187,0.10656008124351501,0.05551259219646454
1761391572520448500,1.089448486328125,0.4903585910797119,0.05425100028514862,-0.018338248133659363
1761391572530514400,1.099514404296875,0.43082520365715027,0.030979763716459274,-0.11872263997793198
1761391572540580600,1.10958056640625,0.4142022430896759,0.0738099217414856,-0.20971275866031647
1761391572550646500,1.119646484375,0.4004765748977661,0.11216236650943756,-0.28616708517074585
1761391572560712400,1.12971240234375,0.38618409633636475,0.1046932265162468,-0.3034944236278534
1761391572570778400,1.1397783203125,0.37582361698150635,0.08462550491094589,-0.21203987300395966
1761391572580845300,1.14984521484375,0.39842504262924194,0.12506891787052155,-0.053194329142570496
1761391572590911500,1.159911376953125,0.4866150915622711,0.24963000416755676,0.16113314032554626
1761391572600977400,1.169977294921875,0.601681649684906,0.34495022892951965,0.35959020256996155
1761391572611043300,1.180043212890625,0.6974262595176697,0.27998775243759155,0.5172797441482544
1761391572621109500,1.190109619140625,0.7644473910331726,0.12664607167243958,0.6196540594100952
1761391572631175400,1.200175537109375,0.7833475470542908,-0.1437217742204666,0.6484566330909729
1761391572641242600,1.21024267578125,0.7490038275718689,-0.4895573854446411,0.5935955047607422
1761391572651308500,1.22030859375,0.6560949087142944,-0.8066788911819458,0.47639164328575134
1761391572661374500,1.23037451171875,0.5239473581314087,-0.9919767379760742,0.33211690187454224
1761391572671440400,1.2404404296875,0.378945916891098,-0.9673547744750977,0.19933992624282837
1761391572681506300,1.25050634765625,0.23013050854206085,-0.7723358273506165,0.09443317353725433
1761391572691572500,1.260572509765625,0.1001722514629364,-0.501603901386261,0.07750345766544342
1761391572701639400,1.270639404296875,0.026161666959524155,-0.14966171979904175,0.12203413248062134
1761391572711705300,1.280705322265625,0.01614897884428501,0.22869810461997986,0.17376764118671417
1761391572721771500,1.290771484375,0.06390513479709625,0.5384891629219055,0.22437134385108948
1761391572731837400,1.30083740234375,0.1467619389295578,0.7009864449501038,0.26504233479499817
1761391572741903600,1.310903564453125,0.23778295516967773,0.7488291263580322,0.3084867298603058
1761391572751969500,1.320969482421875,0.3477368652820587,0.656562328338623,0.3507516086101532
1761391572762035500,1.331035400390625,0.4598754048347473,0.3837236166000366,0.36962392926216125
1761391572772102400,1.341102294921875,0.575267493724823,0.02435053512454033,0.377787321805954
1761391572782168300,1.351168212890625,0.6711196899414062,-0.33866530656814575,0.38944515585899353
1761391572792234500,1.361234375,0.7500102519989014,-0.6524157524108887,0.38768693804740906
1761391572802300400,1.371300537109375,0.7973667979240417,-0.8583642244338989,0.38639506697654724
1761391572812366600,1.38136669921875,0.8298384547233582,-0.9450599551200867,0.3980906307697296
1761391572822432500,1.3914326171875,0.8370375633239746,-0.8934859037399292,0.4008846879005432
1761391572832499500,1.40149951171875,0.8176175355911255,-0.7587099671363831,0.36813393235206604
1761391572842565600,1.411565673828125,0.7803688645362854,-0.6313318610191345,0.2856956720352173
1761391572852631600,1.421631591796875,0.7398843169212341,-0.5415217876434326,0.19472181797027588
1761391572862697500,1.431697509765625,0.6974565386772156,-0.4583580493927002,0.12880705296993256
1761391572872763400,1.441763427734375,0.6528366208076477,-0.39485204219818115,0.1233007088303566
1761391572882829300,1.451829345703125,0.5943372249603271,-0.3161200284957886,0.15916982293128967
1761391572892896500,1.461896484375,0.5317923426628113,-0.2528529167175293,0.20143499970436096
1761391572902962400,1.47196240234375,0.4581122398376465,-0.1832592934370041,0.21016761660575867
1761391572913028400,1.4820283203125,0.38723671436309814,-0.12258449196815491,0.1659138798713684
1761391572923094500,1.492094482421875,0.31878238916397095,-0.0731038823723793,0.08957447856664658
1761391572933160400,1.502160400390625,0.2559370994567871,-0.00010078120976686478,0.012032818049192429
1761391572943226600,1.5122265625,0.2000274807214737,0.07501417398452759,-0.060053251683712006
1761391572953293600,1.52229345703125,0.15061412751674652,0.10155843198299408,-0.14722436666488647
1761391572963359200,1.532359130859375,0.11704735457897186,0.10560079663991928,-0.22314761579036713
1761391572973425400,1.54242529296875,0.10632254183292389,0.09396784007549286,-0.2733322083950043
1761391572983491300,1.5524912109375,0.1125374585390091,0.0838320404291153,-0.307460755109787
1761391572993557500,1.5625576171875,0.12854598462581635,0.05870165675878525,-0.3349989056587219
1761391573003623400,1.57262353515625,0.15800775587558746,0.019776660948991776,-0.3690650761127472
1761391573013690400,1.5826904296875,0.19756820797920227,-0.04217565432190895,-0.39462849497795105
1761391573023756500,1.592756591796875,0.24759767949581146,-0.10733777284622192,-0.39253872632980347
1761391573033822500,1.602822509765625,0.28321772813796997,-0.19271552562713623,-0.34696483612060547
1761391573043888600,1.612888671875,0.2939789891242981,-0.2832622528076172,-0.2662276029586792
1761391573053954300,1.622954345703125,0.28147146105766296,-0.34666386246681213,-0.17488251626491547
1761391573064020500,1.6330205078125,0.25413286685943604,-0.3566865921020508,-0.09754634648561478
1761391573074087400,1.64308740234375,0.2296198159456253,-0.30544230341911316,-0.04230226203799248
1761391573084153300,1.6531533203125,0.20999427139759064,-0.22098678350448608,-0.022969085723161697
1761391573094219500,1.663219482421875,0.20269320905208588,-0.11422492563724518,-0.019649457186460495
1761391573104285400,1.673285400390625,0.2174142450094223,-0.02873503789305687,-0.011558817699551582
1761391573114351600,1.6833515625,0.24173450469970703,0.0019086245447397232,0.031446170061826706
1761391573124417500,1.69341748046875,0.2737317383289337,-0.0006663119420409203,0.13051460683345795
1761391573134484500,1.703484375,0.29578402638435364,-0.06863843649625778,0.24932248890399933
1761391573144550700,1.713550537109375,0.319955050945282,-0.17779913544654846,0.354478657245636
1761391573154616300,1.7236162109375,0.32950565218925476,-0.282026469707489,0.42929962277412415
1761391573164682500,1.7336826171875,0.317449152469635,-0.364820271730423,0.466754287481308
1761391573174748400,1.74374853515625,0.28254202008247375,-0.39843788743019104,0.45765161514282227
1761391573184814300,1.753814453125,0.2619940936565399,-0.37752455472946167,0.42147594690322876
1761391573194880500,1.763880615234375,0.25805553793907166,-0.35441842675209045,0.38639146089553833
1761391573204947500,1.773947509765625,0.22777783870697021,-0.3402547240257263,0.3522462844848633
1761391573215013600,1.784013671875,0.1332220435142517,-0.4186811149120331,0.2725487947463989
1761391573225079600,1.79407958984375,-0.010484836995601654,-0.5599603056907654,0.13597962260246277
1761391573235145500,1.8041455078125,-0.1854928582906723,-0.6740347146987915,-0.0503590852022171
1761391573245211400,1.81421142578125,-0.3831873834133148,-0.7036775946617126,-0.2668967545032501
1761391573255277300,1.82427734375,-0.57143235206604,-0.6132115721702576,-0.4720805287361145
1761391573265344300,1.83434423828125,-0.7185546159744263,-0.46493545174598694,-0.6343020796775818
1761391573275410400,1.844410400390625,-0.7834257483482361,-0.34412699937820435,-0.7048263549804688
1761391573285476400,1.854476318359375,-0.7654765248298645,-0.20896589756011963,-0.6680982112884521
1761391573295542500,1.86454248046875,-0.6827022433280945,-0.07433218508958817,-0.5426840782165527
1761391573305608400,1.8746083984375,-0.5516631007194519,0.03394109010696411,-0.3469722867012024
1761391573315674600,1.884674560546875,-0.36623337864875793,0.17288991808891296,-0.10347679257392883
1761391573325741600,1.894741455078125,-0.14694824814796448,0.30164653062820435,0.15756337344646454
1761391573335807500,1.904807373046875,0.05901690945029259,0.35846853256225586,0.38807567954063416
1761391573345873400,1.914873291015625,0.1889907270669937,0.31266143918037415,0.550506055355072
1761391573355939300,1.924939208984375,0.2573958933353424,0.1732116937637329,0.6486808061599731
1761391573366005500,1.935005615234375,0.2976472079753876,-0.005819510668516159,0.7016847133636475
1761391573376072000,1.945072021484375,0.3093304932117462,-0.19389115273952484,0.699475884437561
1761391573386139000,1.955138916015625,0.28627243638038635,-0.3493804633617401,0.6639999747276306
1761391573396205000,1.965205078125,0.22440534830093384,-0.4648151993751526,0.5819461345672607
1761391573406270700,1.975270751953125,0.1281861662864685,-0.5582541227340698,0.45452064275741577
1761391573416337000,1.9853369140625,0.003341707866638899,-0.6286004185676575,0.2905556559562683
1761391573426402800,1.99540283203125,-0.14199022948741913,-0.6514583230018616,0.10356039553880692
1761391573436468700,2.00546875,-0.28268396854400635,-0.5951087474822998,-0.0661625936627388
1761391573446535000,2.015534912109375,-0.4101563096046448,-0.4537096917629242,-0.19665126502513885
1761391573456601900,2.025601806640625,-0.4923635721206665,-0.26217541098594666,-0.2835659086704254
1761391573466667800,2.035667724609375,-0.521711528301239,-0.05731213837862015,-0.3226008117198944
1761391573476734000,2.04573388671875,-0.4984903335571289,0.139248326420784,-0.31753575801849365
1761391573486800000,2.0557998046875,-0.4495736360549927,0.29884782433509827,-0.2925490140914917
1761391573496865800,2.06586572265625,-0.3855624198913574,0.3778771162033081,-0.2579399049282074
1761391573506931700,2.075931640625,-0.2935270369052887,0.35721173882484436,-0.21493951976299286
1761391573516998700,2.08599853515625,-0.16850627958774567,0.3015820384025574,-0.1629314422607422
1761391573527064800,2.09606494140625,-0.059030093252658844,0.21460939943790436,-0.10583863407373428
1761391573537130800,2.106130859375,0.016889704391360283,0.1008593887090683,-0.05668279901146889
1761391573547197000,2.116197021484375,0.048473089933395386,0.030642662197351456,-0.011185821145772934
1761391573557262800,2.126262939453125,0.045381687581539154,0.008345612324774265,0.02571600303053856
1761391573567329000,2.1363291015625,0.015223760157823563,0.0045500220730900764,0.02782711759209633
1761391573577396000,2.14639599609375,-0.030742933973670006,0.04010854661464691,-0.017821062356233597
1761391573587462000,2.1564619140625,-0.07543013244867325,0.09329968690872192,-0.09965820610523224
1761391573597527800,2.16652783203125,-0.11803591251373291,0.12896765768527985,-0.22468535602092743
1761391573607593700,2.17659375,-0.1552547961473465,0.11612281948328018,-0.3653889298439026
1761391573617660000,2.186659912109375,-0.17244736850261688,0.07666169106960297,-0.4902650713920593
1761391573627725800,2.196725830078125,-0.17677447199821472,0.030063563957810402,-0.5730901956558228
1761391573637792800,2.206792724609375,-0.18034136295318604,-0.03290192410349846,-0.5997351408004761
1761391573647859000,2.21685888671875,-0.1858871728181839,-0.0727347880601883,-0.5853419899940491
1761391573657924900,2.2269248046875,-0.1853548139333725,-0.05160420387983322,-0.5328550934791565
1761391573667991000,2.236990966796875,-0.1909949630498886,0.007930545136332512,-0.4737602174282074
1761391573678057000,2.247056884765625,-0.20911511778831482,0.0737905204296112,-0.4145549535751343
1761391573688122600,2.25712255859375,-0.2429870069026947,0.12726184725761414,-0.36591479182243347
1761391573698189800,2.26718994140625,-0.2678619921207428,0.15895052254199982,-0.32480117678642273
1761391573708255700,2.277255859375,-0.28106170892715454,0.1467934250831604,-0.2874600887298584
1761391573718322000,2.287322021484375,-0.28468838334083557,0.11409273743629456,-0.24362896382808685
1761391573728387800,2.297387939453125,-0.2741576135158539,0.06800815463066101,-0.18952293694019318
1761391573738453800,2.307453857421875,-0.2686118483543396,0.01418966893106699,-0.14505267143249512
1761391573748520000,2.31752001953125,-0.26609981060028076,-0.04486335068941116,-0.11803536117076874
1761391573758587000,2.3275869140625,-0.2686404585838318,-0.09489881992340088,-0.09702328592538834
1761391573768652800,2.33765283203125,-0.2628591060638428,-0.11251063644886017,-0.06901440769433975
1761391573778719000,2.347718994140625,-0.25084370374679565,-0.05039454251527786,-0.01766120456159115
1761391573788784600,2.35778466796875,-0.23065045475959778,0.06926590204238892,0.06298137456178665
1761391573798850800,2.367850830078125,-0.21523500978946686,0.2647067606449127,0.18124888837337494
1761391573808916700,2.377916748046875,-0.14970768988132477,0.5048905611038208,0.325551301240921
1761391573818983000,2.38798291015625,-0.040050163865089417,0.6889397501945496,0.4879263639450073
1761391573829049900,2.3980498046875,0.044266972690820694,0.7168277502059937,0.6233500838279724
1761391573839115800,2.40811572265625,0.07446083426475525,0.5257592797279358,0.6907408833503723
1761391573849182000,2.418181884765625,0.07206576317548752,0.1996561735868454,0.6850542426109314
1761391573859247900,2.428247802734375,0.039849236607551575,-0.20926155149936676,0.6060859560966492
1761391573869314000,2.43831396484375,-0.010908728465437889,-0.6005097031593323,0.44245535135269165
1761391573879379700,2.448379638671875,-0.09222355484962463,-0.8201467394828796,0.21124660968780518
1761391573889446700,2.45844677734375,-0.20411325991153717,-0.8166105151176453,-0.036829281598329544
1761391573899512800,2.468512939453125,-0.33281823992729187,-0.6043880581855774,-0.24726374447345734
1761391573909578800,2.478578857421875,-0.46269017457962036,-0.191770538687706,-0.38679805397987366
1761391573919645000,2.48864501953125,-0.5761600136756897,0.2818566858768463,-0.4554506242275238
1761391573929710800,2.4987109375,-0.6409899592399597,0.6944822072982788,-0.46946004033088684
1761391573939777000,2.508777099609375,-0.6181807518005371,0.9699337482452393,-0.4434412121772766
1761391573949844000,2.518843994140625,-0.5051085352897644,1.100704550743103,-0.3864242136478424
1761391573959910000,2.528909912109375,-0.3284626603126526,1.1649186611175537,-0.30341294407844543
1761391573969976000,2.53897607421875,-0.14566919207572937,1.1484428644180298,-0.1890561282634735
1761391573980041700,2.549041748046875,0.0346800796687603,1.0631951093673706,-0.050989337265491486
1761391573990107600,2.559107666015625,0.19977828860282898,0.9648615121841431,0.1122642457485199
1761391574000173800,2.569173828125,0.34800636768341064,0.8480464816093445,0.2780604064464569
1761391574010240800,2.57924072265625,0.4643290340900421,0.674992561340332,0.3939567506313324
1761391574020307000,2.589306884765625,0.5630481839179993,0.41384297609329224,0.4415053725242615
1761391574030372900,2.599372802734375,0.6512542366981506,0.1129390299320221,0.4186848998069763
1761391574040438800,2.609438720703125,0.7090427279472351,-0.20375104248523712,0.34850049018859863
1761391574050505000,2.6195048828125,0.7446436285972595,-0.4750106930732727,0.24444134533405304
1761391574060571000,2.62957080078125,0.7627691030502319,-0.686212420463562,0.14340740442276
1761391574070636800,2.63963671875,0.7584539651870728,-0.8101804852485657,0.03442848101258278
1761391574080703700,2.649703857421875,0.7181451320648193,-0.8879375457763672,-0.08999786525964737
1761391574090769700,2.659769775390625,0.6568012833595276,-0.9410101771354675,-0.2100958377122879
1761391574100835800,2.6698359375,0.5705732107162476,-0.933955192565918,-0.318671315908432
1761391574110901800,2.67990185546875,0.4452037811279297,-0.8414517045021057,-0.3969118595123291
1761391574120968000,2.689968017578125,0.29852592945098877,-0.6727026104927063,-0.43866488337516785
1761391574131033900,2.700033935546875,0.1618063896894455,-0.45510056614875793,-0.42492204904556274
1761391574141100800,2.710100830078125,0.05848558992147446,-0.16040262579917908,-0.35618799924850464
1761391574151167000,2.7201669921875,-0.010610086843371391,0.14493872225284576,-0.28240615129470825
1761391574161233000,2.73023291015625,-0.032173436135053635,0.36254772543907166,-0.23107075691223145
1761391574171298800,2.740298828125,-0.033475980162620544,0.4988238513469696,-0.2012867033481598
1761391574181364700,2.75036474609375,-0.0277392640709877,0.5569925904273987,-0.1837119609117508
1761391574191431000,2.760430908203125,-0.0169228445738554,0.531792163848877,-0.16362221539020538
1761391574201497900,2.770497802734375,-0.0034981155768036842,0.45152872800827026,-0.13033057749271393
1761391574211563800,2.780563720703125,0.0008579529821872711,0.34855854511260986,-0.10064994543790817
1761391574221630000,2.7906298828125,0.007210391107946634,0.23134325444698334,-0.06631753593683243
1761391574231696000,2.80069580078125,0.007551275659352541,0.1185903400182724,-0.04658324271440506
1761391574241762000,2.810761962890625,0.02045775204896927,0.007578599266707897,-0.05114470422267914
1761391574251828000,2.820827880859375,0.04808894917368889,-0.0907544270157814,-0.07006771117448807
1761391574261895000,2.83089501953125,0.08992774039506912,-0.14893756806850433,-0.08025909215211868
1761391574271960800,2.8409609375,0.12755049765110016,-0.1859530806541443,-0.0755976065993309
1761391574282026800,2.85102685546875,0.15210138261318207,-0.22231614589691162,-0.04788900911808014
1761391574292093000,2.861093017578125,0.16570588946342468,-0.24670909345149994,-0.00783525500446558
1761391574302158800,2.871158935546875,0.1637127846479416,-0.2642124593257904,0.025157582014799118
1761391574312224800,2.881224853515625,0.13631051778793335,-0.27583047747612,0.04716502130031586
1761391574322291000,2.891291015625,0.09797191619873047,-0.2771838903427124,0.05799103528261185
1761391574332358000,2.90135791015625,0.06121182069182396,-0.24275830388069153,0.044394973665475845
1761391574342423800,2.911423828125,0.022262558341026306,-0.21525956690311432,-0.00032722344622015953
1761391574352490000,2.921489990234375,0.00024230359122157097,-0.21014319360256195,-0.04999624192714691
1761391574362555600,2.9315556640625,-0.022991912439465523,-0.2103988528251648,-0.09448833763599396
1761391574372621800,2.941621826171875,-0.048953380435705185,-0.19997012615203857,-0.11889723688364029
1761391574382687200,2.951687255859375,-0.07008929550647736,-0.20532575249671936,-0.08913162350654602
1761391574392754400,2.96175439453125,-0.08056904375553131,-0.18475885689258575,-0.014578075148165226
1761391574402820400,2.9718203125,-0.11320288479328156,-0.12228987365961075,0.0919094830751419
1761391574412886300,2.98188623046875,-0.1414824277162552,-0.059022173285484314,0.19466805458068848
1761391574422952400,2.991952392578125,-0.16153283417224884,0.0014169365167617798,0.2667563557624817
1761391574433018400,3.002018310546875,-0.16897840797901154,0.07800524681806564,0.2953225374221802
1761391574443084500,3.01208447265625,-0.15760697424411774,0.13614816963672638,0.29392436146736145
1761391574453151500,3.0221513671875,-0.12335080653429031,0.12915006279945374,0.26420506834983826
1761391574463217400,3.032217529296875,-0.07833538949489594,0.0720798447728157,0.18313632905483246
1761391574473283300,3.042283447265625,-0.031090477481484413,-0.10732778161764145,0.0528283417224884
1761391574483349200,3.052349365234375,-0.01831609010696411,-0.4013495445251465,-0.08793436735868454
1761391574493415400,3.06241552734375,-0.0839807540178299,-0.696617841720581,-0.17450669407844543
1761391574503481300,3.0724814453125,-0.20304057002067566,-0.8854418396949768,-0.18963398039340973
1761391574513548300,3.08254833984375,-0.3393854796886444,-0.8941435217857361,-0.1454715132713318
1761391574523614500,3.092614501953125,-0.45881760120391846,-0.7184377312660217,-0.08820263296365738
1761391574533680400,3.102680419921875,-0.5616028904914856,-0.38667717576026917,-0.061208441853523254
1761391574543746600,3.11274658203125,-0.6337042450904846,0.023396380245685577,-0.06781095266342163
1761391574553812500,3.1228125,-0.6682655811309814,0.39449119567871094,-0.10013692080974579
1761391574563878400,3.13287841796875,-0.6587679386138916,0.6527616381645203,-0.11833749711513519
1761391574573944300,3.1429443359375,-0.6026946306228638,0.8199642896652222,-0.09235977381467819
1761391574584011300,3.15301123046875,-0.5121706128120422,0.8550295829772949,-0.029835408553481102
1761391574594077400,3.163077392578125,-0.3855994939804077,0.7900934815406799,0.06517592817544937
1761391574604143400,3.173143310546875,-0.2421400547027588,0.6831347942352295,0.1806575208902359
1761391574614209500,3.18320947265625,-0.1015615165233612,0.5728627443313599,0.31855759024620056
1761391574624275500,3.193275390625,0.039859525859355927,0.4938243329524994,0.4596462845802307
1761391574634341400,3.20334130859375,0.16501498222351074,0.4119855463504791,0.5779342651367188
1761391574644408600,3.21340869140625,0.2518598735332489,0.2863224446773529,0.6706886887550354
1761391574654474500,3.223474609375,0.2840941250324249,0.1120232492685318,0.7253315448760986
1761391574664540400,3.23354052734375,0.26492202281951904,-0.08665601909160614,0.717754602432251
1761391574674606300,3.2436064453125,0.19287283718585968,-0.2940495014190674,0.6379087567329407
1761391574684672300,3.25367236328125,0.08319427818059921,-0.5064922571182251,0.4748285114765167
1761391574694738400,3.263738525390625,-0.03855035826563835,-0.7137653231620789,0.2595688998699188
1761391574704805400,3.273805419921875,-0.1715230643749237,-0.8506075739860535,0.010850410908460617
1761391574714871300,3.283871337890625,-0.31065064668655396,-0.8908843994140625,-0.2507297694683075
1761391574724937500,3.2939375,-0.4512016177177429,-0.82473224401474,-0.5012187361717224
1761391574735003400,3.30400341796875,-0.5972704291343689,-0.6181010007858276,-0.6747544407844543
1761391574745069600,3.314069580078125,-0.7309613823890686,-0.3361486494541168,-0.749288022518158
1761391574755135200,3.32413525390625,-0.8259781002998352,-0.03625129163265228,-0.732262134552002
1761391574765202200,3.3342021484375,-0.8682699203491211,0.26225125789642334,-0.6320527195930481
1761391574775268400,3.344268310546875,-0.8481813669204712,0.5362527370452881,-0.46665331721305847
1761391574785334300,3.354334228515625,-0.7653179168701172,0.737549364566803,-0.2778834104537964
1761391574795400400,3.364400390625,-0.6463450193405151,0.8339717984199524,-0.09470397979021072
1761391574805466400,3.37446630859375,-0.5281379818916321,0.8125805258750916,0.04298544302582741
1761391574815532500,3.384532470703125,-0.4154137969017029,0.7036263942718506,0.11501619964838028
1761391574825598500,3.394598388671875,-0.29988667368888855,0.5504555106163025,0.14083607494831085
1761391574835665400,3.40466552734375,-0.19038577377796173,0.3743475675582886,0.13684818148612976
1761391574845731600,3.414731689453125,-0.10636915266513824,0.1733798384666443,0.12437046319246292
1761391574855797200,3.42479736328125,-0.03593486547470093,-0.031896740198135376,0.11825330555438995
1761391574865863400,3.434863525390625,0.003007472725585103,-0.16302812099456787,0.13235527276992798
1761391574875929300,3.444929443359375,-0.004916615784168243,-0.2468690723180771,0.13696199655532837
1761391574885995300,3.454995361328125,-0.023447956889867783,-0.28992757201194763,0.11571982502937317
1761391574896062500,3.4650625,-0.03561662882566452,-0.29529616236686707,0.07625170797109604
1761391574906128400,3.47512841796875,-0.0665242075920105,-0.24375919997692108,0.011426106095314026
1761391574916194600,3.485194580078125,-0.14953120052814484,-0.14800497889518738,-0.062343988567590714
1761391574926260500,3.495260498046875,-0.26138120889663696,-0.07754992693662643,-0.14086610078811646
1761391574936326400,3.505326416015625,-0.37746661901474,-0.010920634493231773,-0.21777193248271942
1761391574946392300,3.515392333984375,-0.49937760829925537,0.045926135033369064,-0.27279338240623474
1761391574956459300,3.525459228515625,-0.6016242504119873,0.06796077638864517,-0.2803422808647156
1761391574966525400,3.535525390625,-0.7054232954978943,0.11838800460100174,-0.24850234389305115
1761391574976591400,3.54559130859375,-0.8282645344734192,0.14900177717208862,-0.18748576939105988
1761391574986657300,3.5556572265625,-0.9254773855209351,0.19614478945732117,-0.09897055476903915
1761391574996723500,3.565723388671875,-0.9543726444244385,0.30347955226898193,-0.0010121357627213001
1761391575006789400,3.575789306640625,-0.917209804058075,0.4177640378475189,0.08715473860502243
1761391575016856300,3.585856201171875,-0.83756422996521,0.5160978436470032,0.18555645644664764
1761391575026922500,3.595922607421875,-0.7659057378768921,0.6113889813423157,0.2960353195667267
1761391575036988400,3.605988525390625,-0.6984115242958069,0.7412773370742798,0.4046570062637329
1761391575047054300,3.616054443359375,-0.6239058971405029,0.8809528946876526,0.5122745633125305
1761391575057120300,3.626120361328125,-0.5607087016105652,0.9865809082984924,0.6060095429420471
1761391575067186400,3.6361865234375,-0.524562418460846,1.0112437009811401,0.6454344391822815
1761391575077252400,3.64625244140625,-0.505093514919281,0.9256579875946045,0.6222272515296936
1761391575087319300,3.6563193359375,-0.4834933876991272,0.6858161091804504,0.5369584560394287
1761391575097385500,3.666385498046875,-0.46203696727752686,0.27647536993026733,0.36945706605911255
1761391575107451400,3.676451416015625,-0.4511353075504303,-0.21362510323524475,0.15193967521190643
1761391575117517600,3.686517578125,-0.43659836053848267,-0.645759105682373,-0.03646944835782051
1761391575127583500,3.69658349609375,-0.44221389293670654,-0.9301916360855103,-0.14746546745300293
1761391575137649400,3.7066494140625,-0.487069696187973,-1.0267300605773926,-0.14209440350532532
1761391575147716400,3.71671630859375,-0.5592578649520874,-0.9257381558418274,-0.02345617488026619
1761391575157782300,3.7267822265625,-0.6685577034950256,-0.7047253251075745,0.12362648546695709
1761391575167848400,3.736848388671875,-0.7721735835075378,-0.4240235984325409,0.25365933775901794
1761391575177914400,3.746914306640625,-0.8715735077857971,-0.1584104299545288,0.3377014398574829
1761391575187980300,3.756980224609375,-0.9656800031661987,0.02082882449030876,0.3525405824184418
1761391575198046500,3.76704638671875,-1.0493462085723877,0.11719577014446259,0.30785688757896423
1761391575208113400,3.777113525390625,-1.1266380548477173,0.13298246264457703,0.22021865844726562
1761391575218179600,3.7871796875,-1.1967686414718628,0.03070254810154438,0.11556903272867203
1761391575228245500,3.79724560546875,-1.2535508871078491,-0.13316121697425842,0.013789141550660133
1761391575238311200,3.807311279296875,-1.2809770107269287,-0.2891221344470978,-0.05420735105872154
1761391575248377300,3.81737744140625,-1.2824113368988037,-0.44142618775367737,-0.0769406259059906
1761391575258443300,3.827443359375,-1.2817447185516357,-0.5544432401657104,-0.06066165491938591
1761391575268510500,3.837510498046875,-1.290753960609436,-0.6148242950439453,-0.028549259528517723
1761391575278576400,3.847576416015625,-1.3322697877883911,-0.638267457485199,-0.01780666783452034
1761391575288642300,3.857642333984375,-1.405133843421936,-0.6264297366142273,-0.039005961269140244
1761391575298708500,3.86770849609375,-1.5080716609954834,-0.5909794569015503,-0.07564474642276764
1761391575308774400,3.8777744140625,-1.640225887298584,-0.527706503868103,-0.12238828092813492
1761391575318840600,3.887840576171875,-1.7855348587036133,-0.4539189040660858,-0.17620500922203064
1761391575328906200,3.89790625,-1.9292794466018677,-0.3418397605419159,-0.2039162665605545
1761391575338973200,3.90797314453125,-2.035661220550537,-0.1903768628835678,-0.21517248451709747
1761391575349039400,3.918039306640625,-2.08687424659729,-0.04313308000564575,-0.2181861251592636
1761391575359105300,3.928105224609375,-2.0665509700775146,0.05201280117034912,-0.21616776287555695
1761391575369171500,3.93817138671875,-1.9728471040725708,0.12025631219148636,-0.18162283301353455
1761391575379237400,3.9482373046875,-1.8309482336044312,0.23626582324504852,-0.12145762890577316
1761391575389303600,3.958303466796875,-1.6872419118881226,0.32542580366134644,-0.0411558635532856
1761391575399370500,3.96837060546875,-1.59115731716156,0.3163875341415405,0.03496885299682617
1761391575409436400,3.9784365234375,-1.5610151290893555,0.2373686283826828,0.10716421902179718
1761391575419502600,3.988502685546875,-1.5587152242660522,0.1638897806406021,0.16363972425460815
1761391575429568500,3.998568603515625,-1.5754058361053467,0.11145532876253128,0.173977330327034
1761391575439634700,4.008634765625,-1.5934642553329468,0.057986803352832794,0.12582924962043762
1761391575449700400,4.018700439453125,-1.591639518737793,0.04315432906150818,-0.002006733324378729
1761391575459767600,4.028767578125,-1.55390202999115,0.04616184160113335,-0.17031431198120117
1761391575469833500,4.03883349609375,-1.4677082300186157,0.058623041957616806,-0.27762240171432495
1761391575479899400,4.0488994140625,-1.3918037414550781,0.08390089124441147,-0.337944895029068
1761391575489965300,4.05896533203125,-1.3911608457565308,0.04896048456430435,-0.3786017894744873
1761391575500031500,4.069031494140625,-1.4309144020080566,-0.074680857360363,-0.39538145065307617
1761391575510097400,4.079097412109375,-1.498138189315796,-0.23070719838142395,-0.40619680285453796
1761391575520163600,4.08916357421875,-1.5694814920425415,-0.398393452167511,-0.43829742074012756
1761391575530230500,4.09923046875,-1.6021696329116821,-0.610602855682373,-0.46455779671669006
1761391575540296400,4.10929638671875,-1.6017191410064697,-0.8006219267845154,-0.45992863178253174
1761391575550362600,4.119362548828125,-1.5760366916656494,-0.897333562374115,-0.43525952100753784
1761391575560428300,4.12942822265625,-1.5430288314819336,-0.9227826595306396,-0.3886294364929199
1761391575570494500,4.139494384765625,-1.5106072425842285,-0.8917445540428162,-0.32143253087997437
1761391575580560400,4.149560302734375,-1.5022612810134888,-0.8367149829864502,-0.24505196511745453
1761391575590627300,4.15962744140625,-1.550105333328247,-0.8459955453872681,-0.20621775090694427
1761391575600693500,4.169693603515625,-1.6423879861831665,-0.8996220827102661,-0.22842782735824585
1761391575610759400,4.179759521484375,-1.7467052936553955,-0.9250065684318542,-0.30136463046073914
1761391575620825600,4.18982568359375,-1.8421266078948975,-0.9052651524543762,-0.40880292654037476
1761391575630891500,4.1998916015625,-1.9250710010528564,-0.804709255695343,-0.5357984304428101
1761391575640957400,4.20995751953125,-1.9879149198532104,-0.6405643224716187,-0.6297671794891357
1761391575651024600,4.220024658203125,-2.0427374839782715,-0.4150926172733307,-0.6683949828147888
1761391575661090300,4.23009033203125,-2.100390672683716,-0.2146797627210617,-0.6597133874893188
1761391575671156500,4.240156494140625,-2.1439831256866455,-0.03875267878174782,-0.6194967031478882
1761391575681222400,4.250222412109375,-2.153629779815674,0.12611815333366394,-0.5643505454063416
1761391575691288600,4.26028857421875,-2.127669334411621,0.23831790685653687,-0.5122926831245422
1761391575701354500,4.2703544921875,-2.0578951835632324,0.28299060463905334,-0.47188854217529297
1761391575711421400,4.28042138671875,-1.95847749710083,0.25322845578193665,-0.44469472765922546
1761391575721487600,4.290487548828125,-1.8587348461151123,0.1276029646396637,-0.41909879446029663
1761391575731553500,4.300553466796875,-1.7799372673034668,-0.0862179845571518,-0.39612582325935364
1761391575741619700,4.31061962890625,-1.7332470417022705,-0.3166266679763794,-0.3786086142063141
1761391575751685400,4.320685302734375,-1.7083078622817993,-0.5208413004875183,-0.36936160922050476
1761391575761751300,4.330751220703125,-1.6954728364944458,-0.6739037036895752,-0.3390301465988159
1761391575771818500,4.340818603515625,-1.6996442079544067,-0.7508001327514648,-0.2920517325401306
1761391575781884400,4.350884521484375,-1.7260868549346924,-0.7823312282562256,-0.24792324006557465
1761391575791950600,4.36095068359375,-1.756176233291626,-0.7958416938781738,-0.2328857034444809
1761391575802016500,4.3710166015625,-1.795559287071228,-0.7817794680595398,-0.23888464272022247
1761391575812082400,4.38108251953125,-1.843165397644043,-0.7454158663749695,-0.26481395959854126
1761391575822148600,4.391148681640625,-1.8998838663101196,-0.6715695261955261,-0.2995624840259552
1761391575832214300,4.40121435546875,-1.9685417413711548,-0.5330060720443726,-0.34015142917633057
1761391575842281500,4.411281494140625,-2.0365817546844482,-0.38294342160224915,-0.39206594228744507
1761391575852347400,4.421347412109375,-2.095263957977295,-0.2482077032327652,-0.44574061036109924
1761391575862413300,4.431413330078125,-2.1367087364196777,-0.12691891193389893,-0.4938795566558838
1761391575872479500,4.4414794921875,-2.154897928237915,-0.034786857664585114,-0.5197356939315796
1761391575882545400,4.45154541015625,-2.1516661643981934,0.02018815651535988,-0.5122308135032654
1761391575892611600,4.461611572265625,-2.129193067550659,0.03867022693157196,-0.47987979650497437
1761391575902678500,4.471678466796875,-2.1036553382873535,0.021081890910863876,-0.4369927942752838
1761391575912744400,4.481744384765625,-2.069821357727051,-0.029291268438100815,-0.3917209208011627
1761391575922810600,4.491810546875,-2.040929079055786,-0.0783209428191185,-0.3525993525981903
1761391575932876500,4.50187646484375,-2.0139811038970947,-0.12519338726997375,-0.32962530851364136
1761391575942942500,4.5119423828125,-1.9826831817626953,-0.15239037573337555,-0.3341071605682373
1761391575953008400,4.52200830078125,-1.9410145282745361,-0.1538226306438446,-0.34592440724372864
1761391575963075300,4.532075439453125,-1.893414855003357,-0.12783393263816833,-0.3714205324649811
1761391575973141500,4.5421416015625,-1.8458225727081299,-0.1119612380862236,-0.3929878771305084
1761391575983207400,4.55220751953125,-1.8051921129226685,-0.087096206843853,-0.38963788747787476
1761391575993273600,4.562273681640625,-1.767418384552002,-0.02898496761918068,-0.3563867211341858
1761391576003339500,4.572339599609375,-1.7417266368865967,0.025369424372911453,-0.3076202869415283
1761391576013405400,4.582405517578125,-1.7292494773864746,0.058550283312797546,-0.2590535283088684
1761391576023471400,4.592471435546875,-1.7314594984054565,0.07275402545928955,-0.21581637859344482
1761391576033538600,4.60253857421875,-1.74627685546875,0.07061417400836945,-0.1922340840101242
1761391576043604500,4.6126044921875,-1.7709852457046509,0.04791421815752983,-0.19740064442157745
1761391576053670400,4.62267041015625,-1.7848931550979614,0.017170952633023262,-0.2226056009531021
1761391576063736300,4.632736328125,-1.7890121936798096,-0.0107504241168499,-0.2535281479358673
1761391576073802500,4.642802490234375,-1.8050287961959839,-0.023532265797257423,-0.2921101748943329
1761391576083869400,4.652869384765625,-1.8334039449691772,-0.0391925610601902,-0.3374379277229309
1761391576093935600,4.662935546875,-1.8519995212554932,-0.05670603737235069,-0.3928987979888916
1761391576104001500,4.67300146484375,-1.861228108406067,-0.07135147601366043,-0.4454896152019501
1761391576114067500,4.6830673828125,-1.8726648092269897,-0.048865608870983124,-0.48759472370147705
1761391576124133600,4.693133544921875,-1.8925771713256836,-0.006341136526316404,-0.5012383460998535
1761391576134199300,4.70319921875,-1.9089652299880981,0.036903537809848785,-0.4951038062572479
1761391576144265500,4.713265380859375,-1.9049450159072876,0.08129424601793289,-0.4741307497024536
1761391576154332400,4.72333251953125,-1.8857638835906982,0.11611267924308777,-0.44140928983688354
1761391576164398300,4.7333984375,-1.8563358783721924,0.1051085889339447,-0.41646456718444824
1761391576174464500,4.743464599609375,-1.811890721321106,0.08543021976947784,-0.39531561732292175
1761391576184530400,4.753530517578125,-1.747304916381836,0.06805474311113358,-0.3800303637981415
1761391576194596600,4.7635966796875,-1.6662046909332275,0.04682935029268265,-0.36350545287132263
1761391576204662500,4.77366259765625,-1.5887792110443115,0.04528658092021942,-0.3259727358818054
1761391576214729500,4.7837294921875,-1.5182021856307983,0.08930651843547821,-0.22998486459255219
1761391576224795600,4.793795654296875,-1.4547679424285889,0.23153792321681976,-0.0840548425912857
1761391576234861300,4.803861328125,-1.3908253908157349,0.3866603970527649,0.1044841781258583
1761391576244927500,4.813927490234375,-1.3360446691513062,0.5381075143814087,0.30038022994995117
1761391576254993400,4.823993408203125,-1.2895135879516602,0.6919676065444946,0.4843146502971649
1761391576265059600,4.8340595703125,-1.233555555343628,0.8476031422615051,0.6238641142845154
1761391576275126500,4.84412646484375,-1.1601755619049072,0.9866087436676025,0.7042462825775146
1761391576285192400,4.8541923828125,-1.0746376514434814,1.0944275856018066,0.7325084209442139
1761391576295258600,4.864258544921875,-0.9944360852241516,1.112339973449707,0.7062656283378601
1761391576305324500,4.874324462890625,-0.9538155198097229,0.9802948236465454,0.5954350829124451
1761391576315390500,4.884390380859375,-0.9397300481796265,0.6734568476676941,0.4009084701538086
1761391576325456400,4.894456298828125,-0.922760546207428,0.26491597294807434,0.1784203201532364
1761391576335523300,4.9045234375,-0.8917107582092285,-0.15366318821907043,-0.030570439994335175
1761391576345589500,4.914589599609375,-0.8572261929512024,-0.548491358757019,-0.19372932612895966
1761391576355655400,4.924655517578125,-0.8356916308403015,-0.8182466626167297,-0.28786566853523254
1761391576365721300,4.934721435546875,-0.8331974744796753,-0.9085673689842224,-0.2856539189815521
1761391576375787300,4.944787353515625,-0.8393831849098206,-0.7798341512680054,-0.18996386229991913
1761391576385853000,4.95485302734375,-0.8514777421951294,-0.48565104603767395,-0.01278957724571228
1761391576395919000,4.964919189453125,-0.8422507047653198,-0.1508919894695282,0.18848946690559387
1761391576405986000,4.974986083984375,-0.8036219477653503,0.17562341690063477,0.3381347060203552
1761391576416052200,4.98505224609375,-0.7443026900291443,0.4212547540664673,0.4071694314479828
1761391576426118100,4.9951181640625,-0.6686748266220093,0.5624544024467468,0.41095462441444397
1761391576436184000,5.00518408203125,-0.5756364464759827,0.5647996068000793,0.35174882411956787
1761391576446250200,5.015250244140625,-0.46769285202026367,0.4486277997493744,0.26470863819122314
1761391576456316200,5.025316162109375,-0.36063352227211,0.29198041558265686,0.2236405909061432
1761391576466383000,5.035383056640625,-0.28083667159080505,0.16214627027511597,0.2383812516927719
1761391576476449300,5.04544921875,-0.27163437008857727,0.023131128400564194,0.28198811411857605
1761391576486515000,5.055514892578125,-0.3303162753582001,-0.08187903463840485,0.30707892775535583
1761391576496581000,5.0655810546875,-0.4197483956813812,-0.11611157655715942,0.2918752133846283
1761391576506647000,5.07564697265625,-0.5316417217254639,-0.06521307677030563,0.2184942662715912
1761391576516713200,5.085713134765625,-0.6512722373008728,0.029185593128204346,0.10830704867839813
1761391576526780200,5.0957802734375,-0.7594486474990845,0.10904252529144287,-0.025714870542287827
1761391576536846000,5.10584619140625,-0.8375780582427979,0.1529599130153656,-0.18944282829761505
1761391576546912300,5.115912353515625,-0.8724288940429688,0.18082915246486664,-0.328938364982605
1761391576556978200,5.125978271484375,-0.8697247505187988,0.16904358565807343,-0.4436337947845459
1761391576567044400,5.13604443359375,-0.8290817141532898,0.13837924599647522,-0.5105778574943542
1761391576577110000,5.146110107421875,-0.7658950090408325,0.08743882924318314,-0.5295518040657043
1761391576587177000,5.156177001953125,-0.6913073062896729,0.014510740526020527,-0.5192238688468933
1761391576597242000,5.1662421875,-0.6222118735313416,-0.06499766558408737,-0.471121609210968
1761391576607308000,5.17630810546875,-0.5629245638847351,-0.12659572064876556,-0.39764636754989624
1761391576617375200,5.186375244140625,-0.5271103382110596,-0.1664094626903534,-0.3075132668018341
1761391576627441200,5.196441162109375,-0.5143680572509766,-0.18708369135856628,-0.24926947057247162
1761391576637507300,5.20650732421875,-0.5254100561141968,-0.17219263315200806,-0.21720342338085175
1761391576647573200,5.2165732421875,-0.5723431706428528,-0.13500165939331055,-0.212259441614151
1761391576657639000,5.226638916015625,-0.6461268663406372,-0.08792921155691147,-0.23120516538619995
1761391576667705000,5.236705078125,-0.7282472848892212,-0.017185987904667854,-0.27674204111099243
1761391576677771000,5.24677099609375,-0.7974966764450073,0.07440625131130219,-0.32981938123703003
1761391576687838000,5.256837890625,-0.8511003255844116,0.19792994856834412,-0.38004860281944275
1761391576697904000,5.266904052734375,-0.8784853219985962,0.3181178867816925,-0.4151836931705475
1761391576707970000,5.276969970703125,-0.8760738968849182,0.4184388220310211,-0.4255012571811676
1761391576718036200,5.2870361328125,-0.8517445921897888,0.5072163939476013,-0.4068399667739868
1761391576728102100,5.29710205078125,-0.8144849538803101,0.5658318996429443,-0.35618671774864197
1761391576738168300,5.307168212890625,-0.7704541087150574,0.58632493019104,-0.28637275099754333
1761391576748235300,5.3172353515625,-0.7121008634567261,0.5591313242912292,-0.22320863604545593
1761391576758301200,5.32730126953125,-0.640666663646698,0.4946862757205963,-0.1740320324897766
1761391576768367000,5.3373671875,-0.5493200421333313,0.411937952041626,-0.147465318441391
1761391576778433000,5.34743310546875,-0.44649970531463623,0.34989750385284424,-0.1428103744983673
1761391576788499200,5.357499267578125,-0.3441162407398224,0.3299229145050049,-0.16880567371845245
1761391576798565000,5.367565185546875,-0.2537248134613037,0.3647112548351288,-0.21640834212303162
1761391576808632000,5.377632080078125,-0.17041556537151337,0.4377605617046356,-0.2915689945220947
1761391576818698200,5.3876982421875,-0.06300600618124008,0.5297016501426697,-0.37346944212913513
1761391576828764200,5.39776416015625,0.06827281415462494,0.59996098279953,-0.41547882556915283
1761391576838830300,5.407830322265625,0.20669008791446686,0.5830727815628052,-0.40760520100593567
1761391576848896000,5.41789599609375,0.33329737186431885,0.4826511740684509,-0.35091736912727356
1761391576858962200,5.427962158203125,0.44441723823547363,0.3521035611629486,-0.24767276644706726
1761391576869028000,5.438028076171875,0.5196200609207153,0.20952238142490387,-0.11498905718326569
1761391576879095000,5.448094970703125,0.5541303753852844,0.09099120646715164,0.028758259490132332
1761391576889161200,5.4581611328125,0.5551671385765076,-0.01987571083009243,0.14979368448257446
1761391576899227100,5.46822705078125,0.5563386678695679,-0.10869160294532776,0.23725615441799164
1761391576909293000,5.47829296875,0.5647867321968079,-0.16040752828121185,0.2942400872707367
1761391576919359200,5.488359130859375,0.5911656022071838,-0.1517583727836609,0.3365859389305115
1761391576929425200,5.498425048828125,0.6316520571708679,-0.1282549500465393,0.3882431089878082
1761391576939492400,5.508492431640625,0.6906213760375977,-0.10400579869747162,0.4482840597629547
1761391576949558300,5.518558349609375,0.7472294569015503,-0.10435870289802551,0.49737977981567383
1761391576959624000,5.5286240234375,0.7788203954696655,-0.17164453864097595,0.5211284756660461
1761391576969690000,5.538690185546875,0.7705779075622559,-0.3163364827632904,0.4884742498397827
1761391576979756000,5.548756103515625,0.6990494132041931,-0.5237189531326294,0.40055957436561584
1761391576989822200,5.558822265625,0.5520538091659546,-0.7553945779800415,0.27044540643692017
1761391576999889200,5.56888916015625,0.33732128143310547,-0.9603421092033386,0.13441461324691772
1761391577009956000,5.5789560546875,0.06531768292188644,-1.0752289295196533,0.02535257302224636
1761391577020022300,5.589022216796875,-0.24670706689357758,-1.0928925275802612,-0.03150405362248421
1761391577030088200,5.599088134765625,-0.5624083876609802,-0.9919044375419617,-0.018526000902056694
1761391577040154000,5.609154052734375,-0.8292979001998901,-0.806594729423523,0.020154017955064774
1761391577050220300,5.61922021484375,-1.0284584760665894,-0.5949810147285461,0.056326404213905334
1761391577060286000,5.629285888671875,-1.1381226778030396,-0.3745080828666687,0.08156837522983551
1761391577070353200,5.639353271484375,-1.1835100650787354,-0.17023514211177826,0.07040823996067047
1761391577080419000,5.649419189453125,-1.1760952472686768,-0.007855284959077835,0.047436609864234924
1761391577090485000,5.659485107421875,-1.1377819776535034,0.049111951142549515,0.028328828513622284
1761391577100551200,5.66955126953125,-1.0784001350402832,0.032204337418079376,0.04931400716304779
1761391577110617000,5.6796171875,-1.0013840198516846,-0.046968650072813034,0.10168010741472244
1761391577120683300,5.689683349609375,-0.9266825914382935,-0.1675935983657837,0.16969376802444458
1761391577130750200,5.699750244140625,-0.8574097156524658,-0.28348278999328613,0.2417277693748474
1761391577140816100,5.709816162109375,-0.7930267453193665,-0.34178870916366577,0.321858286857605
1761391577150882300,5.71988232421875,-0.7546539306640625,-0.36622709035873413,0.3932545483112335
1761391577160948000,5.729947998046875,-0.7502332925796509,-0.33732515573501587,0.4679061472415924
1761391577171014100,5.74001416015625,-0.7883495092391968,-0.2587845027446747,0.5306445360183716
1761391577181080000,5.750080078125,-0.8773171901702881,-0.19683723151683807,0.5546374320983887
1761391577191147000,5.76014697265625,-0.9943407773971558,-0.16152423620224,0.5285787582397461
1761391577201213200,5.770213134765625,-1.1213202476501465,-0.139800563454628,0.44780218601226807
1761391577211279000,5.780279052734375,-1.2438627481460571,-0.150161474943161,0.31998658180236816
1761391577221345300,5.79034521484375,-1.3619824647903442,-0.17363937199115753,0.1499709188938141
1761391577231411200,5.8004111328125,-1.4962044954299927,-0.16712163388729095,-0.04000808298587799
1761391577241477400,5.810477294921875,-1.6511836051940918,-0.14093877375125885,-0.24082347750663757
1761391577251543000,5.82054296875,-1.8113203048706055,-0.11335167288780212,-0.430637925863266
1761391577261610000,5.83060986328125,-1.9347418546676636,-0.057817041873931885,-0.5765439867973328
1761391577271676200,5.84067626953125,-2.0041444301605225,0.022280273959040642,-0.6996307373046875
1761391577281742000,5.8507421875,-2.0102226734161377,0.10237724334001541,-0.7627684473991394
1761391577291808300,5.860808349609375,-1.9504708051681519,0.21992290019989014,-0.766183078289032
1761391577301874200,5.870874267578125,-1.82929265499115,0.30488651990890503,-0.7210907340049744
1761391577311940000,5.880940185546875,-1.6673506498336792,0.3220694959163666,-0.6315826177597046
1761391577322007300,5.89100732421875,-1.4745534658432007,0.2854742109775543,-0.5278586149215698
1761391577332073200,5.9010732421875,-1.2770042419433594,0.21696504950523376,-0.3980095684528351
1761391577342139100,5.91113916015625,-1.0979048013687134,0.14320108294487,-0.26140111684799194
1761391577352205000,5.921205078125,-0.9627363085746765,0.04971775412559509,-0.14846982061862946
1761391577362271000,5.93127099609375,-0.866389274597168,-0.0294103492051363,-0.07698391377925873
1761391577372337200,5.941337158203125,-0.8101186752319336,-0.10201271623373032,-0.041651878505945206
1761391577382405400,5.9514052734375,-0.7772970795631409,-0.15941527485847473,-0.04462503269314766
1761391577392471300,5.96147119140625,-0.766799807548523,-0.19332855939865112,-0.07841845601797104
1761391577402537200,5.971537109375,-0.7701351642608643,-0.21832232177257538,-0.12656015157699585
1761391577412603100,5.98160302734375,-0.7912489771842957,-0.24323652684688568,-0.17821292579174042
1761391577422669000,5.9916689453125,-0.833586573600769,-0.2608402669429779,-0.23495957255363464
1761391577432735200,6.0017353515625,-0.901827335357666,-0.27343082427978516,-0.27859267592430115
1761391577442802200,6.01180224609375,-0.9912280440330505,-0.2813417315483093,-0.3294023275375366
1761391577452868000,6.0218681640625,-1.0977022647857666,-0.2888040244579315,-0.3755182921886444
1761391577462934300,6.031934326171875,-1.2190405130386353,-0.2915553152561188,-0.4306502640247345
1761391577473000200,6.042000244140625,-1.3540594577789307,-0.28859981894493103,-0.48940110206604004
1761391577483066400,6.05206640625,-1.5017693042755127,-0.28129929304122925,-0.5548173785209656
1761391577493132000,6.062132080078125,-1.6668503284454346,-0.2750190496444702,-0.5930582284927368
1761391577503199200,6.07219921875,-1.835325837135315,-0.25733110308647156,-0.611331045627594
1761391577513265200,6.08226513671875,-1.9701284170150757,-0.2334752231836319,-0.6170139908790588
1761391577523331000,6.0923310546875,-2.0547356605529785,-0.2388303130865097,-0.5981167554855347
1761391577533397200,6.102397216796875,-2.0609476566314697,-0.250088632106781,-0.5728392004966736
1761391577543463200,6.112463134765625,-1.992667317390442,-0.23495230078697205,-0.5244112014770508
1761391577553529300,6.122529296875,-1.8686102628707886,-0.18002799153327942,-0.438979834318161
1761391577563596300,6.13259619140625,-1.7094978094100952,-0.09258149564266205,-0.2876147925853729
1761391577573662200,6.142662109375,-1.5154798030853271,0.10388050973415375,-0.04349114000797272
1761391577583728400,6.152728271484375,-1.2851771116256714,0.33073389530181885,0.2547112703323364
1761391577593794000,6.1627939453125,-1.0408294200897217,0.3836957514286041,0.5414561033248901
1761391577603860200,6.172860107421875,-0.8189659118652344,0.18581008911132812,0.7575747966766357
1761391577613926100,6.182926025390625,-0.6759030818939209,-0.25441959500312805,0.8530071377754211
1761391577623993000,6.1929931640625,-0.5804399251937866,-0.8291699290275574,0.8246293067932129
1761391577634059300,6.203059326171875,-0.5435324907302856,-1.2967091798782349,0.7423770427703857
1761391577644125200,6.213125244140625,-0.5833646059036255,-1.5060299634933472,0.6550676822662354
1761391577654191400,6.22319140625,-0.6943941712379456,-1.4641480445861816,0.574992299079895
1761391577664257300,6.23325732421875,-0.8406246304512024,-1.218324899673462,0.5135480761528015
1761391577674323200,6.2433232421875,-0.9973003268241882,-0.796248197555542,0.4713592529296875
1761391577684389000,6.25338916015625,-1.124128818511963,-0.3107656240463257,0.43024909496307373
1761391577694456300,6.263456298828125,-1.2176687717437744,0.14126156270503998,0.3803642690181732
1761391577704522200,6.273522216796875,-1.26604163646698,0.5026780962944031,0.32896581292152405
1761391577714588200,6.283588134765625,-1.2671831846237183,0.7349466681480408,0.28108492493629456
1761391577724654000,6.293654052734375,-1.2297793626785278,0.8605163097381592,0.24881671369075775
1761391577734720300,6.30372021484375,-1.168852686882019,0.9653561115264893,0.24875549972057343
1761391577744786200,6.3137861328125,-1.105862021446228,1.0266133546829224,0.2630678415298462
1761391577754853400,6.323853271484375,-1.0541545152664185,1.0271070003509521,0.28487011790275574
1761391577764919300,6.333919189453125,-1.0065052509307861,0.9679096937179565,0.28530368208885193
1761391577774985200,6.343985107421875,-0.9463792443275452,0.8589264750480652,0.254439115524292
1761391577785051100,6.354051025390625,-0.8480998277664185,0.6694872975349426,0.18473461270332336
1761391577795117000,6.364116943359375,-0.741106390953064,0.4368266761302948,0.1015792191028595
1761391577805183200,6.374183349609375,-0.6764408946037292,0.25882500410079956,0.014914367347955704
1761391577815250200,6.384250244140625,-0.6516258716583252,0.11737359315156937,-0.08695206046104431
1761391577825316000,6.394316162109375,-0.609205961227417,-0.01835121028125286,-0.17926175892353058
1761391577835382300,6.40438232421875,-0.5468847751617432,-0.11596377193927765,-0.2810753881931305
1761391577845448200,6.4144482421875,-0.46099117398262024,-0.20558181405067444,-0.405475914478302
1761391577855514400,6.424514404296875,-0.37172138690948486,-0.3475372791290283,-0.5389078855514526
1761391577865580300,6.434580322265625,-0.29504790902137756,-0.5074657201766968,-0.6680344343185425
1761391577875647200,6.444647216796875,-0.24473637342453003,-0.6954354643821716,-0.7918818593025208
1761391577885713400,6.45471337890625,-0.21686159074306488,-0.9093088507652283,-0.9074276089668274
1761391577895779000,6.464779052734375,-0.2116490602493286,-1.1018141508102417,-0.9751542210578918
1761391577905845200,6.47484521484375,-0.22570522129535675,-1.1508920192718506,-0.9648938775062561
1761391577915911200,6.4849111328125,-0.24548307061195374,-1.0599558353424072,-0.8677914142608643
1761391577925977300,6.494977294921875,-0.2860882878303528,-0.8456277847290039,-0.6985770463943481
1761391577936044300,6.505044189453125,-0.3682171106338501,-0.5360005497932434,-0.4999430477619171
1761391577946110200,6.515110107421875,-0.46589332818984985,-0.19697165489196777,-0.32042786478996277
1761391577956176400,6.52517626953125,-0.5487775802612305,0.0772007405757904,-0.20406068861484528
1761391577966242300,6.5352421875,-0.5727654695510864,0.2359807938337326,-0.1869480162858963
1761391577976308200,6.54530810546875,-0.5510897040367126,0.26198217272758484,-0.25751686096191406
1761391577986374100,6.5553740234375,-0.49618810415267944,0.2260044664144516,-0.3860095739364624
1761391577996440000,6.565440185546875,-0.44449594616889954,0.17152583599090576,-0.5189504027366638
1761391578006507300,6.57550732421875,-0.405982106924057,0.1013299822807312,-0.6178266406059265
1761391578016573200,6.5855732421875,-0.37980157136917114,0.031191768124699593,-0.6666812300682068
1761391578026639000,6.59563916015625,-0.36812466382980347,-0.019030388444662094,-0.6614931225776672
1761391578036705300,6.605705322265625,-0.3634030818939209,-0.06943749636411667,-0.6218958497047424
1761391578046771200,6.615771240234375,-0.3541922867298126,-0.13885411620140076,-0.563213586807251
1761391578056837400,6.62583740234375,-0.36212533712387085,-0.1763232797384262,-0.506324291229248
1761391578066904300,6.635904296875,-0.39277327060699463,-0.19981901347637177,-0.45971736311912537
1761391578076970200,6.64597021484375,-0.41835764050483704,-0.23128876090049744,-0.4077168107032776
1761391578087036200,6.6560361328125,-0.4156494736671448,-0.28280627727508545,-0.3603189289569855
1761391578097102000,6.66610205078125,-0.38664454221725464,-0.3412717282772064,-0.3222186267375946
1761391578107168300,6.676168212890625,-0.35740330815315247,-0.3973986506462097,-0.27608177065849304
1761391578117234200,6.686234130859375,-0.33028027415275574,-0.40805718302726746,-0.22334764897823334
1761391578127301000,6.696301025390625,-0.3217163383960724,-0.37478551268577576,-0.17258593440055847
1761391578137367300,6.7063671875,-0.34247663617134094,-0.3092212975025177,-0.1238289624452591
1761391578147433200,6.71643310546875,-0.3775635063648224,-0.24267713725566864,-0.06213683634996414
1761391578157499400,6.72649951171875,-0.4228554368019104,-0.16713236272335052,0.03242345526814461
1761391578167565000,6.73656494140625,-0.45684245228767395,-0.05202814191579819,0.15914252400398254
1761391578177631200,6.74663134765625,-0.47384071350097656,0.056187666952610016,0.30145207047462463
1761391578187697200,6.756697265625,-0.466592937707901,0.09642297029495239,0.4142627716064453
1761391578197764000,6.76676416015625,-0.4359532594680786,0.04840514808893204,0.47565653920173645
1761391578207830300,6.776830322265625,-0.39552542567253113,-0.07303819060325623,0.478980153799057
1761391578217896200,6.786896240234375,-0.379354864358902,-0.30331262946128845,0.4283130168914795
1761391578227962400,6.79696240234375,-0.39988651871681213,-0.5832947492599487,0.32272881269454956
1761391578238028300,6.8070283203125,-0.4322355091571808,-0.8039007782936096,0.17391757667064667
1761391578248094200,6.81709423828125,-0.5128792524337769,-0.8761147856712341,-0.009593918919563293
1761391578258161400,6.827161376953125,-0.6634693741798401,-0.8369119763374329,-0.21464549005031586
1761391578268227300,6.837227294921875,-0.8553026914596558,-0.6311015486717224,-0.36032092571258545
1761391578278293200,6.847293212890625,-1.0264524221420288,-0.33006802201271057,-0.42676571011543274
1761391578288359200,6.857359130859375,-1.1219711303710938,-0.007646828889846802,-0.3863050937652588
1761391578298425000,6.867425048828125,-1.123974323272705,0.35338789224624634,-0.27222198247909546
1761391578308491300,6.8774912109375,-1.0464407205581665,0.6249392628669739,-0.12343090772628784
1761391578318558200,6.88755810546875,-0.9110206365585327,0.7818413376808167,0.036306556314229965
1761391578328624000,6.8976240234375,-0.7471299767494202,0.8291670680046082,0.1973702758550644
1761391578338690300,6.907690185546875,-0.5887036323547363,0.7608886361122131,0.35986006259918213
1761391578348756200,6.917756103515625,-0.44487348198890686,0.5928798913955688,0.5073533654212952
1761391578358822100,6.927822265625,-0.33175110816955566,0.3338039517402649,0.6304365396499634
1761391578368888000,6.93788818359375,-0.22279877960681915,0.016707247123122215,0.736495316028595
1761391578378955300,6.947955322265625,-0.11659365892410278,-0.27734851837158203,0.8201122283935547
1761391578389021400,6.958021484375,-0.05876125022768974,-0.4710463285446167,0.8721602559089661
1761391578399087400,6.96808740234375,-0.07506455481052399,-0.5867663621902466,0.8541272878646851
1761391578409153500,6.978153564453125,-0.1372416466474533,-0.6625828146934509,0.7552616596221924
1761391578419219200,6.98821923828125,-0.2426365464925766,-0.6876028776168823,0.5720634460449219
1761391578429285400,6.998285400390625,-0.3729865550994873,-0.6778109669685364,0.3365395963191986
1761391578439352300,7.008352294921875,-0.5202963948249817,-0.6095203161239624,0.09095290303230286
1761391578449418200,7.018418212890625,-0.6831313967704773,-0.4490579068660736,-0.12519031763076782
1761391578459484400,7.028484375,-0.8463717699050903,-0.22236762940883636,-0.28765061497688293
1761391578469550300,7.03855029296875,-0.9800973534584045,0.015130939893424511,-0.39648202061653137
1761391578479616500,7.048616455078125,-1.0549349784851074,0.25324445962905884,-0.4798331558704376
1761391578489682400,7.058682373046875,-1.047785758972168,0.45846179127693176,-0.5259295701980591
1761391578499748400,7.068748291015625,-0.9703859090805054,0.6111551523208618,-0.5312271118164062
1761391578509815600,7.078815673828125,-0.8503018617630005,0.6958569884300232,-0.49758848547935486
1761391578519881200,7.088881103515625,-0.7211731672286987,0.6848623156547546,-0.4354742169380188
1761391578529947400,7.098947509765625,-0.595391571521759,0.5893102288246155,-0.3586185872554779
1761391578540013300,7.109013427734375,-0.47203779220581055,0.43267497420310974,-0.2677493095397949
1761391578550079200,7.119079345703125,-0.35029590129852295,0.244591623544693,-0.17752939462661743
1761391578560145400,7.1291455078125,-0.23963382840156555,0.045733943581581116,-0.09992365539073944
1761391578570212400,7.13921240234375,-0.1501886248588562,-0.10325606912374496,-0.041339438408613205
1761391578580278300,7.1492783203125,-0.09250469505786896,-0.19573365151882172,0.00006783008575439453
1761391578590344400,7.159344482421875,-0.06884144246578217,-0.23412925004959106,0.00318612577393651
1761391578600410400,7.169410400390625,-0.08077496290206909,-0.2263745665550232,-0.02522054873406887
1761391578610476300,7.179476318359375,-0.11842939257621765,-0.1906179040670395,-0.08391129225492477
1761391578620542200,7.189542236328125,-0.1666814535856247,-0.15005432069301605,-0.16801118850708008
1761391578630609200,7.199609130859375,-0.21627403795719147,-0.10524424910545349,-0.26093047857284546
1761391578640675300,7.20967529296875,-0.24658413231372833,-0.02897172048687935,-0.3093668818473816
1761391578650741200,7.2197412109375,-0.2574234902858734,0.09335818886756897,-0.315353661775589
1761391578660807400,7.229807373046875,-0.24410346150398254,0.1874893605709076,-0.29313939809799194
1761391578670873300,7.239873291015625,-0.20010565221309662,0.25816914439201355,-0.241539865732193
1761391578680939500,7.249939453125,-0.12760011851787567,0.2860574424266815,-0.16945283114910126
1761391578691005400,7.26000537109375,-0.03009326010942459,0.28138467669487,-0.08836650103330612
1761391578701072400,7.270072265625,0.06523025035858154,0.24831829965114594,-0.01049323845654726
1761391578711138300,7.28013818359375,0.1408941149711609,0.17894268035888672,0.06548009067773819
1761391578721204200,7.290204345703125,0.20683546364307404,0.07902836799621582,0.13251559436321259
1761391578731270400,7.3002705078125,0.2661115527153015,-0.023676972836256027,0.19084441661834717
1761391578741336300,7.31033642578125,0.3127005100250244,-0.1195753961801529,0.24815396964550018
1761391578751402500,7.320402587890625,0.34441423416137695,-0.19000454246997833,0.29188787937164307
1761391578761469400,7.330469482421875,0.3656769096851349,-0.2168765366077423,0.33059224486351013
1761391578771535400,7.340535400390625,0.38389214873313904,-0.18176116049289703,0.36941102147102356
1761391578781601500,7.3506015625,0.392937570810318,-0.06815097481012344,0.4240795969963074
1761391578791667500,7.36066748046875,0.4107522666454315,0.14588241279125214,0.507641077041626
1761391578801733400,7.3707333984375,0.42817434668540955,0.35600554943084717,0.6175285577774048
1761391578811799300,7.38079931640625,0.4242951571941376,0.4758877456188202,0.7020320296287537
1761391578821866200,7.3908662109375,0.38407474756240845,0.4675576090812683,0.6992552876472473
1761391578831932400,7.400932373046875,0.330386221408844,0.3516041040420532,0.5886417031288147
1761391578841998300,7.410998291015625,0.2822643220424652,0.160687655210495,0.3911097049713135
1761391578852064300,7.421064208984375,0.2784184515476227,-0.06837747246026993,0.20632760226726532
1761391578862130400,7.43113037109375,0.31142693758010864,-0.3025036156177521,-0.0023796269670128822
1761391578872196400,7.4411962890625,0.34517398476600647,-0.5026217699050903,-0.1849805861711502
1761391578882263300,7.45126318359375,0.3443300724029541,-0.6219741106033325,-0.31687435507774353
1761391578892329500,7.46132958984375,0.31421583890914917,-0.60819011926651,-0.3747938573360443
1761391578902395100,7.47139501953125,0.25735169649124146,-0.4375813603401184,-0.335365891456604
1761391578912461300,7.48146142578125,0.19440335035324097,-0.1293012946844101,-0.2301848828792572
1761391578922527200,7.49152734375,0.12925979495048523,0.242807075381279,-0.09075697511434555
1761391578932593400,7.501593505859375,0.08227630704641342,0.5619949102401733,0.02790869027376175
1761391578942660400,7.511660400390625,0.07314861565828323,0.7743377089500427,0.10155975818634033
1761391578952726300,7.521726318359375,0.12083118408918381,0.8721156716346741,0.13224390149116516
1761391578962792400,7.53179248046875,0.2082190066576004,0.8750782012939453,0.1357337385416031
1761391578972858400,7.5418583984375,0.3145877718925476,0.8148020505905151,0.13852474093437195
1761391578982924500,7.551924560546875,0.4179958403110504,0.7546315789222717,0.14133034646511078
1761391578992990200,7.561990234375,0.5114970207214355,0.677585244178772,0.14798451960086823
1761391579003056400,7.572056396484375,0.605036199092865,0.5861421227455139,0.15397906303405762
1761391579013123300,7.582123291015625,0.6727915406227112,0.4987686574459076,0.15199047327041626
1761391579023189200,7.592189208984375,0.7331094145774841,0.41472214460372925,0.13482823967933655
1761391579033255400,7.60225537109375,0.7905564904212952,0.3306610584259033,0.10852445662021637
1761391579043321300,7.6123212890625,0.782037079334259,0.2862842381000519,0.058213744312524796
1761391579053387500,7.622387451171875,0.7620351910591125,0.1380218267440796,0.011710690334439278
1761391579063453400,7.632453369140625,0.7569003105163574,-0.05070194602012634,-0.032436538487672806
1761391579073520400,7.642520263671875,0.7538688778877258,-0.20117135345935822,-0.07630226761102676
1761391579083586600,7.652586669921875,0.7167782187461853,-0.32813090085983276,-0.10955318063497543
1761391579093652200,7.66265234375,0.6354775428771973,-0.4032056927680969,-0.14539054036140442
1761391579103718400,7.672718505859375,0.5075342059135437,-0.43121838569641113,-0.18972890079021454
1761391579113784300,7.682784423828125,0.36548253893852234,-0.4087327718734741,-0.2678399384021759
1761391579123850200,7.692850341796875,0.23808887600898743,-0.34948834776878357,-0.35239148139953613
1761391579133917400,7.70291748046875,0.14306356012821198,-0.2590026557445526,-0.42682841420173645
1761391579143983400,7.7129833984375,0.08778303116559982,-0.12270504236221313,-0.4593607187271118
1761391579154049300,7.72304931640625,0.06360125541687012,0.043235186487436295,-0.4371853768825531
1761391579164115500,7.733115478515625,0.07562476396560669,0.19138218462467194,-0.37459611892700195
1761391579174181400,7.743181396484375,0.11850618571043015,0.31403592228889465,-0.2774248421192169
1761391579184247300,7.753247314453125,0.1694517731666565,0.3897467851638794,-0.18585149943828583
1761391579194313200,7.763313232421875,0.2101089209318161,0.4029794931411743,-0.12109939754009247
1761391579204380200,7.773380126953125,0.23962169885635376,0.36134472489356995,-0.10018936544656754
1761391579214446300,7.7834462890625,0.25542595982551575,0.2812677323818207,-0.12172315269708633
1761391579224512300,7.79351220703125,0.2699401080608368,0.16345250606536865,-0.16164980828762054
1761391579234578400,7.803578369140625,0.29430001974105835,0.0517379529774189,-0.1866249293088913
1761391579244644400,7.813644287109375,0.3333267867565155,-0.0373770110309124,-0.1487840712070465
1761391579254710500,7.82371044921875,0.38853785395622253,-0.0744042694568634,-0.04852058365941048
1761391579264777500,7.833777587890625,0.4273545444011688,-0.09960434585809708,0.0819009393453598
1761391579274843400,7.843843505859375,0.4527363181114197,-0.12452460825443268,0.19778066873550415
1761391579284909300,7.853909423828125,0.4688248932361603,-0.11404384672641754,0.2761758863925934
1761391579294975200,7.863975341796875,0.48179981112480164,-0.10307668149471283,0.29242515563964844
1761391579305041400,7.87404150390625,0.49407708644866943,-0.10874036699533463,0.23332244157791138
1761391579315107300,7.884107421875,0.5085023641586304,-0.12473185360431671,0.13780470192432404
1761391579325174300,7.89417431640625,0.5185043215751648,-0.11547666043043137,0.020047584548592567
1761391579335240400,7.904240478515625,0.49772530794143677,-0.0712231770157814,-0.10197499394416809
1761391579345306400,7.914306396484375,0.43756377696990967,-0.025871001183986664,-0.22074680030345917
1761391579355372500,7.92437255859375,0.3605233132839203,-0.013353079557418823,-0.32310619950294495
1761391579365438500,7.9344384765625,0.28743886947631836,-0.025996100157499313,-0.38131284713745117
1761391579375504100,7.944504150390625,0.20997656881809235,-0.037617869675159454,-0.36741700768470764
1761391579385570600,7.954570556640625,0.16987191140651703,-0.04599201679229736,-0.26126718521118164
1761391579395636500,7.964636474609375,0.16868306696414948,-0.06439445912837982,-0.09837838262319565
1761391579405702700,7.97470263671875,0.2169511765241623,-0.09957167506217957,0.08975820243358612
1761391579415768600,7.9847685546875,0.29056549072265625,-0.16763834655284882,0.27209070324897766
1761391579425834800,7.994834716796875,0.3836212456226349,-0.25619229674339294,0.41763371229171753
1761391579435900700,8.004900634765624,0.471744179725647,-0.31154289841651917,0.5252576470375061
1761391579445966800,8.014966796875,0.5753124356269836,-0.28086593747138977,0.5918582677841187
1761391579456033800,8.02503369140625,0.6761327385902405,-0.2264767587184906,0.6279646158218384
1761391579466099700,8.035099609375,0.7309221625328064,-0.17395268380641937,0.6295613646507263
1761391579476165600,8.04516552734375,0.7106712460517883,-0.13363775610923767,0.5887481570243835
1761391579486231600,8.0552314453125,0.6231975555419922,-0.22404341399669647,0.4872508943080902
1761391579496297500,8.06529736328125,0.4952649176120758,-0.4231296181678772,0.3129778802394867
1761391579506363600,8.07536376953125,0.34913158416748047,-0.6068527698516846,0.10079247504472733
1761391579516430600,8.0854306640625,0.20827487111091614,-0.6900733113288879,-0.10756712406873703
1761391579526496800,8.095496826171875,0.05096336454153061,-0.627402126789093,-0.2780440151691437
1761391579536562700,8.105562744140625,-0.07700871676206589,-0.4258946180343628,-0.3745311498641968
1761391579546628600,8.115628662109375,-0.1420794278383255,-0.1379406452178955,-0.3746601641178131
1761391579556694800,8.12569482421875,-0.12657290697097778,0.14695847034454346,-0.3108380436897278
1761391579566760400,8.135760498046874,-0.017170628532767296,0.4127274453639984,-0.21214893460273743
1761391579576827600,8.14582763671875,0.1574600338935852,0.6246570348739624,-0.12475890666246414
1761391579586893600,8.1558935546875,0.35393574833869934,0.6976527571678162,-0.07570332288742065
1761391579596959500,8.16595947265625,0.5401207804679871,0.6423138976097107,-0.04696755111217499
1761391579607025700,8.176025634765624,0.704642653465271,0.5347777009010315,-0.00476049305871129
1761391579617091600,8.186091552734375,0.8465412259101868,0.44289785623550415,0.06545455008745193
1761391579627157800,8.19615771484375,0.9587222337722778,0.367858350276947,0.17382976412773132
1761391579637224700,8.206224609375,1.0322227478027344,0.28178203105926514,0.30728450417518616
1761391579647290600,8.21629052734375,1.0599205493927002,0.16382887959480286,0.429377943277359
1761391579657356800,8.226356689453125,1.0542930364608765,-0.001773938536643982,0.5169996619224548
1761391579667422500,8.23642236328125,1.0119097232818604,-0.17772835493087769,0.5498268008232117
1761391579677488600,8.246488525390625,0.9286587238311768,-0.3474566638469696,0.5158661603927612
1761391579687554600,8.256554443359375,0.816191554069519,-0.5035674571990967,0.42799198627471924
1761391579697620700,8.266620849609374,0.6899444460868835,-0.5999763011932373,0.3090786635875702
1761391579707687700,8.276687744140625,0.5458893179893494,-0.6522039175033569,0.17001156508922577
1761391579717753600,8.286753662109374,0.395737886428833,-0.6370691657066345,0.008902573958039284
1761391579727819800,8.29681982421875,0.2449166178703308,-0.529455840587616,-0.14442507922649384
1761391579737885700,8.3068857421875,0.10754330456256866,-0.333168625831604,-0.27087515592575073
1761391579747951900,8.316951904296875,-0.011598100885748863,-0.10064756870269775,-0.34968486428260803
1761391579758017500,8.327017578125,-0.0887184590101242,0.09495095908641815,-0.35753747820854187
1761391579768084500,8.33708447265625,-0.10901899635791779,0.29469963908195496,-0.2616642117500305
1761391579778150700,8.347150634765624,-0.05446626991033554,0.474132776260376,-0.08751187473535538
1761391579788216600,8.357216552734375,0.055124010890722275,0.5911104083061218,0.09595586359500885
1761391579798282500,8.367282470703126,0.19883882999420166,0.6398837566375732,0.23009555041790009
1761391579808348700,8.3773486328125,0.3515470623970032,0.6347414255142212,0.28151628375053406
1761391579818414600,8.38741455078125,0.5111492872238159,0.5516958236694336,0.25392913818359375
1761391579828481800,8.397481689453125,0.6776373982429504,0.42197155952453613,0.18334326148033142
1761391579838547700,8.407547607421876,0.8516308069229126,0.29176828265190125,0.09577292948961258
1761391579848613600,8.417613525390625,1.0099191665649414,0.15762223303318024,0.03925549238920212
1761391579858679600,8.427679443359375,1.1110018491744995,0.04995302855968475,0.03155576065182686
1761391579868745500,8.437745361328124,1.1522566080093384,-0.053174279630184174,0.05261094495654106
1761391579878811600,8.447811767578125,1.148099660873413,-0.13818851113319397,0.06293309479951859
1761391579888878600,8.457878662109374,1.1203693151474,-0.18294215202331543,0.03838905319571495
1761391579898944500,8.467944580078125,1.0934040546417236,-0.20935457944869995,-0.03946606442332268
1761391579909010700,8.4780107421875,1.0642220973968506,-0.20498958230018616,-0.13202603161334991
1761391579919076600,8.48807666015625,1.0216566324234009,-0.22501522302627563,-0.21799179911613464
1761391579929142800,8.498142822265624,0.9488728046417236,-0.2820698916912079,-0.25013455748558044
1761391579939208700,8.508208740234375,0.9049495458602905,-0.27155041694641113,-0.2028283178806305
1761391579949275600,8.518275634765626,0.9137568473815918,-0.16017521917819977,-0.12412874400615692
1761391579959341600,8.528341552734375,0.9520033001899719,-0.02159016765654087,-0.05401516705751419
1761391579969407500,8.538407470703126,0.9995598196983337,0.09741876274347305,-0.006164697930216789
1761391579979473700,8.5484736328125,1.0259860754013062,0.19622576236724854,0.02350318245589733
1761391579989539600,8.55853955078125,1.0129119157791138,0.2674274444580078,0.05108137056231499
1761391579999605800,8.568605712890625,0.9776332378387451,0.3157646059989929,0.040478795766830444
1761391580009671700,8.578671630859375,0.9490469694137573,0.3685973584651947,-0.007307794410735369
1761391580019738600,8.588738525390625,0.9223124980926514,0.4716891348361969,-0.052514951676130295
1761391580029804800,8.5988046875,0.9127958416938782,0.5191605091094971,-0.08698197454214096
1761391580039870700,8.60887060546875,0.937238872051239,0.5129164457321167,-0.1010703593492508
1761391580049936600,8.6189365234375,0.9978843331336975,0.5051631927490234,-0.0814804956316948
1761391580060002600,8.62900244140625,1.0938425064086914,0.4996512532234192,-0.05469362065196037
1761391580070068500,8.639068359375,1.2225333452224731,0.4443832039833069,-0.034186746925115585
1761391580080135700,8.6491357421875,1.3629354238510132,0.31592777371406555,-0.014669489115476608
1761391580090201600,8.65920166015625,1.502925992012024,0.1473383605480194,0.006271385122090578
1761391580100267800,8.669267822265626,1.623643398284912,0.04650150239467621,0.03329341486096382
1761391580110333700,8.679333740234375,1.7048259973526,0.06897173076868057,0.07246064394712448
1761391580120399600,8.689399658203126,1.7364592552185059,0.14606384932994843,0.11044397205114365
1761391580130465800,8.6994658203125,1.7430204153060913,0.2639206647872925,0.14011536538600922
1761391580140532700,8.70953271484375,1.758436918258667,0.39359185099601746,0.16624364256858826
1761391580150598400,8.719598388671875,1.790496587753296,0.4753348231315613,0.18571245670318604
1761391580160664600,8.72966455078125,1.8294063806533813,0.4654473066329956,0.19625218212604523
1761391580170730500,8.73973046875,1.8665962219238281,0.37106338143348694,0.2050633579492569
1761391580180796700,8.749796630859375,1.8854827880859375,0.2196677327156067,0.2063688337802887
1761391580190862600,8.759862548828124,1.8752251863479614,0.07297248393297195,0.19022826850414276
1761391580200929500,8.769929443359375,1.8468705415725708,-0.060605015605688095,0.1696167290210724
1761391580210995700,8.77999560546875,1.8128693103790283,-0.12550541758537292,0.14698143303394318
1761391580221061600,8.7900615234375,1.7863707542419434,-0.0909021645784378,0.13272792100906372
1761391580231127800,8.8001279296875,1.7705925703048706,0.007410697638988495,0.11176768690347672
1761391580241193500,8.810193359375,1.7600735425949097,0.13567546010017395,0.09445394575595856
1761391580251259600,8.820259765625,1.7677274942398071,0.26211926341056824,0.1004641130566597
1761391580261326600,8.83032666015625,1.7906038761138916,0.4035472273826599,0.13833560049533844
1761391580271392500,8.840392578125,1.8061330318450928,0.5259310007095337,0.1869443953037262
1761391580281458700,8.850458740234375,1.7574076652526855,0.6699041724205017,0.29227161407470703
1761391580291524600,8.860524658203126,1.5808439254760742,0.6637395620346069,0.44292476773262024
1761391580301590800,8.8705908203125,1.3366724252700806,0.5494478344917297,0.33066079020500183
1761391580311656700,8.88065673828125,1.2640234231948853,0.3672451376914978,0.21021699905395508
1761391580321722600,8.89072265625,1.2994461059570312,0.20743738114833832,0.07565732300281525
1761391580331789800,8.900789794921875,1.3541585206985474,0.12116885185241699,-0.034773293882608414
1761391580341855500,8.91085546875,1.3955596685409546,0.07397124171257019,-0.17061102390289307
1761391580351921700,8.920921630859375,1.3631477355957031,0.08302929997444153,-0.27419179677963257
1761391580361987600,8.930987548828124,1.2867512702941895,0.2658901810646057,-0.31239083409309387
1761391580372053500,8.941053466796875,1.262953758239746,0.47115764021873474,-0.2662454843521118
1761391580382119200,8.951119140625,1.2774122953414917,0.538565456867218,-0.2082066684961319
