time,seconds_elapsed,z,y,x
1761391507170798000,0.084798095703125,0.2712906375288963,0.07840752882054075,0.22906959852352737
1761391507180865000,0.094864990234375,0.33344109649360176,-0.008347173514124005,0.09841163971759379
1761391507190931200,0.10493115234375,0.4687573294341564,-0.025626480823475867,-0.04569185692109167
1761391507200997000,0.1149970703125,0.7106681432217359,-0.058745984283462165,-0.16450732917673885
1761391507211063000,0.12506298828125,1.0323445676416159,0.06416525111952796,-0.27017091278396543
1761391507221129000,0.13512890625,1.387625740021467,0.13615796272801234,-0.29930786768011747
1761391507231196000,0.14519580078125,1.608817590907216,0.12237327433507889,-0.2298757272746414
1761391507241262000,0.155261962890625,1.4692121363401411,-0.05163606094671413,-0.15819135096296666
1761391507251328000,0.165327880859375,1.0466080707937477,-0.3048277270801365,-0.12296258199773728
1761391507261394000,0.175393798828125,0.5048503870785236,-0.49313664147444064,-0.1873484718643129
1761391507271460000,0.185460205078125,0.04830488896369934,-0.6301344708263874,-0.29511005066409707
1761391507281526000,0.195526123046875,-0.3221019563555717,-0.6524277703728526,-0.35815482812002297
1761391507291593000,0.205593017578125,-0.5509644879996777,-0.5354706393349915,-0.3713271019693464
1761391507301659100,0.2156591796875,-0.6861807676970958,-0.2989258826252073,-0.33582200028076764
1761391507311725000,0.22572509765625,-0.7115431724905967,-0.09064288714593276,-0.21908274977728723
1761391507321791200,0.235791259765625,-0.7389964120835065,0.004943059592484496,0.02548157419376075
1761391507331857200,0.245857177734375,-1.0144108515441417,-0.08812069345824419,0.2858157142266631
1761391507341924000,0.255924072265625,-1.4079501506477594,-0.1710805883535184,0.4364010471653193
1761391507351990300,0.265990234375,-1.693490847325325,-0.04338338361589703,0.4132159133456647
1761391507362056200,0.27605615234375,-1.85374103051424,0.0745876326056663,0.3617550445690751
1761391507372122400,0.286122314453125,-1.8136936822861431,0.07482135916315019,0.4177267418336123
1761391507382188000,0.29618798828125,-1.596178474086523,0.13148281052382663,0.4994901752196252
1761391507392254200,0.306254150390625,-1.2677408849686382,0.17504980251174418,0.5057929286256432
1761391507402321200,0.316321044921875,-0.9411170672744512,0.1494757825278677,0.4924550889510661
1761391507412387000,0.326386962890625,-0.6255050574600696,0.12282072584163396,0.522835175776109
1761391507422453200,0.336453369140625,-0.48437049362957474,0.060179889544099564,0.45977432396821677
1761391507432519200,0.346519287109375,-0.4005184904664755,-0.00696361020123586,0.295734539237991
1761391507442585300,0.35658544921875,-0.227075648227334,0.0021671331723220645,0.15854834770709275
1761391507452652300,0.36665234375,-0.015488661032915114,-0.016263983653811737,0.11700389278903603
1761391507462718200,0.37671826171875,0.20220015016794204,-0.07122441238341852,0.17682978126369417
1761391507472784400,0.386784423828125,0.2696802797228098,-0.1260129094790667,0.29503990803733465
1761391507482850000,0.39685009765625,0.2321001983910799,-0.09828903625123202,0.4079452794663608
1761391507492916200,0.406916259765625,0.11352525689303875,-0.07275192334479652,0.4935680916942656
1761391507502983200,0.416983154296875,0.04078676841855049,0.010422847277019172,0.5094961670577526
1761391507513049000,0.427049072265625,-0.11958616436719893,-0.14657920256983487,0.5603608235068619
1761391507523115300,0.437115234375,-0.27620471305549144,-0.43193844173327084,0.8459880294241011
1761391507533181200,0.44718115234375,-0.18167758662104605,-0.338115371914953,0.7983091634042561
1761391507543247000,0.4572470703125,-0.2999351327329874,-0.13818908496312796,0.40686493688374753
1761391507553313300,0.467313232421875,-0.3517828088700771,-0.13175662249652667,0.20993352089896797
1761391507563380200,0.477380126953125,-0.40100422815680503,-0.27451230298914014,0.30338863418772816
1761391507573446400,0.4874462890625,-0.4569850585758686,-0.4585561438174918,0.3233319365419447
1761391507583512000,0.497511962890625,-0.5236030183434486,-0.5563276590006425,0.16061521710902452
1761391507593578000,0.507577880859375,-0.6542056667655706,-0.5730830520337448,0.016695990996062754
1761391507603644200,0.51764404296875,-0.7624363243818283,-0.5806724842494353,0.0051435003682971
1761391507613711000,0.527711181640625,-0.7830272769898176,-0.4658519999140873,0.03145195384025574
1761391507623777000,0.537777099609375,-0.7174766541928053,-0.2682582475630566,0.05222513114735484
1761391507633843200,0.54784326171875,-0.6673796211153269,-0.1497503342860844,0.04091346353814006
1761391507643909000,0.5579091796875,-0.6435422339320183,-0.2096510506957769,-0.05092924611791968
1761391507653975300,0.567975341796875,-0.5434405222356319,-0.3236625932684168,-0.20095000397637486
1761391507664042200,0.578042236328125,-0.40692017420232296,-0.3528574523642659,-0.3605266718178987
1761391507674108200,0.588108154296875,-0.2149894891142845,-0.3735460931930691,-0.4840286944545805
1761391507684174000,0.598174072265625,-0.07572364176511764,-0.40477391942124813,-0.5738118412323295
1761391507694240000,0.608239990234375,0.0669505527228117,-0.4256302814997732,-0.6998109413817525
1761391507704306200,0.61830615234375,0.14137304876148699,-0.4469289074530825,-0.7089968490086496
1761391507714373000,0.628373046875,0.21391922953426837,-0.39881300172284245,-0.66904287815243
1761391507724439000,0.63843896484375,0.208714646628499,-0.29761881861463185,-0.48330987866073843
1761391507734505200,0.648505126953125,0.10068038836717605,-0.16883003294775262,-0.2352246140219271
1761391507744571100,0.658571044921875,-0.0011035773277282715,-0.046566603062162176,-0.09506123331114649
1761391507754637300,0.66863720703125,-0.04565349767208099,0.021729761079302988,-0.004712269344180822
1761391507764703200,0.678703125,-0.12457739678323268,-0.0036799899872625246,0.04630816218852996
1761391507774770200,0.688770263671875,-0.2530173142135143,-0.04710543634633068,-0.016758973229676483
1761391507784836000,0.698836181640625,-0.23235154280364512,-0.06744035010032821,-0.05112886034324765
1761391507794902000,0.708902099609375,-0.15655600484609603,-0.1512457604756113,-0.06677168902456761
1761391507804968200,0.71896826171875,-0.0723620563775301,-0.2736518867675215,-0.124070470174402
1761391507815034000,0.7290341796875,-0.07072130343317985,-0.40910354612339284,-0.22617007768973707
1761391507825101000,0.73910107421875,-0.30599837829470633,-0.6037719856122509,-0.3800719147652387
1761391507835167200,0.749167236328125,-0.7052326741695404,-0.7457552386939525,-0.5117627968154848
1761391507845233200,0.759233154296875,-1.0447194805681705,-0.8265080337326973,-0.6377135277785361
1761391507855299300,0.76929931640625,-1.1709154184639454,-0.9052221625506878,-0.7200402210704981
1761391507865365200,0.779365234375,-1.1357722088903188,-1.095486521861702,-0.734220137592405
1761391507875432200,0.78943212890625,-0.9966881478488445,-1.2375057595722376,-0.7549338397972285
1761391507885498400,0.799498291015625,-0.8524906893163919,-1.247189387588203,-0.7432168062575161
1761391507895564000,0.80956396484375,-0.8834089746713638,-1.4096641149587927,-0.6742362090118229
1761391507905630200,0.819630126953125,-1.0670844571113587,-1.481985985456407,-0.485299737303704
1761391507915696000,0.829696044921875,-1.25710726275146,-1.4410267830803989,-0.3255979817777872
1761391507925762300,0.83976220703125,-1.3563789533644914,-1.139983835235983,-0.20326982522606848
1761391507935829200,0.849829345703125,-1.423661514520645,-0.7027981404989957,0.06743000680282711
1761391507945895200,0.859895263671875,-1.4079869755268095,-0.6500231203839183,0.38401904495581984
1761391507955961300,0.86996142578125,-1.1954694294840096,-0.973895739673823,0.46209772541448474
1761391507966027300,0.88002734375,-1.1840987251639365,-1.2858031958818434,0.18570611148476598
1761391507976093000,0.890093017578125,-1.478627030417323,-1.6713063419155776,-0.13352262752205132
1761391507986160400,0.900160400390625,-1.7671031960248946,-1.9328890937700867,-0.2552539872244
1761391507996226000,0.91022607421875,-1.9829478406637906,-2.1355244204849004,-0.13653934499472378
1761391508006292200,0.920292236328125,-1.9740999328196047,-2.2213579528540373,-0.058657940673828124
1761391508016358100,0.930358154296875,-1.9338959327250718,-1.8961330421723424,-0.24905674001947045
1761391508026424000,0.940424072265625,-2.2073177370637653,-1.557164268298447,-0.42931350005716085
1761391508036491300,0.9504912109375,-2.5411387727856636,-1.4150623207405209,-0.3338862099125981
1761391508046557200,0.96055712890625,-2.7238591464579103,-1.1292274634219706,-0.04397577371820807
1761391508056623000,0.970623046875,-2.8819144499510525,-0.7961562962193042,0.34799510702490805
1761391508066689300,0.980689208984375,-2.9328327362835407,-0.5163710943285376,0.7415864285767078
1761391508076755200,0.990755126953125,-2.8263749335587023,-0.4429875859487801,1.098899106784165
1761391508086821000,1.000821044921875,-2.5052076277047393,-0.3687265640821308,1.1101878319092093
1761391508096888000,1.01088818359375,-1.9874767162650822,-0.015875833719596267,0.7401179634593427
1761391508106954000,1.0209541015625,-1.212871230661869,0.23179537022560834,0.42387043222039933
1761391508117020200,1.031020263671875,-0.4225719168424606,0.18947218602001667,0.574727640902996
1761391508127086000,1.041086181640625,0.12711480630636215,0.09041355363577604,0.865454215785861
1761391508137152300,1.05115234375,0.182712774887681,-0.10481982625946402,1.1496721394270657
1761391508147219200,1.06121923828125,-0.18119477154016495,-0.22958470843881368,1.3671836943648754
1761391508157285000,1.07128515625,-0.7717968579232692,0.03219385824874043,1.144854510012269
1761391508167351300,1.081351318359375,-1.3485925372719765,0.5781342344760895,0.6038708794094622
1761391508177417200,1.091417236328125,-1.6792910570591688,1.000045933844149,0.171074213411659
1761391508187483100,1.101483154296875,-1.6277841571837663,1.1903671379089356,-0.08193184875547885
1761391508197550000,1.111550048828125,-1.2243307823091745,1.2859984261929989,-0.21166282890960572
1761391508207616000,1.121615966796875,-0.6077987203776836,1.2536099221549928,-0.12266849442198872
1761391508217682200,1.13168212890625,-0.08364332884848118,1.1234085480101406,0.17253025743886827
1761391508227748000,1.141748046875,0.15274842925667761,0.9276758402906358,0.4248367930345237
1761391508237814300,1.151814208984375,0.06699088473320007,0.7314727385804056,0.47981838328316806
1761391508247880200,1.161880126953125,-0.08851941045224666,0.7808275749884546,0.3035672056250274
1761391508257947100,1.171947021484375,-0.2125450185716152,1.1226470621183513,0.023790698497369884
1761391508268013300,1.182013427734375,-0.35395196960270403,1.4449123923420906,-0.20279373214691876
1761391508278079200,1.192079345703125,-0.2843757445514202,1.6285621558189392,-0.3926525063317269
1761391508288145200,1.202145263671875,0.10619242978692055,1.7532812991604207,-0.5942341592751443
1761391508298211000,1.212211181640625,0.5262082324057817,1.7823460656031964,-0.7363437056176364
1761391508308278000,1.222278076171875,0.8893407028079032,1.609175610564649,-0.7513429026331752
1761391508318344400,1.232344482421875,1.244253626397252,1.3112044713810085,-0.6118798522114753
1761391508328410000,1.24241015625,1.5157435858905315,0.9458318208366632,-0.38940117638558147
1761391508338476300,1.252476318359375,1.5586352176338434,0.5994397650942206,-0.26133922542221844
1761391508348542200,1.262542236328125,1.2962509401381015,0.3312053002655506,-0.31622626925520597
1761391508358609200,1.272609130859375,0.8195914592772722,0.2280707967445254,-0.45344183301106095
1761391508368675300,1.28267529296875,0.319684373819828,0.41010143458694215,-0.6451295031234622
1761391508378741200,1.2927412109375,0.007510521760582923,0.7278536713004112,-0.8212404685933142
1761391508388807400,1.302807373046875,-0.19123861117064953,1.0463380216807125,-0.908320932283625
1761391508398873300,1.312873291015625,-0.11988134792149066,1.2326000134825705,-0.8916755754962563
1761391508408939300,1.322939208984375,0.11987842531204224,1.264983110693097,-0.8413458296414464
1761391508419006500,1.33300634765625,0.46795828801095485,1.1742612217605113,-0.7609533192824572
1761391508429072100,1.343072021484375,0.7923585844367742,1.1029162334710358,-0.8256915297180414
1761391508439138000,1.353137939453125,1.063487893924117,1.1052575359001755,-0.9100834119115024
1761391508449204200,1.363204345703125,1.0859452249258756,1.0718702300831675,-0.9567945288777351
1761391508459270100,1.373270263671875,0.9657470661401748,1.1521774002462626,-1.0034176752995698
1761391508469337300,1.38333740234375,0.9616460605621338,1.376189861510694,-1.0041363449629395
1761391508479403300,1.3934033203125,0.9406061951428651,1.588324545715749,-0.9665114746414124
1761391508489469200,1.40346923828125,1.0334107355684041,1.7088140886634586,-0.8775705508414655
1761391508499535400,1.413535400390625,1.2563169891566037,1.715257273453474,-0.8406530981369316
1761391508509601300,1.423601318359375,1.4634206934571266,1.4938196311131118,-0.8659963598385453
1761391508519668200,1.433668212890625,1.43530869769454,1.0497153891593218,-0.9461854565799236
1761391508529734100,1.443734130859375,1.3620125753372907,1.4526611067727206,-1.1398336861755698
1761391508539800000,1.453800048828125,1.319530693438649,1.6359657100737095,-1.265434361591935
1761391508549866200,1.4638662109375,1.4117951356381178,1.3642781821817158,-1.0577477428369224
1761391508559932200,1.47393212890625,1.4990496407210827,1.052064582633972,-0.8039868437144905
1761391508569998300,1.483998291015625,1.526725583153963,0.9142921887129545,-0.5785845720594749
1761391508580065300,1.494065185546875,1.4300246198117732,0.7826131432309746,-0.4368129159018397
1761391508590131200,1.504131103515625,1.1498328829467297,0.6632718935355544,-0.23684235141687093
1761391508600197400,1.514197265625,0.8301134378135204,0.6785930890470743,-0.13605733363144099
1761391508610263300,1.52426318359375,0.583396100527048,0.7217658758193254,-0.1875822075549513
1761391508620329200,1.5343291015625,0.3461819201231003,0.7920943805426359,-0.330434681219235
1761391508630396400,1.544396484375,-0.03250409324169159,0.9074269791185855,-0.38798338200952853
1761391508640462000,1.554462158203125,-0.16911270408034323,0.7943821992188692,-0.6179503312315792
1761391508650528300,1.5645283203125,0.15925532693266867,0.5165297189563512,-0.8868585306033492
1761391508660594200,1.57459423828125,0.7192623685657977,0.2276385428071022,-0.888842251766473
1761391508670660400,1.584660400390625,1.1642518689215182,-0.1505056187659502,-0.5929127014130353
1761391508680726300,1.594726318359375,1.633081094548106,-0.5053197581559419,-0.00918093919083476
1761391508690793200,1.604793212890625,1.54957746643126,-0.47124797720611095,0.4614793012551963
1761391508700859400,1.614859375,1.3110282380312681,-0.17662614845037458,0.3899381328064948
1761391508710925300,1.62492529296875,1.4047463861703873,0.07230828036367892,0.28056685378775
1761391508720991200,1.6349912109375,1.7659996186971663,0.274558699414134,0.22640673598982392
1761391508731057200,1.64505712890625,2.030706201660633,0.39070787506997584,0.22835312081724404
1761391508741124000,1.6551240234375,1.5650766488581895,0.35153321802318094,0.2395918693207204
1761391508751190300,1.665190185546875,0.7232470542877912,0.26118191596865653,0.061377173037268216
1761391508761256200,1.675256103515625,-0.02997778963446617,0.26564795546680686,-0.18494433333203195
1761391508771322400,1.685322265625,-0.5706593685507774,0.22533640334457158,-0.41514165724385527
1761391508781388300,1.69538818359375,-0.8244763087093829,0.1027168626308441,-0.42906916990727184
1761391508791454200,1.7054541015625,-1.07545597961545,0.003775719146430492,-0.3721204808367416
1761391508801521400,1.715521484375,-1.247534547764063,-0.039923429587483406,-0.29219178859721867
1761391508811587300,1.72558740234375,-1.1151818408042191,-0.08462006492614746,-0.10076251369267701
1761391508821653200,1.7356533203125,-0.8079220642715692,-0.06240034207254648,-0.02094009483922273
1761391508831719200,1.74571923828125,-0.43235681327581404,0.041702421958744525,0.006710201695747673
1761391508841785000,1.75578515625,-0.1256786360234022,0.1521805662408471,-0.01814374211896211
1761391508851852300,1.765852294921875,0.15483283431529998,0.17717939841896294,-0.05125221272828057
1761391508861918200,1.775918212890625,0.42404725009202954,0.15036270316392183,-0.0799636174224317
1761391508871984000,1.785984130859375,0.6066875442653894,0.10688771857470274,-0.10901084820851684
1761391508882050300,1.79605029296875,0.6684300069510937,0.06255903976559639,-0.12320020841220393
1761391508892116200,1.8061162109375,0.6150093824088573,0.04221767800450325,-0.10403170808907598
1761391508902183200,1.81618310546875,0.31948680542111396,0.019782558834552762,-0.05817183765731752
1761391508912249300,1.826249267578125,0.02305997307002544,0.015032733958959578,0.01606015904424712
1761391508922315300,1.836315185546875,-0.1263151803612709,0.0081955814152956,0.054910808301065116
1761391508932381200,1.846381103515625,-0.15762217277288437,-0.012227028888463973,0.06563508621007204
1761391508942447000,1.856447021484375,-0.07683890953063964,0.008028700415790081,0.14035375218372792
1761391508952513300,1.86651318359375,-0.037701661884784694,0.09925006330311298,0.11025187951186671
1761391508962580200,1.876580322265625,-0.046505146065354344,0.21719752055257557,0.00029445290192961694
1761391508972646100,1.886646240234375,-0.034980712488293646,0.24607670129537582,-0.026492112076329066
1761391508982712300,1.89671240234375,-0.1810655922025442,0.23039397899508474,-0.04125476038963534
1761391508992778200,1.9067783203125,-0.30996611288189885,0.1875146222114563,0.032683176135644317
1761391509002844400,1.916844482421875,-0.35139936251044274,0.23460838181972501,0.08969305734150111
1761391509012911400,1.926911376953125,-0.2868646387577057,0.3896186185285449,0.09830738475867547
1761391509022977300,1.936977294921875,-0.26449206342995163,0.49893999399095773,0.07029353844120632
1761391509033043200,1.947043212890625,-0.238295545899868,0.5252203904122114,-0.04236314175664447
1761391509043109000,1.957109130859375,-0.10029343487620353,0.5005325238794088,-0.03909038542998023
1761391509053175300,1.96717529296875,0.15924363649487494,0.470516740322113,-0.01506480959765613
1761391509063241200,1.9772412109375,0.5212567474782467,0.3286956555321812,-0.0032646095528267322
1761391509073308200,1.98730810546875,0.751903239929676,0.23076573491692542,0.07345109372325241
1761391509083374300,1.997374267578125,0.8772691567420959,0.3228825853392482,0.06910352950561792
1761391509093440300,2.007440185546875,1.048010338807106,0.4243520782575011,0.08054899782864376
1761391509103506400,2.01750634765625,1.2333113766223192,0.46352059782445426,0.1435023158751428
1761391509113572400,2.027572265625,1.3372913910567759,0.45491234395503993,0.22888331870380788
1761391509123639300,2.037639404296875,1.3334031514465807,0.45665684953480956,0.3067361910499632
1761391509133705200,2.047705322265625,1.2048305475473404,0.4544900268897414,0.3564159485634416
1761391509143771100,2.057771240234375,0.8837380604952573,0.43833091924935574,0.29590938434824343
1761391509153837300,2.06783740234375,0.5037544085353612,0.43444852485805746,0.1734809822924435
1761391509163903200,2.0779033203125,-0.07880407212376594,0.44437955176383254,-0.10769136310778557
1761391509173970200,2.08797021484375,-0.4910357967376709,0.4815887539565563,-0.5249328787077218
1761391509184036400,2.098036376953125,-0.48993514201939103,0.4808604396820068,-0.7085389491733163
1761391509194102300,2.108102294921875,-0.25787352207303044,0.39092064103782176,-0.7861264120489359
1761391509204168200,2.118168212890625,0.1351344466328621,0.4192848579958081,-0.9002510961398482
1761391509214234400,2.128234375,0.4686877713292837,0.4771130698472261,-0.8528639065429567
1761391509224300000,2.138300048828125,0.5437415510088205,0.3292100347951054,-0.5802811103116721
1761391509234367500,2.148367431640625,0.5491273357003927,0.16747896539866924,-0.2043291980858892
1761391509244433200,2.15843310546875,0.48975452475547787,0.18877192879617213,0.03462546930983662
1761391509254499000,2.1684990234375,0.4058487455785274,0.35841567101329563,0.15054383188448844
1761391509264565200,2.178565185546875,0.2901514053434133,0.557489505854249,0.18822189369797707
1761391509274631200,2.188631103515625,0.2235118182659149,0.8749015508279204,0.17780381392762065
1761391509284698400,2.198698486328125,0.29373277096152306,1.1071043328106402,0.1777158433832228
1761391509294764300,2.208764404296875,0.24373627564907072,0.958109410868585,0.1229587095402181
1761391509304830200,2.218830322265625,0.3421925582259893,1.095394605794549,0.0806258807234466
1761391509314896400,2.228896484375,0.47759179327487944,1.2890297567129134,-0.28356311299428344
1761391509324962300,2.23896240234375,0.6557067189782857,1.2606895051524043,-0.4684861112773418
1761391509335028500,2.249028564453125,0.8935182807534933,1.0986556534171104,-0.5152510773226618
1761391509345095400,2.259095458984375,1.0049088637053967,0.9438958843380212,-0.5934229890227317
1761391509355161000,2.2691611328125,1.0741419744074343,0.8847826011121273,-0.7476970204114913
1761391509365227300,2.279227294921875,1.2422142295241356,1.0301002958461642,-0.7922561469756066
1761391509375293200,2.289293212890625,1.4178408455431462,1.168819907489419,-0.7358546069264411
1761391509385359400,2.299359375,1.6082418368458746,1.197630114649236,-0.5439695145457982
1761391509395426300,2.30942626953125,1.7557102798730133,1.1306532584413886,-0.3030670010179281
1761391509405492200,2.3194921875,1.7359534400016068,1.0218880555570125,-0.04940247494205832
1761391509415558400,2.329558349609375,1.6003998911738395,1.026150389176607,0.2133915523983538
1761391509425624300,2.339624267578125,1.3651502888411282,1.0515563408508897,0.3283937499761581
1761391509435690500,2.3496904296875,1.2181897953361271,1.0706827738642692,0.3142841222114861
1761391509445756200,2.359756103515625,0.9898568405240774,0.9963302743218838,-0.02030702110007405
1761391509455823000,2.369822998046875,0.7619710449576378,0.8010451642394065,-0.3716116910643875
1761391509465889300,2.37988916015625,0.6329354997217654,0.6151166421756148,-0.6139974288873374
1761391509475955200,2.389955078125,0.6729764182090758,0.5053063141524792,-0.72851798042804
1761391509486021400,2.400021484375,0.8457388769686222,0.38530923089683056,-0.615498627230525
1761391509496087300,2.41008740234375,1.010809027659893,0.23429814682677386,-0.35413916273787616
1761391509506154200,2.420154296875,1.1414596068769693,0.21207272488474846,-0.061427697648108
1761391509516220400,2.430220458984375,1.1006319219261407,0.43109936056062576,0.26629575185105203
1761391509526286300,2.440286376953125,0.7785317191362381,0.754344495601952,0.5008336987830698
1761391509536352500,2.4503525390625,0.4997925191670656,0.9177877757437527,0.501278081549704
1761391509546418200,2.460418212890625,0.3364566449224949,0.8321338377252221,0.38302155835106966
1761391509556485000,2.470485107421875,0.1912871264874935,0.5417603140637278,0.19620470914542673
1761391509566551300,2.48055126953125,-0.025574001717567442,0.09619944356083869,-0.09533610472977161
1761391509576617200,2.4906171875,-0.30737434282302856,-0.3738542092941701,-0.36525370033979415
1761391509586683400,2.500683349609375,-0.5571031368851661,-0.6612659605406225,-0.5411857290461659
1761391509596749300,2.510749267578125,-0.6409983946681023,-0.8067636880166829,-0.6321934491828084
1761391509606815200,2.520815185546875,-0.4815396541178226,-0.8866516829196364,-0.5455345719054341
1761391509616882400,2.53088232421875,-0.3691109602898359,-1.0647117366306482,-0.3931912163183093
1761391509626948400,2.5409482421875,-0.38670273108184333,-1.3151133153878152,-0.2767386738017201
1761391509637014300,2.55101416015625,-0.5494920773595571,-1.40215783098191,-0.3033241906493902
1761391509647080200,2.561080078125,-1.0306839409530162,-1.3766609861537813,-0.4397036689072847
1761391509657146000,2.57114599609375,-1.70737558029294,-1.4799268609695135,-0.5597419609561562
1761391509667213300,2.58121337890625,-2.2571172484993935,-1.418364138764888,-0.6272244285985827
1761391509677279200,2.591279296875,-2.7313118005514143,-1.3395314250685273,-0.6706234253421426
1761391509687345200,2.60134521484375,-3.090769381833076,-1.4766805725246668,-0.5948296409502625
1761391509697411300,2.611411376953125,-3.5932238136857744,-1.6762945055916905,-0.5233706708922982
1761391509707477200,2.621477294921875,-4.137528843796253,-1.811819705107808,-0.43512657025009394
1761391509717544200,2.631544189453125,-4.491116656261682,-1.654961794705689,-0.3810287770986557
1761391509727610400,2.6416103515625,-4.669654191291332,-1.2999492101341485,-0.40495355030447244
1761391509737676300,2.65167626953125,-4.680589426803588,-1.0631082469567656,-0.42145080385804173
1761391509747742200,2.6617421875,-4.444081348842382,-1.0355409525301307,-0.28756109658926726
1761391509757808000,2.67180810546875,-3.976399539685249,-1.0582170408491045,-0.021805004572868346
1761391509767874300,2.681874267578125,-3.3461031562954187,-0.9147603907465934,0.21918460271656512
1761391509777941200,2.691941162109375,-2.760511007028818,-0.7402887899816036,0.3767123752042651
1761391509788007200,2.702007080078125,-2.3195441863179207,-0.6468005050756037,0.48223932681977744
1761391509798073300,2.7120732421875,-1.8363018199354408,-0.6958450334254652,0.6036199733883142
1761391509808139300,2.72213916015625,-1.3698176961302757,-0.7072332003369927,0.7127130930528044
1761391509818205400,2.732205322265625,-0.984855671235919,-0.6268924201652407,0.6400649132102727
1761391509828272400,2.7422724609375,-0.6806202109605074,-0.5980005260713398,0.4906058808878064
1761391509838338300,2.75233837890625,-0.5021358674228191,-0.6042159665200859,0.4008186424568295
1761391509848404500,2.762404541015625,-0.3973182331204414,-0.6339165466483682,0.351671165189147
1761391509858470100,2.77247021484375,-0.3527186284154653,-0.6003427783485502,0.3371586557120085
1761391509868536300,2.782536376953125,-0.3163946846246719,-0.605641103952378,0.27904695074409247
1761391509878602200,2.792602294921875,-0.27479659982323645,-0.6378563703153282,0.2645572376206517
1761391509888669200,2.802669189453125,-0.278001533344388,-0.6556365763515234,0.1961019794233143
1761391509898735400,2.8127353515625,-0.1997796450227499,-0.6802168177913874,0.1037450366348028
1761391509908801300,2.82280126953125,-0.0748977123349905,-0.6595232815917581,-0.06043780982792377
1761391509918867500,2.832867431640625,0.05305822097063064,-0.4906767541669309,-0.19724735006615518
1761391509928933400,2.842933349609375,0.159939217543602,-0.35078685663528736,-0.25048735734447836
1761391509939000300,2.853000244140625,0.18129472478330133,-0.26027349588684734,-0.32019846082180736
1761391509949066500,2.86306640625,0.19068799155056476,-0.18744743872676042,-0.35467034700512884
1761391509959132200,2.873132080078125,0.04893091190755367,-0.13107391919568182,-0.4067119382791221
1761391509969198300,2.8831982421875,-0.11542612207829951,-0.15265932620111852,-0.491198732214421
1761391509979264300,2.89326416015625,-0.10086275919675826,-0.16960958421919495,-0.5460175331167877
1761391509989331200,2.903331298828125,0.011885083582997322,-0.11321772531382739,-0.6173692434079945
1761391509999397400,2.9133974609375,0.1844464668124914,-0.049299489491619164,-0.6394467813119292
1761391510009463300,2.92346337890625,0.3653010466128587,0.04750369211602956,-0.5467398560419678
1761391510019529200,2.933529296875,0.48353053567409515,0.15875209011826663,-0.4042565079510212
1761391510029595400,2.943595458984375,0.5377057779759168,0.20517470899932086,-0.26297844399660825
1761391510039661300,2.953661376953125,0.5699941826403141,0.0963479851860553,-0.20285569146722554
1761391510049728500,2.963728515625,0.5582061296910047,-0.08166837551370262,-0.236299988168478
1761391510059794200,2.973794189453125,0.5764876363128424,-0.15092599960248917,-0.25775720221698284
1761391510069860000,2.983860107421875,0.6006605390608311,-0.1360743943640962,-0.21201777982711792
1761391510079926300,2.99392626953125,0.5391816957473755,-0.12829301977287977,-0.12316153863593936
1761391510089992200,3.0039921875,0.4337088124066591,-0.15466003503166137,-0.031878070297837256
1761391510100059400,3.014059326171875,0.30505554448664185,-0.1966251265145838,0.029115035325288773
1761391510110125300,3.024125244140625,0.18519816196262837,-0.21255612448751926,0.08292173657566308
1761391510120191200,3.034191162109375,0.02026420487165451,-0.15867708865329622,0.15489114037379623
1761391510130257400,3.04425732421875,-0.21771569920778272,-0.06482435434907674,0.1769448590107262
1761391510140323300,3.0543232421875,-0.44612697995305056,-0.06530490440763533,0.18309373702928422
1761391510150389200,3.06438916015625,-0.5736971288114786,-0.04604425055533647,0.16943536016345023
1761391510160456200,3.074456298828125,-0.622367343956232,-0.06084244510605931,0.12912658452019093
1761391510170522000,3.084522216796875,-0.6551794802337885,-0.09129822751581668,0.0249222598105669
1761391510180588300,3.09458837890625,-0.6807897223085164,-0.12179726454541086,-0.09170198601111769
1761391510190654200,3.104654296875,-0.6960211937099695,-0.12621902651041744,-0.15002061172798276
1761391510200720400,3.114720458984375,-0.6623948184400796,-0.09769253166280686,-0.14675591084361075
1761391510210787300,3.124787353515625,-0.4952046068549156,-0.04358560535684228,-0.036909780854731795
1761391510220853200,3.134853271484375,-0.26619652926027776,0.010443725668266415,0.07419774737209081
1761391510230919400,3.14491943359375,-0.057441550621390336,0.03008694909736514,0.12544468113705515
1761391510240985300,3.1549853515625,0.02269230880141258,0.028629589895904063,0.10868921503871679
1761391510251051300,3.16505126953125,-0.02752221317589283,0.04829729017913341,0.0772058431468904
1761391510261117200,3.1751171875,-0.09503215334713458,0.09140256467312574,0.09554229482635855
1761391510271184100,3.18518408203125,-0.20334815115928648,0.0667737348511815,0.13267887017428875
1761391510281250300,3.195250244140625,-0.2401473112463951,0.05380969692505896,0.17328692102506757
1761391510291316200,3.205316162109375,-0.23115327292978763,0.027823680340498685,0.1735067012555897
1761391510301382400,3.21538232421875,-0.1753185729831457,0.01801401479206979,0.12814312644079326
1761391510311448300,3.2254482421875,-0.14680793329179287,-0.012204086404293775,0.08562091253176331
1761391510321514800,3.2355146484375,-0.19681085834503173,-0.048935515017434955,0.0033007951110601425
1761391510331581000,3.245580810546875,-0.30436814674437046,-0.06479395921081305,-0.07468480023667216
1761391510341646800,3.255646728515625,-0.361122884145379,-0.052216582514718175,-0.1018884489826858
1761391510351712800,3.265712646484375,-0.30334464891552926,-0.04399659731052816,-0.11166223950013518
1761391510361778700,3.27577880859375,-0.16034078408181665,-0.07715477054677904,-0.06704466074705123
1761391510371844900,3.285844970703125,-0.01074701946377754,-0.11921565055437386,-0.016327888336032628
1761391510381911800,3.295911865234375,0.07344459091722964,-0.10767119710259139,0.011624532950669526
1761391510391977700,3.305977783203125,0.11248422340750694,-0.013502894043177366,0.024047668933123347
1761391510402044000,3.3160439453125,0.15639409228265286,0.036984307395666834,0.04343362966552376
1761391510412109800,3.32610986328125,0.22651976791024206,0.042049627961218354,0.08004968827068805
1761391510422176000,3.336176025390625,0.32047172480523584,0.02311718314997852,0.11880553538352251
1761391510432243000,3.346242919921875,0.35734570369422436,-0.014021949481219053,0.09246434868574142
1761391510442308900,3.356308837890625,0.33121640618145465,-0.0644871582839638,0.03467413075715303
1761391510452374800,3.366374755859375,0.321150354719162,-0.13812975599132477,-0.00022664836272597312
1761391510462440700,3.376440673828125,0.31809798141121864,-0.17250227345339952,-0.02099514949470758
1761391510472507000,3.3865068359375,0.2753302683085203,-0.11671323927938937,0.00340089448466897
1761391510482573800,3.39657373046875,0.13506079687476158,-0.07970781603045761,0.010443652603030203
1761391510492639700,3.4066396484375,-0.04760229365229606,-0.10552234850563108,-0.025569910064339636
1761391510502706000,3.416705810546875,-0.20124036522507666,-0.1172987110171467,-0.0376969857096672
1761391510512771800,3.426771728515625,-0.3568360006064176,-0.11703501857966184,-0.05341097993105649
1761391510522837800,3.436837646484375,-0.4199287088572979,-0.06260485166870057,-0.06992664592415095
1761391510532904000,3.446904052734375,-0.348306657192111,-0.025709099339321254,-0.09031126230508088
1761391510542971000,3.456970947265625,-0.1692757856875658,-0.02829896970205009,-0.1027269456334412
1761391510553036800,3.467036865234375,0.006457213315367698,-0.07130187980011105,-0.03936638022661209
1761391510563102700,3.477102783203125,0.12708558021187782,-0.12244389188587665,0.05601911660283804
1761391510573168600,3.487168701171875,0.0676648384720087,-0.14495558342337608,0.1064716851197183
1761391510583234800,3.49723486328125,-0.06416296783089637,-0.10542429495863616,0.0890273599743843
1761391510593301800,3.5073017578125,-0.19312427878677843,-0.01458455180004239,0.05176759663820266
1761391510603367700,3.51736767578125,-0.25359540636241434,0.01668232779689133,0.04533654067739844
1761391510613433900,3.527433837890625,-0.21804946120679378,-0.0013791063334792852,0.07150149402543902
1761391510623499800,3.537499755859375,-0.12732932583987713,-0.05476750910654664,0.07289864747226238
1761391510633566000,3.54756591796875,-0.007971125009655952,-0.10958864809647202,0.04053206300511956
1761391510643631600,3.557631591796875,-0.0033060558080673214,-0.13039704284742473,-0.015249737710505723
1761391510653698600,3.567698486328125,-0.10408405933082103,-0.11181509197428822,-0.10132058596685528
1761391510663764700,3.5777646484375,-0.1845341450959444,-0.0708680914927274,-0.15871172157526015
1761391510673830700,3.58783056640625,-0.18302783218622207,-0.08455269877836108,-0.13274842827916145
1761391510683896800,3.597896728515625,-0.10180150135159492,-0.054814270857721566,-0.07208835400268435
1761391510693962800,3.607962646484375,0.03785246853232384,-0.01164352991208434,0.03316007293239236
1761391510704029700,3.61802978515625,0.1578770243167877,0.06143595401979982,0.07556918185576796
1761391510714095900,3.628095947265625,0.27839140944480895,0.12281111776307224,0.07237184711918235
1761391510724161800,3.638161865234375,0.2727455125123262,0.13303024089522658,0.04946750300228595
1761391510734228000,3.64822802734375,0.1546358504384756,0.07927556209303438,-0.025668986524641512
1761391510744293600,3.658293701171875,0.002571311792731285,-0.0016341770730912684,-0.134686995126307
1761391510754359800,3.66835986328125,-0.10859656831920146,0.004225874066725373,-0.26736323495209213
1761391510764426800,3.6784267578125,-0.18176526490449904,0.047398368578031654,-0.3407762616872787
1761391510774492700,3.68849267578125,-0.22882512224316595,0.09252455444037913,-0.3408464043140411
1761391510784558800,3.698558837890625,-0.21860300343632696,0.10404964560456573,-0.2494865097388625
1761391510794624800,3.708624755859375,-0.10262217008471489,0.20552871006876228,-0.13937120741978287
1761391510804691000,3.71869091796875,-0.007484218275547027,0.2441391573615372,-0.016658873856067655
1761391510814758000,3.7287578125,0.023630466434359548,0.21455833115540443,-0.020615210266411305
1761391510824823800,3.73882373046875,0.02631342190802097,0.1577108009044081,-0.00827536865323782
1761391510834890000,3.748889892578125,-0.07843582333326339,0.13514379898309706,0.08368073824942111
1761391510844955600,3.75895556640625,-0.00808101512491703,0.2558019764959812,0.1467035961344838
1761391510855021800,3.769021728515625,0.06251578514575958,0.23954963761419057,0.12576105360984802
1761391510865088800,3.7790888671875,0.05643558844923973,0.17231354594826698,-0.056181321427226066
1761391510875154700,3.78915478515625,0.051505146309733386,0.11839900040924549,-0.1904945148050785
1761391510885220900,3.799220947265625,0.052536242923140526,0.11449994714409112,-0.2880740145474672
1761391510895286800,3.809286865234375,0.09943301865458488,0.00853102391473949,-0.406155327309668
1761391510905352700,3.819352783203125,0.11986615035235881,-0.10121354539580643,-0.49552170998007056
1761391510915419000,3.8294189453125,0.0013145897299051284,-0.08884323557913303,-0.41547114492654796
1761391510925485800,3.83948583984375,-0.056064417049288745,-0.008656476925313471,-0.27280995605066416
1761391510935552000,3.849552001953125,-0.04789806172847748,-0.05115428704544901,-0.1270895257346332
1761391510945617700,3.85961767578125,-0.059980713710188864,-0.0848093769531697,-0.057117433233559126
1761391510955683600,3.86968359375,-0.06667991908788681,-0.03241553817540407,-0.047342181411385534
1761391510965749800,3.879749755859375,-0.06300093831419945,0.026111469595134256,-0.06511559238061308
1761391510975816700,3.889816650390625,0.018394903868436813,0.02598462834507227,-0.0914192235469818
1761391510985883000,3.8998828125,0.16951310157477856,-0.002639043266698718,-0.14168591410294173
1761391510995948800,3.90994873046875,0.2533931617885828,-0.0547902323950082,-0.1858060647279024
1761391511006014700,3.9200146484375,0.2654226222783327,-0.055183323365822434,-0.25367636264413596
1761391511016081000,3.930080810546875,0.2338075868308544,-0.03873611949905753,-0.22427651902809737
1761391511026146800,3.940146728515625,0.13527005571126938,-0.07022124495655298,-0.10840864453166722
1761391511036213800,3.9502138671875,-0.05241349332630634,-0.08858494996912777,0.005620324099808931
1761391511046280000,3.960280029296875,-0.23020985459983348,-0.06223353413827717,0.040484570601582524
1761391511056345600,3.970345703125,-0.33304245256483556,-0.04400098122470081,-0.005845657288283109
1761391511066411800,3.980411865234375,-0.36254385685920715,-0.029611732801049947,-0.07153364272937178
1761391511076477700,3.990477783203125,-0.27006080347299577,-0.0495744705080986,-0.11705723041146993
1761391511086544600,4.000544677734375,-0.1007698202162981,-0.10323993665687739,-0.13769582155346868
1761391511096610800,4.01061083984375,0.006607435441017151,-0.09684227150902151,-0.14796353306770324
1761391511106676700,4.0206767578125,-0.03737082249522209,-0.07033961063921451,-0.18686960230618715
1761391511116743000,4.030742919921875,-0.03253156577050686,-0.05229593136124312,-0.20945961977690458
1761391511126808800,4.040808837890625,0.06284370192587375,-0.08525302906744181,-0.18539499970898032
1761391511136874800,4.050874755859375,0.11514555157124995,-0.15220095144174992,-0.10631050320863723
1761391511146942000,4.06094189453125,0.06530979977846145,-0.16140819411762058,0.01662292575985193
1761391511157007600,4.071007568359375,0.054793081939220424,-0.09378186102509498,0.05403247283026576
1761391511167073800,4.08107373046875,0.006408697998523712,-0.12061733404584228,0.05984963467642664
1761391511177139700,4.0911396484375,-0.07852057900726794,-0.16309775463975965,0.009663754271715879
1761391511187206000,4.101205810546875,-0.17973405133783815,-0.13270780400782822,-0.01866539137288928
1761391511197272800,4.11127294921875,-0.1827338176757097,-0.10041866869106889,-0.0957728887118399
1761391511207338800,4.1213388671875,-0.11891513323783874,-0.1353452398393303,-0.10588277931585907
1761391511217405000,4.131405029296875,-0.01674070692062378,-0.09344203461147844,-0.04733195227831602
1761391511227470800,4.141470947265625,0.08602467102706432,-0.01563552215769887,0.009895809461921453
1761391511237537000,4.151537109375,0.00018938509225845335,-0.04874269585907459,0.057548518127202984
1761391511247602700,4.161602783203125,-0.10333704035580157,-0.0005879559557884931,0.033249066390097136
1761391511257669600,4.171669677734375,-0.15303367593884468,0.023827231115475297,0.018001228375732897
1761391511267735800,4.18173583984375,-0.23710838194191455,0.047460254833102226,-0.01682517033368349
1761391511277801700,4.1918017578125,-0.25420155556201934,-0.0032161125022917986,-0.04971329445689916
1761391511287868000,4.201867919921875,-0.2340916644692421,-0.09374920086450875,-0.1028949956767261
1761391511297933800,4.211933837890625,-0.24059505501389503,-0.10168971154019237,-0.1996462279014289
1761391511308000800,4.222000732421875,-0.1693143641322851,-0.06607924978099763,-0.23878493685200808
1761391511318067200,4.232067138671875,-0.08300444642305374,-0.014389979076012967,-0.2411822072520852
1761391511328133400,4.24213330078125,0.01633154159784317,0.002859115758165717,-0.1711965246170759
1761391511338199000,4.252198974609375,0.14958733487725256,-0.06552037378922104,-0.05387523644194007
1761391511348265200,4.26226513671875,0.2111468422114849,-0.10483188202343881,0.06942863327413797
1761391511358332200,4.272332275390625,0.19852584556937217,-0.10164017331004142,0.11229206183627247
1761391511368398000,4.282398193359375,0.20267361289858818,-0.08485219318158924,0.1453404910877347
1761391511378464300,4.29246435546875,0.1892401308298111,-0.011063465001806615,0.15913228507488966
1761391511388530200,4.3025302734375,0.1538999373793602,0.014442951372265814,0.15342662077918648
1761391511398596400,4.312596435546875,0.15044249040186405,-0.01838745121434331,0.15328940426558255
1761391511408662300,4.322662353515625,0.11519698949754237,-0.04502922829389572,0.1289433369077742
1761391511418729200,4.332729248046875,0.08453998542726039,-0.06135631291233003,0.09309417102187871
1761391511428795400,4.34279541015625,0.0005348375290632248,-0.04967654264308512,0.07884133539423346
1761391511438861300,4.352861328125,-0.126171387976408,-0.06896729937270284,0.051135874605923885
1761391511448927200,4.36292724609375,-0.27606092067062854,-0.05605221515484154,0.015587591362744568
1761391511458993200,4.3729931640625,-0.3266618116170168,-0.00939575098529458,0.008232114033401012
1761391511469060000,4.38306005859375,-0.31580548655986784,0.03384812826178968,-0.02623524210527539
1761391511479126300,4.393126220703125,-0.2658873171806335,0.08741378729790449,-0.03246376123130321
1761391511489192200,4.403192138671875,-0.20558044025599956,0.1353262428779155,-0.005173603245615959
1761391511499258400,4.41325830078125,-0.11033493641912936,0.07806151012815535,-0.022512714450806378
1761391511509324300,4.42332421875,-0.006377133816480636,-0.003808160111308098,-0.06684080873802303
1761391511519390500,4.433390380859375,0.0649029725432396,-0.03826119546368718,-0.10849968381598592
1761391511529457400,4.44345751953125,0.14532558577954768,-0.036375893173739314,-0.1450353706613183
1761391511539523300,4.4535234375,0.15064707306325434,-0.003364800257980823,-0.18739333391934632
1761391511549589200,4.46358935546875,0.07331833418905735,-0.027759894389286634,-0.24759879629611967
1761391511559655200,4.4736552734375,0.023307810351252553,-0.12425042985118925,-0.1971820297449827
1761391511569721300,4.483721435546875,0.004667991811037064,-0.17514022074155508,-0.09299699425771832
1761391511579788300,4.493788330078125,-0.002336333993077278,-0.18044139588959515,0.0277805718511343
1761391511589854200,4.503854248046875,-0.054286885982751845,-0.1184854365836829,0.14312968317046762
1761391511599920400,4.51392041015625,-0.1745510957419872,-0.036723026110976935,0.16120558421760797
1761391511609986300,4.523986328125,-0.2023369282901287,-0.008840601320564747,0.15421820954829454
1761391511620052200,4.53405224609375,-0.18200316531360147,-0.011725874433293938,0.11564604843929409
1761391511630119400,4.544119384765625,-0.14716624521017074,-0.0003495440900325775,0.06440335245802999
1761391511640185300,4.554185302734375,-0.1268207917958498,-0.01648614763766527,-0.014560001880675553
1761391511650251300,4.564251220703125,-0.06956511913537979,-0.05465162764191627,-0.0675385817438364
1761391511660317200,4.574317138671875,-0.04247428311407566,-0.0869163591697812,-0.05449380673170089
1761391511670383000,4.584383056640625,-0.10577391211390495,-0.09738748430162668,-0.04389131030514836
1761391511680449300,4.59444921875,-0.20630466287732124,-0.08719495691545306,-0.032751492131501435
1761391511690516200,4.60451611328125,-0.25814941640496253,-0.07380363348796963,-0.026029782661050556
1761391511700582100,4.61458203125,-0.23129764983654022,-0.035053485463559624,-0.06055310677066445
1761391511710648300,4.6246484375,-0.1426753635317087,-0.049925037511438126,-0.09239683640748261
1761391511720714200,4.63471435546875,-0.0595171878516674,-0.05858845563419163,-0.12555690933987498
1761391511730780400,4.644780517578125,0.0009527706801891326,-0.01273819328099489,-0.16671170735321938
1761391511740847400,4.654847412109375,0.014900047490000724,0.04177263765074313,-0.16186236762590706
1761391511750913000,4.6649130859375,0.023391396981477738,0.05217858859188854,-0.10133936373256146
1761391511760979200,4.674979248046875,0.042539165043830866,0.05265409714914858,-0.0436789096634835
1761391511771045000,4.685045166015625,0.03544949904382229,0.05548946670554578,-0.03389364790394902
1761391511781111300,4.695111328125,0.013406009539961815,0.0232601718172431,0.0021553514029830695
1761391511791177200,4.70517724609375,-0.05149404039382934,-0.05820164827369153,-0.001262713412195444
1761391511801244200,4.715244140625,-0.06840835031569004,-0.10101539247520268,-0.029085005513206124
1761391511811310300,4.725310302734375,-0.008922142124176025,-0.19116978371813892,-0.03501592993214726
1761391511821376300,4.735376220703125,0.061650692749023434,-0.25003296464048325,-0.018522694966569542
1761391511831442400,4.7454423828125,0.12388882999718188,-0.16906367730684577,0.011299173453822732
1761391511841508000,4.755508056640625,0.028881226569414137,-0.07934351276271044,-0.04691453058384359
1761391511851575000,4.765574951171875,-0.06030103170573711,-0.044708983363583685,-0.008758110668882726
1761391511861641200,4.77564111328125,-0.08089666048884392,-0.029863880931213498,0.1005686716210097
1761391511871707100,4.78570703125,-0.08134966495335101,-0.024283523515611884,0.17378091508708893
1761391511881773300,4.795773193359375,-0.12522738512456416,-0.04463518747501075,0.15867876915372908
1761391511891839200,4.805839111328125,-0.10869418347477912,-0.10382920778691768,0.12410166903026401
1761391511901906200,4.81590625,-0.09130582630038261,-0.1703390310049057,0.1354402977116406
1761391511911972400,4.825972412109375,-0.009497311663627625,-0.22321780375540254,0.17420754300132393
1761391511922038300,4.836038330078125,0.13457389014065266,-0.27185513954386115,0.2336738043833524
1761391511932104400,4.8461044921875,0.28680560204684735,-0.32227694759629666,0.2825104621361941
1761391511942170000,4.856170166015625,0.31651158900260923,-0.3050704497948289,0.30520401304662226
1761391511952236300,4.866236328125,0.14314531913101672,-0.28002872832305725,0.28940811269544064
1761391511962303200,4.87630322265625,-0.06674070936441422,-0.2807080158241093,0.2955775951106101
1761391511972369200,4.886369140625,-0.16606734503507614,-0.29311719634644684,0.2612187408477068
1761391511982435300,4.896435302734375,-0.24897359178066253,-0.3771099962197244,0.23449381552934645
1761391511992501200,4.906501220703125,-0.3484253151357174,-0.42927163367681204,0.20854002071395517
1761391512002567200,4.916567138671875,-0.441659479150176,-0.44984322399720544,0.12426665033362805
1761391512012634400,4.92663427734375,-0.6085474929183721,-0.4555660586234182,0.06798354903236031
1761391512022700300,4.9367001953125,-0.7003647758722304,-0.29997838735282417,0.06157185535915195
1761391512032766500,4.946766357421875,-0.6720446903169155,-0.15921667542271314,0.03974164327979088
1761391512042832100,4.95683203125,-0.6171949097543954,-0.1086427455484867,0.036571196550130844
1761391512052898000,4.96689794921875,-0.5138023398190736,-0.00046885962076485154,-0.013483677886053919
1761391512062964200,4.976964111328125,-0.45908641476929185,-0.012579276392236351,-0.11952025952413678
1761391512073031200,4.98703125,-0.4008762178629637,-0.11378266572020947,-0.2512546884551644
1761391512083097300,4.997097412109375,-0.22841537239849566,-0.1458076702080667,-0.35539939193204045
1761391512093163300,5.007163330078125,-0.02662672564089298,-0.1411089909978211,-0.3985664796158671
1761391512103229200,5.017229248046875,0.1465314544379711,-0.16075988627672194,-0.35679077322520314
1761391512113295400,5.02729541015625,0.21916882062554358,-0.11113595060370862,-0.3011537147425115
1761391512123362300,5.0373623046875,0.19496786082684991,-0.026348274025693535,-0.24347777084335684
1761391512133428200,5.04742822265625,0.23549743961393832,0.06755348705202341,-0.12468429122380911
1761391512143494400,5.057494384765625,0.285817760053277,0.08664601779580115,0.0040476679556071754
1761391512153560000,5.06756005859375,0.30325054089128967,0.07135799390152096,0.07762545679844915
1761391512163626200,5.077626220703125,0.3291577200859785,0.043155762572214006,0.07647343721911311
1761391512173693200,5.087693115234375,0.30105098502039906,0.005138093540817499,0.042483927725255485
1761391512183759000,5.097759033203125,0.2208803007185459,-0.0574176582891494,-0.0530714457783848
1761391512193825300,5.1078251953125,0.11190905386805533,-0.08797127505019306,-0.14566643510647118
1761391512203891200,5.11789111328125,0.03150105367898941,-0.08489617845378816,-0.2185026118017733
1761391512213957400,5.127957275390625,-0.09498597611784934,-0.07963526225090026,-0.25561083783805366
1761391512224023300,5.138023193359375,-0.18725860162377356,-0.09159523770101367,-0.22167101270481943
1761391512234090200,5.14809033203125,-0.265187059956789,-0.10854922204613685,-0.19297091485597193
1761391512244156400,5.158156494140625,-0.2962947304040193,-0.10166735357791185,-0.21316694986224174
1761391512254222000,5.16822216796875,-0.281983296456933,-0.0350567003339529,-0.23766068206243215
1761391512264288300,5.178288330078125,-0.21484628125131128,-0.03274389334693551,-0.25964491565972564
1761391512274354200,5.188354248046875,-0.10562953520715236,-0.06278437295407056,-0.23431297906972468
1761391512284421000,5.198421142578125,-0.013316577690839767,-0.09593472821004688,-0.20283705983199177
1761391512294487300,5.2084873046875,0.003502455163002014,-0.10123393059670925,-0.13853621790036558
1761391512304553200,5.21855322265625,-0.029798341414332387,-0.05365355651527643,-0.1142195958327502
1761391512314618600,5.22861865234375,0.04703121576607227,0.014134762205928563,-0.08105623496472836
1761391512324684500,5.2386845703125,0.08086509630680083,0.040285102506726976,-0.03413469011820853
1761391512334750500,5.24875048828125,0.11356734246909618,0.011200023928284645,-0.002466828504949808
1761391512344817400,5.2588173828125,0.17397008098363875,-0.0033544980596750974,-0.011248831506073474
1761391512354883300,5.26888330078125,0.18607786740660667,-0.002926116579771042,-0.027172815216332673
1761391512364949500,5.278949462890625,0.09063596421480179,0.008466434245929121,-0.002260711473599076
1761391512375015400,5.289015380859375,-0.058003276157379144,0.028213337245211002,0.025034268817678094
1761391512385081600,5.29908154296875,-0.1372170981258154,-0.005474851214513183,0.03468611345589161
1761391512395148500,5.3091484375,-0.14267360996603964,-0.05650653479360044,0.004718479889258742
1761391512405214500,5.31921435546875,-0.07844692924916744,-0.1044369644217193,-0.041065146968513724
1761391512415280600,5.32928076171875,0.00123217214345932,-0.1744510694336146,-0.10498816856369375
1761391512425346600,5.3393466796875,0.06391045437455177,-0.16986133049055932,-0.15215718536525963
1761391512435412500,5.34941259765625,0.00348433498442173,-0.09211436620429157,-0.08701813904382288
1761391512445479400,5.3594794921875,-0.31158173138499257,0.01471774972565472,0.016085311751812697
1761391512455545300,5.36954541015625,-0.5303787960886955,0.13953041656948625,0.14767733653746545
1761391512465611500,5.379611572265625,-0.5476800595015288,0.24102986623458564,0.2612032510176301
1761391512475677400,5.389677490234375,-0.45902211736142634,0.25633827532976866,0.2836232456836849
1761391512485743600,5.39974365234375,-0.32846623069047926,0.1692710364472121,0.2373254587586969
1761391512495809500,5.4098095703125,-0.17978665830790996,0.10220555210784077,0.11751140391975641
1761391512505876500,5.41987646484375,0.023311317482590674,0.05192570980936288,-0.006897942820191383
1761391512515942700,5.429942626953125,0.16665537405610084,-0.07583550464175641,-0.08376147533543407
1761391512526008600,5.440008544921875,0.2107715791583061,-0.1589914152994752,-0.0981977777712047
1761391512536074500,5.450074462890625,0.20547990249097345,-0.13860672585330902,-0.10398965904563665
1761391512546140400,5.460140380859375,0.19215981766879559,-0.0716350572772324,-0.06152195180281996
1761391512556207400,5.470207275390625,0.10922083769738673,0.05667049318365752,0.00017404139265418051
1761391512566273500,5.4802734375,-0.0005728314518928528,0.14726765975803136,0.02400236848667264
1761391512576339500,5.49033935546875,-0.12027356210947036,0.14501820033080876,-0.005424143940582871
1761391512586405600,5.500405517578125,-0.22740882570445536,0.07015716674439608,-0.06713584616184234
1761391512596471600,5.510471435546875,-0.2813087581962347,-0.011436316902190446,-0.11867759815491735
1761391512606537500,5.520537353515625,-0.26970716772973535,-0.04135273173823952,-0.09263736716508865
1761391512616604700,5.530604736328125,-0.21685995916128156,-0.04583192297890782,-0.048525838238000864
1761391512626670600,5.540670654296875,-0.08311199845075606,-0.04280636461265385,0.0024641250912100076
1761391512636736500,5.550736572265625,0.12249006911516189,-0.01570749141536653,0.06999262383244931
1761391512646802400,5.560802490234375,0.2662374457925558,0.027344664651900528,0.0935977366298437
1761391512656868400,5.570868408203125,0.2615922503352165,0.07149835222028196,0.10043167430311441
1761391512666935600,5.580935546875,0.22222470106482506,0.060658247645571824,0.12560016395971177
1761391512677001500,5.59100146484375,0.17074527371823786,0.027645181968435642,0.13055457149669528
1761391512687067400,5.6010673828125,0.11081015271544456,-0.008461538875102996,0.0857275147113949
1761391512697133600,5.611133544921875,-0.0069528878778219215,-0.08035904648080468,0.032815643408894535
1761391512707199500,5.621199462890625,-0.19829379037916658,-0.12198197346255182,-0.041902109249308706
1761391512717265700,5.631265625,-0.38857144756317136,-0.14111892786994576,-0.0879606805909425
1761391512727332600,5.64133251953125,-0.4832932197868824,-0.14848616870231926,-0.11631145354546606
1761391512737398300,5.651398193359375,-0.4873001173406839,-0.12224698107428848,-0.11870536294467747
1761391512747464400,5.66146435546875,-0.42948330366611476,-0.05903802603259682,-0.10241086542159318
1761391512757530400,5.6715302734375,-0.327284327429533,0.012005495092272759,-0.092813892775774
1761391512767596500,5.681596435546875,-0.17491174574792384,0.05399309066794812,-0.11176475002653896
1761391512777663500,5.69166357421875,-0.036167291924357414,0.027886078052222728,-0.1261538523197174
1761391512787729400,5.7017294921875,0.039647535255551335,-0.05088014627918601,-0.12498970391117036
1761391512797795600,5.711795654296875,0.04528875601291656,-0.1152011542160064,-0.10609116136953234
1761391512807861500,5.721861572265625,0.033708792856335636,-0.10893537181951105,-0.1218596622571349
1761391512817927700,5.731927734375,0.04222819939851761,-0.07254881112128496,-0.11430113663636148
1761391512827993300,5.741993408203125,0.07177285831272602,-0.0436613740067929,-0.08060578778348863
1761391512838060500,5.752060546875,0.12809563403725624,-0.019733093669638036,-0.015053703681752085
1761391512848126500,5.76212646484375,0.20380290918946264,0.010021189407259224,0.014339710193499921
1761391512858192400,5.7721923828125,0.2417851415812969,0.005907689673826098,0.020043693988770244
1761391512868258600,5.782258544921875,0.19529460856318473,-0.02205561833307147,0.02487425595037639
1761391512878324500,5.792324462890625,0.04544482335746288,-0.06898556568175554,0.04734495789036154
1761391512888391400,5.802391357421875,-0.09037000675499439,-0.08546974055804311,0.03541932310126722
1761391512898457600,5.81245751953125,-0.14522680158019066,-0.04911912795603275,0.0032603169701993463
1761391512908523500,5.8225234375,-0.15363105731010437,-0.07889547673426568,-0.02292575223110616
1761391512918589700,5.832589599609375,-0.13154139057695866,-0.10051957178227602,-0.022597835450991987
1761391512928655400,5.8426552734375,-0.1391851833283901,-0.08298296524360775,-0.019521935136988758
1761391512938722600,5.85272265625,-0.23554887754023074,-0.06563662058003246,0.00914900968261063
1761391512948788500,5.86278857421875,-0.3630371933341026,-0.03991027784496545,0.025428894158452748
1761391512958854400,5.8728544921875,-0.45619127784967417,-0.00809518978074193,0.01565517670623958
1761391512968920600,5.882920654296875,-0.4512900618046522,-0.001704538895562291,-0.036801278978958726
1761391512978986500,5.892986572265625,-0.29112697237730023,-0.016268267103284596,-0.08177044764868914
1761391512989052400,5.903052490234375,-0.073259297478199,-0.04379508338905871,-0.0844894242838025
1761391512999119600,5.91311962890625,0.14626315889060496,-0.034095234890654684,-0.07810871027074753
1761391513009185500,5.923185546875,0.3158990100622177,0.0715627957586199,0.00336187764853239
1761391513019251700,5.933251708984375,0.3315852394938469,0.10215645226910709,0.004173559357598423
1761391513029317600,5.943317626953125,0.21715338914990423,0.028914507784508166,-0.06600691519714892
1761391513039383300,5.95338330078125,0.05309270776212215,0.015438501748256384,-0.07291187228001654
1761391513049450500,5.963450439453125,-0.1445756441950798,0.001457030407898128,-0.055417643578350544
1761391513059516400,5.973516357421875,-0.31303777541220185,-0.008044774767756462,-0.059777738483995195
1761391513069582300,5.983582275390625,-0.37122283787727356,0.03134783587865531,-0.1413695416301489
1761391513079648500,5.9936484375,-0.3442506597995758,0.1022361664418131,-0.22049093607477843
1761391513089714400,6.00371435546875,-0.25067513500154015,0.15484583992734552,-0.22043321453817188
1761391513099780600,6.013780517578125,-0.15426467903852462,0.1772721912689507,-0.082448639171198
1761391513109847600,6.02384765625,-0.13960662361085413,0.1620483551846817,0.08850311690457165
1761391513119913500,6.03391357421875,-0.1436608674377203,0.13692582356166094,0.2018219645053148
1761391513129979600,6.043979736328125,-0.07880465664565563,0.128956780911237,0.2589228849954903
1761391513140045300,6.05404541015625,0.021882161462306975,0.03863876007180661,0.21554602701850234
1761391513150111500,6.064111572265625,0.10717091943025589,0.10918945617843419,0.224155084605515
1761391513160178400,6.074178466796875,0.15925298884510994,0.0393489176351577,0.13216631754226982
1761391513170244400,6.084244384765625,0.2029991915911436,-0.0768534495126456,-0.011933598899841307
1761391513180310500,6.094310546875,0.21094576668143272,-0.03381513930764049,-0.05079677884466946
1761391513190376400,6.10437646484375,0.17583061415851114,-0.027515783435106276,-0.05083411518037319
1761391513200443400,6.114443359375,0.1766074437499046,-0.009264489288441837,0.006258622003346682
1761391513210509600,6.124509521484375,0.20538813255429267,0.04172090746350586,0.06832425222881137
1761391513220575500,6.134575439453125,0.1711480093002319,0.10825736296009272,0.1048258176088333
1761391513230641700,6.1446416015625,0.0375403338432312,0.13327482677344232,0.08342084520421922
1761391513240707300,6.154707275390625,-0.11935177108943462,0.11783972255866974,0.02562529351338744
1761391513250774300,6.164774169921875,-0.2484258947700262,0.13519118178877979,-0.08059775060750543
1761391513260840400,6.17484033203125,-0.3001917378425598,0.17476820909138768,-0.21827508665621279
1761391513270906400,6.18490625,-0.24814473974108694,0.1933588181950152,-0.2934185173805803
1761391513280972500,6.19497265625,-0.08939736233055591,0.1482002279004082,-0.25548216995708645
1761391513291038500,6.20503857421875,0.06753975078761577,0.1287347721910104,-0.15947781057693064
1761391513301104600,6.215104736328125,0.16873802554905415,0.15198150000479071,-0.02626782920062542
1761391513311171600,6.225171630859375,0.15264613792598247,0.12641330697350203,0.0039794250249862665
1761391513321237800,6.23523779296875,-0.016087211447954178,0.21188425310794262,0.08547719321213662
1761391513331304000,6.245303955078125,-0.21603227616548537,0.16705255668014288,0.07745243831910192
1761391513341369900,6.255369873046875,-0.276690450745821,0.1901146121094003,0.1077151093095541
1761391513351435800,6.265435791015625,-0.19484452670812605,0.15357826767694205,0.18112988961040974
1761391513361503000,6.2755029296875,-0.09633096098601818,0.00981350147332996,0.15949205829799173
1761391513371569000,6.28556884765625,0.07952887926697731,-0.024251995866186916,0.09231025410257279
1761391513381635000,6.295635009765625,0.08205050669908523,-0.07863189389463514,-0.0045019875943660735
1761391513391701000,6.305700927734375,0.0737643243908882,-0.1319467199748382,-0.08935155042745173
1761391513401766700,6.3157666015625,0.06420271531939506,-0.195980216207169,-0.14639343420676887
1761391513411832800,6.325832763671875,0.0520621956706047,-0.26198256482705473,-0.16070706011094152
1761391513421899800,6.335899658203125,-0.022860651105642317,-0.31702213234063237,-0.17111710270531474
1761391513431966000,6.345966064453125,-0.16395429840385914,-0.31908355838246644,-0.1660327121131122
1761391513442031900,6.356031982421875,-0.2528396195590496,-0.2728532837357372,-0.019506737567856907
1761391513452097800,6.366097900390625,-0.37110008828043933,-0.3677740856628865,0.022935762168467044
1761391513462164000,6.3761640625,-0.4883990184932947,-0.3097957247510552,0.002282923305407166
1761391513472231000,6.38623095703125,-0.5922264727145433,-0.1537563641902059,0.005971914016455412
1761391513482296800,6.396296875,-0.6325730961501598,-0.19446166487038136,-0.055839010795578355
1761391513492363000,6.406363037109375,-0.5845604681313038,-0.21233210647329687,-0.050134223282709715
1761391513502428700,6.4164287109375,-0.47455812466740604,-0.24256387086883185,-0.07664075661003589
1761391513512494800,6.426494873046875,-0.35172961737811564,-0.2989938332948833,-0.1557943728238344
1761391513522561800,6.436561767578125,-0.2760837170243263,-0.2758156406726688,-0.12090309218466282
1761391513532627700,6.446627685546875,-0.2659066064029932,-0.26416995533611626,-0.07989581288322806
1761391513542694000,6.45669384765625,-0.34195758042633534,-0.2049347992962226,-0.09546645311117172
1761391513552759800,6.466759765625,-0.3552443475008011,-0.05903660126049071,-0.10778145254403353
1761391513562826000,6.476825927734375,-0.2696019537895918,0.045601621354371305,-0.09324015536382795
1761391513572892000,6.486891845703125,-0.16674071425199508,0.14011818986218422,-0.022905805421620604
1761391513582958800,6.496958740234375,-0.05998655892908573,0.24313041871041058,0.06700871265083551
1761391513593025000,6.50702490234375,0.02481120065152645,0.3371191639518365,0.1244458793580532
1761391513603090700,6.517090576171875,-0.05243628968000412,0.3408257633848116,0.15238134950995444
1761391513613156900,6.527156982421875,-0.31867665808200835,0.2624335234649479,0.14488909405842423
1761391513623222800,6.537222900390625,-0.637703444775939,0.2523871630838141,0.10576455976366995
1761391513633289700,6.547289794921875,-0.873868992909789,0.33389837527442723,0.04725333408415317
1761391513643356000,6.55735595703125,-1.0024287373274565,0.4103084284011274,0.09450140747129916
1761391513653421800,6.567421875,-1.0214777211904524,0.46854449040107427,0.18226561564207075
1761391513663488000,6.577488037109375,-0.9715268185853958,0.37610673746131357,0.19231968440562486
1761391513673554000,6.587553955078125,-1.0282236883193254,0.13274349637571722,0.19534283161908386
1761391513683620900,6.597620849609375,-1.0638520510613918,-0.030088446934707462,-0.07436492063254117
1761391513693687000,6.60768701171875,-0.5706260508030653,0.12928166548404843,-0.6047913552552461
1761391513703753000,6.6177529296875,-0.24622341628968714,0.023917466682195663,-0.5657517227649689
1761391513713819000,6.62781884765625,0.08078910846114158,-0.08968808890543878,-0.3790212366685271
1761391513723884800,6.637884765625,0.5438835898280143,-0.08564688722323625,-0.18020941376462576
1761391513733951000,6.647950927734375,0.8830261128336191,-0.11641042040791362,-0.0819030610524118
1761391513744018000,6.658017822265625,0.9045183981955051,-0.043787192343547936,-0.018340104941278693
1761391513754083800,6.668083740234375,0.8788187242716551,0.17843900655861944,0.033429829784482716
1761391513764150000,6.67814990234375,0.7752776857763528,0.18571604835689068,0.2987523526892066
1761391513774216000,6.6882158203125,0.6043716685384511,0.14075623203739523,0.5216333257056772
1761391513784281900,6.69828173828125,0.45940790180861946,0.19819222970083356,0.5674575037695467
1761391513794349000,6.70834912109375,0.28111469692885876,0.11035389684792607,0.5117191038042307
1761391513804415000,6.7184150390625,0.03998597342967987,-0.13020287198219446,0.43967298150807615
1761391513814481000,6.72848095703125,-0.1813537614941597,-0.3003227438110858,0.3662618544690311
1761391513824546800,6.738546875,-0.24763445213139057,-0.4313196887804195,0.24663638100475072
1761391513834612700,6.74861279296875,-0.1402408298611641,-0.6016285803753882,0.10190276976898312
1761391513844679000,6.758678955078125,0.07616846292316913,-0.7053719365097582,-0.014294044420868157
1761391513854745900,6.768745849609375,0.41555473155677314,-0.7724915621891617,-0.08632643045261502
1761391513864811800,6.778811767578125,0.6101835696876049,-0.7981793264795094,-0.07832286447808146
1761391513874878000,6.7888779296875,0.9040694853842258,-0.624698051926121,-0.17965251053422687
1761391513884944000,6.79894384765625,1.264110419511795,-0.7424653303030878,-0.33495705401450393
1761391513895010000,6.809010009765625,1.3303987089335918,-0.6952804583452642,-0.4630339833512902
1761391513905077000,6.819076904296875,1.3169827625215054,-0.33765075007788836,-0.5224003645554185
1761391513915142700,6.829142578125,1.3430331495791672,-0.14178204968748614,-0.45832375983372325
1761391513925208800,6.839208740234375,1.2549147211432456,-0.16488085693055762,-0.2877202326737344
1761391513935274800,6.849274658203125,1.0230565148144959,-0.31599523697830734,-0.21398659568205475
1761391513945341000,6.8593408203125,0.9856903684943914,-0.1184514429825358,-0.18562676263824104
1761391513955406800,6.86940673828125,1.0905892513394355,0.025335261058248577,0.01706847757026553
1761391513965473800,6.879473876953125,1.211597557464242,0.00752257752455771,0.3197314278319478
1761391513975540000,6.8895400390625,1.325305185186863,0.08345067408690228,0.44602834188416596
1761391513985606000,6.89960595703125,1.334415543359518,0.17893935729619115,0.37631723840683695
1761391513995672000,6.909672119140625,1.2054109777837991,0.26978867200072854,0.20378332770615815
1761391514005737700,6.91973779296875,0.9948089099735021,0.27049623574819415,-0.0019813830755650995
1761391514015804700,6.9298046875,0.6665700582981109,0.05550634477511048,-0.18687968530878424
1761391514025870800,6.939870849609375,0.2076654298365116,-0.09742215375620872,-0.5657493846774101
1761391514035936800,6.949936767578125,-0.061164370536804194,-0.16179492841288445,-0.8443953534051776
1761391514046003000,6.9600029296875,-0.2706973478108644,-0.37323476222157476,-0.811758865955472
1761391514056068900,6.97006884765625,-0.33614100310206413,-0.6667213033370674,-0.7653722317032515
1761391514066135800,6.9801357421875,-0.43551440052390095,-0.702027448387444,-0.726035515962541
1761391514076202000,6.990201904296875,-0.6620271541714667,-0.5765707845516502,-0.6611017098896205
1761391514086268000,7.000267822265625,-0.5297404981851578,-0.6040403907574713,-0.6869730140533298
1761391514096334000,7.010333984375,-0.4927893624067306,-0.600875058594346,-0.44261246902607376
1761391514106399700,7.020399658203125,-0.585887917342782,-0.4840308133464306,-0.16220570117086172
1761391514116466700,7.030466796875,-0.8340659748315811,-0.37278869895450767,0.08631459388434887
1761391514126532900,7.040532958984375,-1.1878151153385639,-0.35765966501422225,0.38748978980630633
1761391514136598800,7.050598876953125,-1.5756734461963176,-0.09881400997340678,0.7351127025179565
1761391514146665000,7.0606650390625,-1.6232926909834144,0.5371460252013057,0.9431433124050498
1761391514156731000,7.07073095703125,-1.3331348558992147,1.1814881042741239,0.9717923376537859
1761391514166796800,7.080796875,-1.009510804542899,1.5558078852534294,0.7538062970720231
1761391514176864000,7.090864013671875,-0.8068523892134427,1.2462617513492702,0.6982828550316393
1761391514186930000,7.100929931640625,-0.7819827363729477,0.5551471074465661,0.6974333985954523
1761391514196996000,7.11099609375,-0.8317939382463693,0.12002937809005379,0.6263059985794127
1761391514207061800,7.121061767578125,-0.7579442736595868,0.12727540369555354,0.48256183677241204
1761391514217127700,7.131127685546875,-0.5396791238754988,0.16620697270147503,0.291021173915267
1761391514227193900,7.14119384765625,-0.2243178739517927,0.10652275771982968,0.08724412981942295
1761391514237260800,7.1512607421875,0.16584814932644365,0.051384953996166584,0.031292817755788564
1761391514247327000,7.161326904296875,0.5342886630088091,0.0491991343896836,0.07197875614836811
1761391514257393000,7.171392822265625,0.8504957161068916,0.04810622458644211,0.1471357039414346
1761391514267458800,7.181458740234375,1.0458668970376253,0.07696443560644983,0.20237652964815497
1761391514277525000,7.19152490234375,1.0813275019973516,0.1326386112291366,0.20261954462379217
1761391514287592000,7.201592041015625,1.0212743075728417,0.15422157054916022,0.17126082202494144
1761391514297657900,7.211657958984375,0.8908329871922731,0.17783559730537235,0.11209668539464474
1761391514307723800,7.221723876953125,0.654531245458126,0.19443477686345575,0.011032996798306704
1761391514317790500,7.23179052734375,0.38674130952656266,0.17279263470210135,-0.18467369969710706
1761391514327856600,7.241856689453125,0.25060557689666746,0.11710340764075516,-0.32688246863037346
1761391514337923600,7.251923583984375,0.2514128016263246,0.07532740898914635,-0.39894963371455666
1761391514347989500,7.261989501953125,0.3695347386598587,0.051275063880905504,-0.3997022056475282
1761391514358055700,7.2720556640625,0.5392968465596437,0.007700345244258642,-0.33502193594425916
1761391514368121600,7.28212158203125,0.6125245798557997,-0.05220408835932612,-0.2873223193973303
1761391514378187800,7.292187744140625,0.5739496422678232,-0.0788956228647381,-0.2049839356675744
1761391514388253700,7.302253662109375,0.3744616736680269,-0.13867496878392993,-0.07718801522925496
1761391514398320600,7.312320556640625,0.17696400210261343,-0.20431202775537965,0.05726590179353952
1761391514408386800,7.32238671875,0.0842915636241436,-0.16643011393286286,0.1147273261591792
1761391514418452700,7.33245263671875,0.1490676949173212,0.0007332096453756094,0.08733136971145868
1761391514428518700,7.3425185546875,0.25655717877745626,0.08754450100548565,0.1401378078781068
1761391514438584600,7.35258447265625,0.28835750766396523,0.04396992849931121,0.27195582343935965
1761391514448651500,7.362651611328125,0.2248579721778631,-0.0926296222500503,0.31060674887299533
1761391514458717700,7.3727177734375,0.043700025516748425,-0.24982180610783397,0.022707067979127166
1761391514468783600,7.38278369140625,-0.0572732083171606,-0.5024008750345558,-0.17052987740188835
1761391514478849500,7.392849609375,-0.3501104917436838,-0.8147530793353914,-0.17557254774421452
1761391514488915700,7.402915771484375,-0.7420113759905099,-0.8584848882298917,-0.2204024540737271
1761391514498981600,7.412981689453125,-0.8857511538833379,-0.5415030513670295,-0.2599238787315786
1761391514509048600,7.423048583984375,-0.8597218096137046,-0.11244447591900825,-0.19810630498304962
1761391514519114800,7.43311474609375,-0.7046218487948179,0.015205460177361964,-0.0536547255590558
1761391514529180400,7.443180419921875,-0.5300923803627491,-0.01942263948097825,0.146946611110121
1761391514539246600,7.45324658203125,-0.4780512274801731,0.14616123288609087,0.23045257731452584
1761391514549312500,7.4633125,-0.6891969006478786,0.5948203616652638,0.2921791117787361
1761391514559379500,7.47337939453125,-1.2004589083343744,0.3723229811388999,0.36783728709220886
1761391514569445600,7.483445556640625,-1.5946972956180572,-0.10919957571364938,0.30580139441788196
1761391514579511600,7.493511474609375,-1.8442939877331255,-0.01319075935408473,-0.11552651371285319
1761391514589577700,7.50357763671875,-1.688820517426729,0.37446993003971873,-0.4904419224977493
1761391514599643600,7.5136435546875,-1.3006412840515373,0.4056386830244213,-0.4978611127130687
1761391514609710600,7.523710693359375,-0.8631371710151433,0.4290000501938164,-0.23253186780661342
1761391514619776800,7.53377685546875,-0.4566518810987472,0.2094030672840774,-0.14993644057586789
1761391514629842400,7.543842529296875,-0.18352876744568347,0.06348974474444985,-0.22421426744684575
1761391514639908600,7.55390869140625,-0.09134498926699161,0.033170155934989454,-0.26511092598065733
1761391514649974500,7.563974609375,-0.09411796111166476,0.0696516283750534,-0.25851006641089913
1761391514660040700,7.574040771484375,0.05911094513833522,0.16101247279830275,-0.3119752607472241
1761391514670107600,7.584107666015625,0.24506138677299022,0.0606648235168308,-0.3610840134397149
1761391514680173600,7.594173583984375,0.3909960443615913,0.10718699378222227,-0.2865266389749944
1761391514690239700,7.60423974609375,0.3649620239168405,0.15155322812274097,-0.1316018885925412
1761391514700305700,7.6143056640625,0.2318260576248169,0.07967500973939895,0.036416005988419056
1761391514710371800,7.624371826171875,0.0827794054955244,0.020451324941590427,0.13765987345725297
1761391514720438800,7.634438720703125,-0.10200082331597804,0.000025134441256523132,0.15963541229143738
1761391514730504400,7.64450439453125,-0.29782442418932914,-0.03525288049317896,0.19082272384613752
1761391514740570600,7.654570556640625,-0.4051864822775125,-0.040489904363825914,0.1995372145690024
1761391514750636500,7.664636474609375,-0.40475276703536506,-0.013325930041074753,0.16521525825038552
1761391514760702700,7.67470263671875,-0.3607470365703106,-0.02051094617433846,0.1217144085675478
1761391514770769700,7.684769775390625,-0.2769137381076813,-0.04880092885233461,0.03842325415760278
1761391514780835600,7.694835693359375,-0.22747020050287245,-0.046682402328401804,-0.03520429211109877
1761391514790901800,7.70490185546875,-0.24750293470621107,0.00717559071779251,-0.06676745124086737
1761391514800967700,7.7149677734375,-0.34412148046195506,-0.025043036646023392,-0.07896729986146092
1761391514811033600,7.72503369140625,-0.49594344252347944,-0.0610874328430742,-0.07906140788570046
1761391514821099500,7.735099609375,-0.5873094745784998,-0.08646182033531367,-0.12327522814348339
1761391514831166700,7.745166748046875,-0.4979886846154928,-0.062338163556531066,-0.16639233920574187
1761391514841232600,7.755232666015625,-0.28131518793702126,-0.08399908348359167,-0.24296879840791225
1761391514851298600,7.765298583984375,-0.028284429720044135,-0.056365445822477336,-0.244529325722903
1761391514861364500,7.775364501953125,0.2965986817866564,0.0838547796420753,-0.13335603878349064
1761391514871430700,7.7854306640625,0.5037468097507953,-0.05979322831407189,-0.0250410638846457
1761391514881497600,7.79549755859375,0.6644786389768124,-0.1221343875452876,0.002872632826864719
1761391514891563800,7.805563720703125,0.697935502898693,-0.108264048429206,-0.062037646239995956
1761391514901629700,7.815629638671875,0.6637830579280853,-0.1930039403427392,-0.11778364498987794
1761391514911695600,7.825695556640625,0.5967033258676528,-0.27906499785743655,-0.1073586970873177
1761391514921761500,7.835761474609375,0.39794250249862667,-0.22040216181278227,-0.06807225022912025
1761391514931827500,7.845827392578125,0.09893032982945442,-0.1544320714946836,-0.036911242159456015
1761391514941894700,7.855894775390625,-0.1465320389598608,-0.0981971201840788,0.016089403405040503
1761391514951960600,7.865960693359375,-0.3030179011791944,-0.040341947260499,0.03128726479783654
1761391514962026500,7.876026611328125,-0.39111236421763895,-0.027417072300985453,0.014466332247853278
1761391514972092700,7.8860927734375,-0.40675826163887974,-0.0304775558501482,0.004393851044774055
1761391514982158600,7.89615869140625,-0.36440672812163827,-0.04591543654389679,0.017231997568905352
1761391514992225500,7.9062255859375,-0.3348334276348352,-0.060490709058940405,0.011428279726207255
1761391515002291700,7.916291748046875,-0.28205285456180573,-0.0823486859280616,-0.04087766157239675
1761391515012357600,7.926357666015625,-0.19836860918104648,-0.05150229676552116,-0.0721751555033028
1761391515022423800,7.936423828125,-0.09700900637805461,-0.010374679020047187,-0.06267886675298213
1761391515032489500,7.946489501953125,0.043886487999558445,0.0022680179972201587,-0.004881196170300245
1761391515042555600,7.9565556640625,0.17267244238853455,-0.02214110465943813,0.05957081773504615
1761391515052622600,7.96662255859375,0.1891431001961231,-0.07038439962901175,0.10698168046846986
1761391515062688500,7.9766884765625,0.12701777567267417,-0.08604710205458103,0.10808788814470172
1761391515072754700,7.986754638671875,0.02194295173883438,-0.06249072376973926,0.08667159062847495
1761391515082820600,7.996820556640625,-0.12194880184531211,-0.03835333072654903,0.06937602630406618
1761391515092886800,8.00688671875,-0.23755671023130415,-0.07416333364583551,0.053256666152179236
1761391515102953700,8.01695361328125,-0.22352175513803957,-0.08023008633889257,0.04376227709800005
1761391515113019600,8.02701953125,-0.13682488393783568,-0.048143195595964784,0.028243805448710916
1761391515123085800,8.0370859375,-0.11063654971420764,0.024380627214536068,-0.004445288971066475
1761391515133151500,8.0471513671875,-0.1336304718106985,0.042030119543150064,0.00983618822917342
1761391515143217700,8.0572177734375,-0.12946750691235065,0.007996186385676264,0.062099751690775154
1761391515153284600,8.06728466796875,-0.08766191684007645,0.007333630823716521,0.03908420228436589
1761391515163350500,8.0773505859375,-0.03415010688304901,0.013729469340667128,-0.05298004116788506
1761391515173416700,8.087416748046875,0.000495090040564537,-0.03591455927230418,-0.16469488763809204
1761391515183482600,8.097482666015624,-0.016098317363858222,-0.16280154817216097,-0.23604301773272454
1761391515193548800,8.107548828125,-0.05145487742722034,-0.2402156272422522,-0.2558916275408119
1761391515203614700,8.11761474609375,-0.16997545838952063,-0.27432861698530614,-0.29999117376916107
1761391515213681700,8.127681640625,-0.2772907547265291,-0.29846301435381173,-0.3345524918016046
1761391515223747800,8.137747802734374,-0.27629180681705473,-0.30019962888807056,-0.3078574501648545
1761391515233813500,8.1478134765625,-0.15863456468582152,-0.25905973618291317,-0.2659676158752292
1761391515243879700,8.157879638671876,-0.006247369956970215,-0.21444106145128605,-0.20327428220547736
1761391515253945600,8.167945556640625,0.08422668169438838,-0.09206548556126654,-0.11282215012498199
1761391515264012500,8.178012451171876,0.08040566210150718,0.031199878775328396,0.004395093153789639
1761391515274078700,8.18807861328125,0.04956745624542236,0.08445581427514552,0.10456102919280529
1761391515284144600,8.19814453125,-0.009740472769737243,0.09944032517820596,0.15308642903938888
1761391515294210600,8.20821044921875,-0.07930033120810985,0.12374715650416909,0.10625095504112542
1761391515304276700,8.21827685546875,-0.11415244888067244,0.15844488733261822,-0.011868278578668833
1761391515314342700,8.2283427734375,-0.06518705018162727,0.2075722716603428,-0.06800977945216
1761391515324409600,8.23840966796875,-0.025455343773961067,0.16648557044714687,-0.05345291937664151
1761391515334475500,8.2484755859375,-0.056091305056214326,0.09313004605285823,-0.04576930607147515
1761391515344541400,8.25854150390625,-0.14400982700586318,0.08304287873730062,-0.08330174886919557
1761391515354607600,8.268607666015624,-0.3038017450332641,0.13901574504561723,-0.09965301808081567
1761391515364673500,8.278673583984375,-0.4187894756942987,0.13248692779876292,-0.06467150187492371
1761391515374740500,8.288740478515624,-0.42460137684345245,0.13411694015339015,-0.026854908373579383
1761391515384806400,8.298806396484375,-0.3380120576709509,0.1289737320460379,-0.06178367147892713
1761391515394872300,8.308872314453126,-0.19314824418425558,0.12526238337270915,-0.11294862604886292
1761391515404938500,8.3189384765625,-0.015581600013375281,0.08552271285429597,-0.13338175774663685
1761391515415004400,8.32900439453125,0.10365151313245295,0.05739500806592405,-0.15272636355534194
1761391515425071400,8.3390712890625,0.1457294904053211,0.025778511313721535,-0.16606880633980034
1761391515435137500,8.349137451171876,0.09873626856207847,-0.026311229950934645,-0.16191497459597884
1761391515445203500,8.359203369140625,0.06741933927834033,-0.0732221072729677,-0.1590712756026536
1761391515455269600,8.36926953125,0.0489122072070837,-0.07527056423537433,-0.1309179249163717
1761391515465335600,8.37933544921875,0.04709609769582748,-0.10132577359862625,-0.08791055783890188
1761391515475401500,8.3894013671875,0.12212825006544589,-0.17137275796681642,-0.11166910763233899
1761391515485468400,8.399468505859375,0.21346973220109938,-0.21817272226028142,-0.13410210791043936
1761391515495534300,8.409534423828125,0.3482587263971567,-0.20383549628481268,-0.18691899440586565
1761391515505600500,8.4196005859375,0.4758557632625103,-0.22025303566567597,-0.1898376583315432
1761391515515666400,8.42966650390625,0.5229243884295225,-0.2099863470647484,-0.13761252718418837
1761391515525732600,8.439732666015624,0.43841947431564326,-0.0766232940185815,-0.03749430274441838
1761391515535799600,8.449799560546875,0.3179664639860391,-0.030499986877664923,0.02009213624037802
1761391515545865500,8.459865478515624,0.20484511171877384,-0.05162073551341891,0.005379354950785636
1761391515555931600,8.469931640625,0.2045803233027458,-0.0770161657936871,-0.07540303150862455
1761391515565997600,8.47999755859375,0.3868225580692291,-0.19100589839331805,-0.1533950565971434
1761391515576063500,8.4900634765625,0.5719909094154835,-0.2940132684033364,-0.15624109367802738
1761391515586129400,8.50012939453125,0.5817109239190816,-0.28327202109321953,-0.2880965186402201
1761391515596196400,8.5101962890625,0.5661509512156248,-0.26336576281376184,-0.45741000598967074
1761391515606262500,8.520262451171876,0.3882768485307693,-0.31652737109363077,-0.7167682136625051
1761391515616328400,8.530328369140625,0.21573124739229677,-0.33380759171843527,-0.8846855704784393
1761391515626394600,8.54039453125,0.24877602338194846,-0.35426461574845014,-0.9201561123102903
1761391515636460500,8.55046044921875,0.3690244510501623,-0.4038360175166279,-0.9274879165031016
1761391515646527500,8.560527587890626,0.5268073673427105,-0.44583369609490037,-0.8509991355843841
1761391515656593700,8.57059375,0.6535451570302248,-0.18768910199552774,-0.6142116561599076
1761391515666659600,8.58065966796875,0.12702186732590198,0.2730653921164572,-0.3409522027760744
1761391515676725500,8.5907255859375,-0.8209300144046544,0.0838655932970345,-0.32037980873808264
1761391515686791400,8.60079150390625,-1.471528596588969,0.285979964877665,-0.026387510057538748
1761391515696858400,8.6108583984375,-1.4349749356955288,0.6133768127709627,0.15013868514969944
1761391515706924500,8.620924560546875,-1.3691782291829586,0.5867958259679377,0.47914121467396614
1761391515716990500,8.630990478515624,-1.451784031677246,0.3938125630870461,0.8276998008005321
1761391515727056400,8.641056396484375,-1.3066034073263406,0.22505407927185295,1.0250127634488047
1761391515737122600,8.65112255859375,-1.049827032840252,0.22797946519926188,1.0742702769622205
1761391515747188500,8.6611884765625,-0.7614987512707709,0.3244419436104595,0.992345442469418
1761391515757255700,8.671255615234376,-0.4352478585422039,0.3169908969521522,0.9114902830347418
1761391515767321600,8.681321533203125,-0.18433014695644379,0.18726203568987548,0.8023083160430192
1761391515777387500,8.691387451171876,-0.00040799627900123595,-0.06930522609017789,0.5883788573756814
1761391515787453400,8.701453369140625,0.14618483295738696,-0.17173939932212232,0.3658142568320036
1761391515797519400,8.711519287109375,0.296049231210351,-0.12580430822968483,0.1540390535891056
1761391515807586300,8.72158642578125,0.5224620316147804,-0.05597388922162354,0.04695215918049216
1761391515817652500,8.731652587890625,0.7363929515868425,-0.014704451852664351,-0.027275252677500247
1761391515827718400,8.741718505859374,0.7769979336977004,-0.12022278177030384,-0.08817775740772485
1761391515837784600,8.75178466796875,0.5157523048430681,-0.2352217644777149,-0.1664614589191973
1761391515847850500,8.7618505859375,0.055716042003035544,-0.34356450416631995,-0.27794541924297805
1761391515857916700,8.771916748046875,-0.23461890321373938,-0.3956216583356261,-0.4413870919495821
1761391515867983600,8.781983642578124,-0.35821956391930576,-0.25735914281010625,-0.47342663641944527
1761391515878049500,8.792049560546875,-0.3420014195680618,-0.0377820336446166,-0.25544629492610693
1761391515888115500,8.802115478515624,-0.22134733370840548,-0.057061319132149214,0.06556275162622333
1761391515898181400,8.812181396484375,0.04596270975172519,-0.10177797434553504,0.21811668122410774
1761391515908247600,8.82224755859375,0.43661213263273235,-0.10886690969318151,0.21393749584332108
1761391515918314500,8.832314453125,0.722488344874978,-0.0982294880837202,0.19519611662477254
1761391515928380400,8.84238037109375,0.6696423053503036,-0.16969035783782602,0.180614633564651
1761391515938446600,8.852446533203125,0.4837269350290298,-0.21076777976602315,0.14641498845145107
1761391515948512500,8.862512451171876,0.16680442713797092,-0.15271028920337557,0.16633008762449025
1761391515958578700,8.87257861328125,-0.053473816034197805,-0.06926832814589143,0.21043504068031907
1761391515968645600,8.882645751953126,-0.24196751241087913,-0.14069105784669517,0.2759660819940269
1761391515978711600,8.892711669921875,-0.44271746377050875,-0.20816110439896582,0.27707243580073115
1761391515988777500,8.902777587890625,-0.5590379043400288,-0.16080299476608634,0.1538008609190583
1761391515998843400,8.912843505859374,-0.5835252798646688,-0.09249269799739122,-0.022555676809698343
1761391516008909600,8.92290966796875,-0.5771960768431424,-0.03398702527582645,-0.15269304580762982
1761391516018975500,8.9329755859375,-0.4938660517275333,-0.07339797529652714,-0.23008739726394414
1761391516029042400,8.94304248046875,-0.2961474308878183,-0.07292261286973953,-0.18952157811969517
1761391516039108600,8.953108642578124,-0.03420914359390735,-0.09491086505502462,-0.05816518872082233
1761391516049174500,8.963174560546875,0.0837859521895647,-0.1060084515221417,0.006593114654719829
1761391516059240700,8.97324072265625,0.0903828662365675,-0.11705021614879368,0.04979337395578622
1761391516069306600,8.983306640625,0.1856622723430395,-0.04355667152330279,0.10600669795647263
1761391516079373600,8.99337353515625,0.25868600749969484,-0.06165127727091312,0.18684958243146538
1761391516089439500,9.003439453125,0.30331366925537584,-0.16733415010049937,0.18036270463019607
1761391516099505400,9.01350537109375,0.22988778303861618,-0.3210486479103565,0.0365479618050158
1761391516109571600,9.023571533203125,0.1385878019571304,-0.4819843291454017,-0.20602862241491673
1761391516119637500,9.033637451171876,-0.053557987186312675,-0.17906711186170576,-0.12085749947726726
1761391516129703400,9.043703369140625,-0.3419020508468151,-0.16085092556104064,-0.008913374295830726
1761391516139770600,9.0537705078125,-0.7142050851762294,-0.21269056452214716,-0.1431951496221125
1761391516149836500,9.06383642578125,-0.8532716105610132,-0.14199030387699604,-0.26703034973591566
