time,seconds_elapsed,z,y,x
1761391507170798000,0.084798095703125,0.36129382252693176,-0.6346132755279541,0.28221461176872253
1761391507180865000,0.094864990234375,0.365570604801178,-0.48652899265289307,0.2722115218639374
1761391507190931200,0.10493115234375,0.3629346489906311,-0.31663042306900024,0.22636640071868896
1761391507200997000,0.1149970703125,0.3579292595386505,-0.11924465000629425,0.16953986883163452
1761391507211063000,0.12506298828125,0.34157878160476685,0.03395608812570572,0.10688553750514984
1761391507221129000,0.13512890625,0.32223278284072876,0.023754581809043884,0.048192135989665985
1761391507231196000,0.14519580078125,0.3154199719429016,-0.15768224000930786,-0.02859148010611534
1761391507241262000,0.155261962890625,0.30881452560424805,-0.33191075921058655,-0.09085964411497116
1761391507251328000,0.165327880859375,0.2794230580329895,-0.4239901900291443,-0.11595049500465393
1761391507261394000,0.175393798828125,0.2224777340888977,-0.432759165763855,-0.13141174614429474
1761391507271460000,0.185460205078125,0.14494511485099792,-0.38431674242019653,-0.14695972204208374
1761391507281526000,0.195526123046875,0.06472378224134445,-0.27646592259407043,-0.165431410074234
1761391507291593000,0.205593017578125,0.0035455503966659307,-0.1524338573217392,-0.20089727640151978
1761391507301659100,0.2156591796875,-0.028704797849059105,-0.03487579897046089,-0.2509111762046814
1761391507311725000,0.22572509765625,-0.02473820187151432,-0.0025150608271360397,-0.33929622173309326
1761391507321791200,0.235791259765625,-0.003246759530156851,-0.06552198529243469,-0.4220030903816223
1761391507331857200,0.245857177734375,0.029490984976291656,-0.10969799757003784,-0.46489694714546204
1761391507341924000,0.255924072265625,0.0534980483353138,-0.12471795827150345,-0.4445781111717224
1761391507351990300,0.265990234375,0.05647942051291466,-0.1372728794813156,-0.3616026043891907
1761391507362056200,0.27605615234375,0.06680609285831451,-0.12403243780136108,-0.2673085927963257
1761391507372122400,0.286122314453125,0.10272978246212006,-0.07132556289434433,-0.17955727875232697
1761391507382188000,0.29618798828125,0.14001324772834778,-0.00984968338161707,-0.11020056903362274
1761391507392254200,0.306254150390625,0.17862285673618317,0.028700310736894608,-0.07118688523769379
1761391507402321200,0.316321044921875,0.2264564335346222,0.05031825602054596,-0.038022011518478394
1761391507412387000,0.326386962890625,0.2828783094882965,0.03451123088598251,-0.005960941314697266
1761391507422453200,0.336453369140625,0.33342379331588745,0.018464885652065277,0.03949229419231415
1761391507432519200,0.346519287109375,0.365469366312027,-0.0036411555483937263,0.09463310241699219
1761391507442585300,0.35658544921875,0.3833775222301483,-0.02763384021818638,0.1417553424835205
1761391507452652300,0.36665234375,0.4001787602901459,-0.07088803499937057,0.1618901789188385
1761391507462718200,0.37671826171875,0.4214731454849243,-0.1271182894706726,0.15407831966876984
1761391507472784400,0.386784423828125,0.44426095485687256,-0.15949752926826477,0.12650825083255768
1761391507482850000,0.39685009765625,0.4596444368362427,-0.19413328170776367,0.11361401528120041
1761391507492916200,0.406916259765625,0.43855857849121094,-0.24425531923770905,0.12605009973049164
1761391507502983200,0.416983154296875,0.37344855070114136,-0.36400434374809265,0.21405744552612305
1761391507513049000,0.427049072265625,0.4343997836112976,-0.5365502834320068,0.27021029591560364
1761391507523115300,0.437115234375,0.49759528040885925,-0.5519191026687622,0.2342062145471573
1761391507533181200,0.44718115234375,0.4793877899646759,-0.435021311044693,0.2178034484386444
1761391507543247000,0.4572470703125,0.43598732352256775,-0.3328888416290283,0.17093181610107422
1761391507553313300,0.467313232421875,0.4104931354522705,-0.24765484035015106,0.11390528827905655
1761391507563380200,0.477380126953125,0.39361026883125305,-0.1650497019290924,0.0562763437628746
1761391507573446400,0.4874462890625,0.3666863739490509,-0.10410419851541519,0.007528071757405996
1761391507583512000,0.497511962890625,0.31474167108535767,-0.0863792672753334,-0.016484320163726807
1761391507593578000,0.507577880859375,0.2443898618221283,-0.08686655759811401,-0.03536450117826462
1761391507603644200,0.51764404296875,0.18405300378799438,-0.04991919919848442,-0.05913374572992325
1761391507613711000,0.527711181640625,0.1609559953212738,0.04239589720964432,-0.0818631500005722
1761391507623777000,0.537777099609375,0.1851436197757721,0.11969015747308731,-0.08225277066230774
1761391507633843200,0.54784326171875,0.21117177605628967,0.1378481388092041,-0.04958600923418999
1761391507643909000,0.5579091796875,0.22741998732089996,0.1091640368103981,0.02157498523592949
1761391507653975300,0.567975341796875,0.2403305470943451,0.0655173510313034,0.10681312531232834
1761391507664042200,0.578042236328125,0.23897260427474976,0.008192810229957104,0.17947934567928314
1761391507674108200,0.588108154296875,0.23004606366157532,-0.05820935219526291,0.2316940873861313
1761391507684174000,0.598174072265625,0.1974596232175827,-0.11438899487257004,0.24955937266349792
1761391507694240000,0.608239990234375,0.1548459827899933,-0.11862651258707047,0.2373029887676239
1761391507704306200,0.61830615234375,0.10240087658166885,-0.09752122312784195,0.19283325970172882
1761391507714373000,0.628373046875,0.05720676854252815,-0.10466409474611282,0.13790982961654663
1761391507724439000,0.63843896484375,0.035667918622493744,-0.10369869321584702,0.08764106035232544
1761391507734505200,0.648505126953125,0.04195958375930786,-0.085233673453331,0.05414091795682907
1761391507744571100,0.658571044921875,0.06379936635494232,-0.07309524714946747,0.027974560856819153
1761391507754637300,0.66863720703125,0.10118062794208527,-0.07964473962783813,0.020885281264781952
1761391507764703200,0.678703125,0.13213321566581726,-0.07970279455184937,0.04627186432480812
1761391507774770200,0.688770263671875,0.15095698833465576,-0.08281148225069046,0.08289901167154312
1761391507784836000,0.698836181640625,0.15997818112373352,-0.12044674158096313,0.11003236472606659
1761391507794902000,0.708902099609375,0.16699829697608948,-0.1665729284286499,0.11882201582193375
1761391507804968200,0.71896826171875,0.1618139147758484,-0.22321195900440216,0.11420249938964844
1761391507815034000,0.7290341796875,0.13444361090660095,-0.28543245792388916,0.10412728786468506
1761391507825101000,0.73910107421875,0.08112073689699173,-0.3036942780017853,0.12422750145196915
1761391507835167200,0.749167236328125,0.009296462871134281,-0.2657254636287689,0.17850938439369202
1761391507845233200,0.759233154296875,-0.07125616818666458,-0.21376720070838928,0.23195503652095795
1761391507855299300,0.76929931640625,-0.14481694996356964,-0.14901529252529144,0.2673046588897705
1761391507865365200,0.779365234375,-0.2243863344192505,-0.079009048640728,0.24407817423343658
1761391507875432200,0.78943212890625,-0.30422163009643555,-0.02278604544699192,0.20466504991054535
1761391507885498400,0.799498291015625,-0.38360700011253357,-0.03236730024218559,0.14525099098682404
1761391507895564000,0.80956396484375,-0.4459187984466553,-0.08287207782268524,0.10717727988958359
1761391507905630200,0.819630126953125,-0.5175594091415405,-0.1305019110441208,0.10943004488945007
1761391507915696000,0.829696044921875,-0.5628183484077454,-0.16874639689922333,0.1214694082736969
1761391507925762300,0.83976220703125,-0.5635214447975159,-0.19497506320476532,0.18038812279701233
1761391507935829200,0.849829345703125,-0.47965207695961,-0.2744431495666504,0.27688026428222656
1761391507945895200,0.859895263671875,-0.36367353796958923,-0.373503178358078,0.3369976580142975
1761391507955961300,0.86996142578125,-0.30368250608444214,-0.4423864483833313,0.3310290575027466
1761391507966027300,0.88002734375,-0.3393312990665436,-0.4947434067726135,0.30422645807266235
1761391507976093000,0.890093017578125,-0.46408355236053467,-0.5024800896644592,0.26616188883781433
1761391507986160400,0.900160400390625,-0.6091699004173279,-0.45611658692359924,0.26292774081230164
1761391507996226000,0.91022607421875,-0.7224000096321106,-0.4031214714050293,0.2448851317167282
1761391508006292200,0.920292236328125,-0.8480849862098694,-0.35707059502601624,0.18586044013500214
1761391508016358100,0.930358154296875,-0.993126392364502,-0.27355432510375977,0.15531162917613983
1761391508026424000,0.940424072265625,-1.1139801740646362,-0.16836479306221008,0.1600099802017212
1761391508036491300,0.9504912109375,-1.197943925857544,-0.039460137486457825,0.17533273994922638
1761391508046557200,0.96055712890625,-1.2579193115234375,0.09201852232217789,0.22361771762371063
1761391508056623000,0.970623046875,-1.2634053230285645,0.2064751237630844,0.3050966262817383
1761391508066689300,0.980689208984375,-1.2084273099899292,0.3321763277053833,0.42874854803085327
1761391508076755200,0.990755126953125,-1.118183970451355,0.3997548520565033,0.5715230107307434
1761391508086821000,1.000821044921875,-1.0495028495788574,0.3849966824054718,0.7101873755455017
1761391508096888000,1.01088818359375,-1.0286755561828613,0.33784234523773193,0.7888239622116089
1761391508106954000,1.0209541015625,-1.0075407028198242,0.25711899995803833,0.7784573435783386
1761391508117020200,1.031020263671875,-0.9690575003623962,0.09798488765954971,0.6907562017440796
1761391508127086000,1.041086181640625,-0.9221590161323547,-0.0837167277932167,0.5690087676048279
1761391508137152300,1.05115234375,-0.8510607481002808,-0.19257782399654388,0.4888499975204468
1761391508147219200,1.06121923828125,-0.7852175831794739,-0.23902574181556702,0.4896926283836365
1761391508157285000,1.07128515625,-0.7550486922264099,-0.20763690769672394,0.5706852674484253
1761391508167351300,1.081351318359375,-0.7578913569450378,-0.010810129344463348,0.6978826522827148
1761391508177417200,1.091417236328125,-0.755997359752655,0.30988606810569763,0.832003116607666
1761391508187483100,1.101483154296875,-0.7351008653640747,0.6165083050727844,0.8952683806419373
1761391508197550000,1.111550048828125,-0.6996306777000427,0.8063918352127075,0.8771787285804749
1761391508207616000,1.121615966796875,-0.6368556618690491,0.8945603370666504,0.8111669421195984
1761391508217682200,1.13168212890625,-0.5536632537841797,0.8843591809272766,0.7504282593727112
1761391508227748000,1.141748046875,-0.4650965929031372,0.7885200381278992,0.732667863368988
1761391508237814300,1.151814208984375,-0.4045562446117401,0.6458151340484619,0.7808425426483154
1761391508247880200,1.161880126953125,-0.37342387437820435,0.47372886538505554,0.8748098015785217
1761391508257947100,1.171947021484375,-0.3493042290210724,0.3689269721508026,1.0002899169921875
1761391508268013300,1.182013427734375,-0.3019401729106903,0.3565736413002014,1.1189446449279785
1761391508278079200,1.192079345703125,-0.2558062970638275,0.3770250678062439,1.1655091047286987
1761391508288145200,1.202145263671875,-0.21056824922561646,0.4221526086330414,1.1348044872283936
1761391508298211000,1.212211181640625,-0.16248412430286407,0.5106789469718933,1.0494929552078247
1761391508308278000,1.222278076171875,-0.10639261454343796,0.611268937587738,0.9258211851119995
1761391508318344400,1.232344482421875,-0.054582539945840836,0.6346300840377808,0.7839813232421875
1761391508328410000,1.24241015625,-0.0007043955847620964,0.586716890335083,0.6574060916900635
1761391508338476300,1.252476318359375,0.017478300258517265,0.4977123737335205,0.5714296698570251
1761391508348542200,1.262542236328125,-0.021572163328528404,0.36316415667533875,0.5521265268325806
1761391508358609200,1.272609130859375,-0.09429202228784561,0.26052021980285645,0.6073418259620667
1761391508368675300,1.28267529296875,-0.16285644471645355,0.23925969004631042,0.7145540118217468
1761391508378741200,1.2927412109375,-0.1848217248916626,0.2764008045196533,0.8411299586296082
1761391508388807400,1.302807373046875,-0.15942636132240295,0.35530784726142883,0.9454283714294434
1761391508398873300,1.312873291015625,-0.11880958080291748,0.4020393490791321,1.0038238763809204
1761391508408939300,1.322939208984375,-0.08317302167415619,0.4367794394493103,1.0176308155059814
1761391508419006500,1.33300634765625,-0.050489023327827454,0.3915278911590576,1.011982798576355
1761391508429072100,1.343072021484375,-0.05527472496032715,0.3192627727985382,0.9952979683876038
1761391508439138000,1.353137939453125,-0.08328936994075775,0.3152572512626648,0.9559321403503418
1761391508449204200,1.363204345703125,-0.12279896438121796,0.3783062696456909,0.9126003980636597
1761391508459270100,1.373270263671875,-0.15788298845291138,0.5156824588775635,0.8617733120918274
1761391508469337300,1.38333740234375,-0.15912428498268127,0.6535918712615967,0.8330782651901245
1761391508479403300,1.3934033203125,-0.1128721684217453,0.7920932173728943,0.8090986013412476
1761391508489469200,1.40346923828125,-0.04728277027606964,0.8674595952033997,0.7747515439987183
1761391508499535400,1.413535400390625,0.02064714953303337,0.8594478368759155,0.7371505498886108
1761391508509601300,1.423601318359375,0.04538445174694061,0.8320870995521545,0.7173488736152649
1761391508519668200,1.433668212890625,0.03349125385284424,0.7359469532966614,0.696641743183136
1761391508529734100,1.443734130859375,-0.0016875062137842178,0.5699777007102966,0.6673118472099304
1761391508539800000,1.453800048828125,-0.020408958196640015,0.4980829656124115,0.6435226798057556
1761391508549866200,1.4638662109375,-0.019528251141309738,0.4569395184516907,0.6032940149307251
1761391508559932200,1.47393212890625,-0.0192379392683506,0.4222881495952606,0.5325356721878052
1761391508569998300,1.483998291015625,-0.002771880477666855,0.37085476517677307,0.4384448826313019
1761391508580065300,1.494065185546875,0.021170184016227722,0.30655723810195923,0.35680606961250305
1761391508590131200,1.504131103515625,0.05906270444393158,0.3132593631744385,0.30816900730133057
1761391508600197400,1.514197265625,0.09969092905521393,0.3559603989124298,0.29651594161987305
1761391508610263300,1.52426318359375,0.12281675636768341,0.41353607177734375,0.31058886647224426
1761391508620329200,1.5343291015625,0.1599418967962265,0.46306276321411133,0.36799290776252747
1761391508630396400,1.544396484375,0.18508745729923248,0.5556949377059937,0.41882413625717163
1761391508640462000,1.554462158203125,0.16975174844264984,0.6086668968200684,0.4367378354072571
1761391508650528300,1.5645283203125,0.11226315796375275,0.5404478907585144,0.40988197922706604
1761391508660594200,1.57459423828125,0.015879100188612938,0.40728187561035156,0.3435857892036438
1761391508670660400,1.584660400390625,-0.09286122769117355,0.2081884741783142,0.25359731912612915
1761391508680726300,1.594726318359375,-0.15565843880176544,-0.04729270935058594,0.13300813734531403
1761391508690793200,1.604793212890625,-0.16015438735485077,-0.10210615396499634,-0.0029185358434915543
1761391508700859400,1.614859375,-0.13106921315193176,-0.06760918349027634,-0.1491144448518753
1761391508710925300,1.62492529296875,-0.1030879095196724,-0.12506234645843506,-0.31046047806739807
1761391508720991200,1.6349912109375,-0.07641838490962982,-0.26256048679351807,-0.48913314938545227
1761391508731057200,1.64505712890625,-0.04122551158070564,-0.4363333284854889,-0.6599059700965881
1761391508741124000,1.6551240234375,-0.010184744372963905,-0.47552356123924255,-0.7493969798088074
1761391508751190300,1.665190185546875,0.013037221506237984,-0.4314860701560974,-0.7516859173774719
1761391508761256200,1.675256103515625,0.0130937360227108,-0.3338475525379181,-0.6913190484046936
1761391508771322400,1.685322265625,-0.0045502386055886745,-0.22424359619617462,-0.5943874716758728
1761391508781388300,1.69538818359375,-0.03233116865158081,-0.17334118485450745,-0.4656679928302765
1761391508791454200,1.7054541015625,-0.053846314549446106,-0.12510652840137482,-0.29698070883750916
1761391508801521400,1.715521484375,-0.05231437459588051,-0.13359636068344116,-0.12304749339818954
1761391508811587300,1.72558740234375,-0.049405936151742935,-0.18224859237670898,0.02778462879359722
1761391508821653200,1.7356533203125,-0.05282588303089142,-0.26078081130981445,0.1371520757675171
1761391508831719200,1.74571923828125,-0.04810090363025665,-0.3348523676395416,0.19385476410388947
1761391508841785000,1.75578515625,-0.0461641401052475,-0.36828291416168213,0.18284918367862701
1761391508851852300,1.765852294921875,-0.04390471428632736,-0.3653915524482727,0.12155173718929291
1761391508861918200,1.775918212890625,-0.055348873138427734,-0.3450995981693268,0.009537149220705032
1761391508871984000,1.785984130859375,-0.06912673264741898,-0.29410460591316223,-0.12593892216682434
1761391508882050300,1.79605029296875,-0.07951964437961578,-0.22554336488246918,-0.2600840628147125
1761391508892116200,1.8061162109375,-0.07936491817235947,-0.1703656017780304,-0.3674643337726593
1761391508902183200,1.81618310546875,-0.07225637882947922,-0.10782094299793243,-0.41717302799224854
1761391508912249300,1.826249267578125,-0.06851836293935776,-0.06889484822750092,-0.4189291298389435
1761391508922315300,1.836315185546875,-0.08708564937114716,-0.0826021209359169,-0.3961111009120941
1761391508932381200,1.846381103515625,-0.08928648382425308,-0.12008291482925415,-0.3529239594936371
1761391508942447000,1.856447021484375,-0.08427640795707703,-0.1554359793663025,-0.32170113921165466
1761391508952513300,1.86651318359375,-0.07639371603727341,-0.17501765489578247,-0.31061145663261414
1761391508962580200,1.876580322265625,-0.0620749294757843,-0.19862467050552368,-0.3191646933555603
1761391508972646100,1.886646240234375,-0.0634392648935318,-0.2635895609855652,-0.32995128631591797
1761391508982712300,1.89671240234375,-0.03837784007191658,-0.26969295740127563,-0.31653517484664917
1761391508992778200,1.9067783203125,-0.013109500519931316,-0.26490193605422974,-0.28092843294143677
1761391509002844400,1.916844482421875,0.016779102385044098,-0.28304052352905273,-0.252789169549942
1761391509012911400,1.926911376953125,0.04517851769924164,-0.27681753039360046,-0.2372608184814453
1761391509022977300,1.936977294921875,0.06000881642103195,-0.26749762892723083,-0.23819918930530548
1761391509033043200,1.947043212890625,0.10460344702005386,-0.28418925404548645,-0.23310403525829315
1761391509043109000,1.957109130859375,0.13812658190727234,-0.3362603485584259,-0.24727287888526917
1761391509053175300,1.96717529296875,0.13170357048511505,-0.38651207089424133,-0.32117241621017456
1761391509063241200,1.9772412109375,0.13155902922153473,-0.42690232396125793,-0.41215598583221436
1761391509073308200,1.98730810546875,0.13627097010612488,-0.5166476368904114,-0.5039793848991394
1761391509083374300,1.997374267578125,0.13127495348453522,-0.6038767099380493,-0.5900839567184448
1761391509093440300,2.007440185546875,0.13006827235221863,-0.6987323760986328,-0.669188380241394
1761391509103506400,2.01750634765625,0.14229919016361237,-0.777187168598175,-0.7562955617904663
1761391509113572400,2.027572265625,0.1646937131881714,-0.8151339888572693,-0.8259097933769226
1761391509123639300,2.037639404296875,0.19316479563713074,-0.8395546078681946,-0.8682780265808105
1761391509133705200,2.047705322265625,0.20959970355033875,-0.8356030583381653,-0.8912760019302368
1761391509143771100,2.057771240234375,0.2133551985025406,-0.8331341743469238,-0.8980076909065247
1761391509153837300,2.06783740234375,0.20624855160713196,-0.8390397429466248,-0.859653115272522
1761391509163903200,2.0779033203125,0.1826724410057068,-0.7070605754852295,-0.7759423851966858
1761391509173970200,2.08797021484375,0.15394465625286102,-0.46059274673461914,-0.6851656436920166
1761391509184036400,2.098036376953125,0.11695948243141174,-0.24967674911022186,-0.6327619552612305
1761391509194102300,2.108102294921875,0.045962803065776825,-0.1306726038455963,-0.6468671560287476
1761391509204168200,2.118168212890625,-0.033022232353687286,-0.11352040618658066,-0.7102034091949463
1761391509214234400,2.128234375,-0.08030612766742706,-0.1299760788679123,-0.7815812230110168
1761391509224300000,2.138300048828125,-0.07865623384714127,-0.14768022298812866,-0.8229464292526245
1761391509234367500,2.148367431640625,-0.041753340512514114,-0.2178175002336502,-0.8211075663566589
1761391509244433200,2.15843310546875,0.010062535293400288,-0.30532413721084595,-0.7753568887710571
1761391509254499000,2.1684990234375,0.062496982514858246,-0.32843077182769775,-0.6785661578178406
1761391509264565200,2.178565185546875,0.14211249351501465,-0.3655184209346771,-0.5519974231719971
1761391509274631200,2.188631103515625,0.2635566294193268,-0.48934078216552734,-0.4350375235080719
1761391509284698400,2.198698486328125,0.3682801425457001,-0.5158594846725464,-0.3009296953678131
1761391509294764300,2.208764404296875,0.5034680366516113,-0.42952561378479004,-0.15153968334197998
1761391509304830200,2.218830322265625,0.614926815032959,-0.4157385528087616,-0.0550590381026268
1761391509314896400,2.228896484375,0.6900694966316223,-0.37508299946784973,-0.004561244510114193
1761391509324962300,2.23896240234375,0.7512636184692383,-0.30026376247406006,0.006189975421875715
1761391509335028500,2.249028564453125,0.7964409589767456,-0.22555838525295258,-0.009541583247482777
1761391509345095400,2.259095458984375,0.8318548798561096,-0.14565300941467285,-0.05937575921416283
1761391509355161000,2.2691611328125,0.8661377429962158,-0.06438931077718735,-0.1267329603433609
1761391509365227300,2.279227294921875,0.9137262105941772,-0.004801916889846325,-0.21051615476608276
1761391509375293200,2.289293212890625,0.9836294054985046,0.0427677296102047,-0.2900424003601074
1761391509385359400,2.299359375,1.064972162246704,0.0595625676214695,-0.3844768702983856
1761391509395426300,2.30942626953125,1.145214557647705,0.011345507577061653,-0.4878599941730499
1761391509405492200,2.3194921875,1.2326005697250366,-0.042388781905174255,-0.5826097130775452
1761391509415558400,2.329558349609375,1.3343924283981323,-0.04379439726471901,-0.6225648522377014
1761391509425624300,2.339624267578125,1.4469753503799438,0.00658330786973238,-0.621012806892395
1761391509435690500,2.3496904296875,1.5486353635787964,0.005131351761519909,-0.5923137664794922
1761391509445756200,2.359756103515625,1.6169019937515259,-0.045862309634685516,-0.538133442401886
1761391509455823000,2.369822998046875,1.6373299360275269,-0.08722865581512451,-0.4476245641708374
1761391509465889300,2.37988916015625,1.6132478713989258,-0.1535617560148239,-0.35220444202423096
1761391509475955200,2.389955078125,1.5753705501556396,-0.23716770112514496,-0.2851143777370453
1761391509486021400,2.400021484375,1.5212925672531128,-0.35174164175987244,-0.25293490290641785
1761391509496087300,2.41008740234375,1.4547390937805176,-0.4897945821285248,-0.2396143078804016
1761391509506154200,2.420154296875,1.3946563005447388,-0.5936909317970276,-0.24787043035030365
1761391509516220400,2.430220458984375,1.369695782661438,-0.6392629146575928,-0.2512965798377991
1761391509526286300,2.440286376953125,1.390247106552124,-0.5585498809814453,-0.26891815662384033
1761391509536352500,2.4503525390625,1.421043872833252,-0.44992271065711975,-0.34250155091285706
1761391509546418200,2.460418212890625,1.4441293478012085,-0.37088996171951294,-0.46400606632232666
1761391509556485000,2.470485107421875,1.440911889076233,-0.3029404580593109,-0.5961960554122925
1761391509566551300,2.48055126953125,1.3937410116195679,-0.21369582414627075,-0.7046429514884949
1761391509576617200,2.4906171875,1.2803326845169067,-0.10238686949014664,-0.750065803527832
1761391509586683400,2.500683349609375,1.1013715267181396,0.004434510134160519,-0.7617399096488953
1761391509596749300,2.510749267578125,0.8990368247032166,0.00991422962397337,-0.7791588306427002
1761391509606815200,2.520815185546875,0.7382482886314392,-0.09802096337080002,-0.8630976676940918
1761391509616882400,2.53088232421875,0.635744035243988,-0.21196910738945007,-0.9968408346176147
1761391509626948400,2.5409482421875,0.5585904717445374,-0.28262776136398315,-1.1812907457351685
1761391509637014300,2.55101416015625,0.49594300985336304,-0.27924609184265137,-1.3784490823745728
1761391509647080200,2.561080078125,0.46007490158081055,-0.17733021080493927,-1.5468662977218628
1761391509657146000,2.57114599609375,0.39919930696487427,-0.013355656526982784,-1.6508166790008545
1761391509667213300,2.58121337890625,0.304423451423645,0.07174129784107208,-1.6792166233062744
1761391509677279200,2.591279296875,0.17825298011302948,0.04760294035077095,-1.6775151491165161
1761391509687345200,2.60134521484375,0.04794320836663246,0.009771106764674187,-1.600425362586975
1761391509697411300,2.611411376953125,-0.025790665298700333,-0.03460061550140381,-1.4822217226028442
1761391509707477200,2.621477294921875,-0.04163317754864693,-0.05138448625802994,-1.3451555967330933
1761391509717544200,2.631544189453125,-0.052569180727005005,-0.00727694621309638,-1.1373193264007568
1761391509727610400,2.6416103515625,-0.08998861908912659,0.054853618144989014,-0.8591475486755371
1761391509737676300,2.65167626953125,-0.13286365568637848,0.12601780891418457,-0.5345417857170105
1761391509747742200,2.6617421875,-0.13882504403591156,0.15948109328746796,-0.24291929602622986
1761391509757808000,2.67180810546875,-0.11381237953901291,0.15791195631027222,-0.015962842851877213
1761391509767874300,2.681874267578125,-0.06378484517335892,0.1350889354944229,0.13833321630954742
1761391509777941200,2.691941162109375,-0.0151832215487957,0.11878293752670288,0.24120554327964783
1761391509788007200,2.702007080078125,0.04529997706413269,0.11659424006938934,0.28665637969970703
1761391509798073300,2.7120732421875,0.1282382607460022,0.17058716714382172,0.2711873948574066
1761391509808139300,2.72213916015625,0.20282138884067535,0.2264929711818695,0.23629052937030792
1761391509818205400,2.732205322265625,0.2527300715446472,0.2633897364139557,0.18560418486595154
1761391509828272400,2.7422724609375,0.27927783131599426,0.3056374192237854,0.1433439552783966
1761391509838338300,2.75233837890625,0.2984645962715149,0.34749510884284973,0.11333224922418594
1761391509848404500,2.762404541015625,0.31735390424728394,0.3646336495876312,0.09901808947324753
1761391509858470100,2.77247021484375,0.3315746486186981,0.3667585849761963,0.09914911538362503
1761391509868536300,2.782536376953125,0.33563005924224854,0.35318228602409363,0.1378522515296936
1761391509878602200,2.792602294921875,0.32530367374420166,0.3033287227153778,0.19448091089725494
1761391509888669200,2.802669189453125,0.29711678624153137,0.2267194539308548,0.2675588130950928
1761391509898735400,2.8127353515625,0.2610000669956207,0.1420956552028656,0.33112847805023193
1761391509908801300,2.82280126953125,0.23253697156906128,0.08258460462093353,0.35006171464920044
1761391509918867500,2.832867431640625,0.223666250705719,0.03265673294663429,0.32587167620658875
1761391509928933400,2.842933349609375,0.2148597538471222,-0.00431728083640337,0.2831198573112488
1761391509939000300,2.853000244140625,0.21191295981407166,-0.013299857266247272,0.24587179720401764
1761391509949066500,2.86306640625,0.2113107442855835,-0.02689429000020027,0.23333948850631714
1761391509959132200,2.873132080078125,0.2139909565448761,-0.028842926025390625,0.24293911457061768
1761391509969198300,2.8831982421875,0.20854607224464417,0.004783770069479942,0.27381253242492676
1761391509979264300,2.89326416015625,0.18020203709602356,0.04308455437421799,0.2881139814853668
1761391509989331200,2.903331298828125,0.13062292337417603,0.06870556622743607,0.2720998525619507
1761391509999397400,2.9133974609375,0.08822913467884064,0.08763983845710754,0.22525058686733246
1761391510009463300,2.92346337890625,0.07480715215206146,0.08383804559707642,0.1591774970293045
1761391510019529200,2.933529296875,0.0873224064707756,0.06422466784715652,0.08967671543359756
1761391510029595400,2.943595458984375,0.0978614091873169,0.03623168170452118,0.02391674555838108
1761391510039661300,2.953661376953125,0.0872684195637703,0.03336372226476669,-0.023880869150161743
1761391510049728500,2.963728515625,0.06428877264261246,0.05707672983407974,-0.0771975964307785
1761391510059794200,2.973794189453125,0.04275525361299515,0.08416134119033813,-0.14330656826496124
1761391510069860000,2.983860107421875,0.03294067829847336,0.10716123878955841,-0.2015848010778427
1761391510079926300,2.99392626953125,0.032065294682979584,0.11772572994232178,-0.2545854151248932
1761391510089992200,3.0039921875,0.027608156204223633,0.10980191081762314,-0.29500967264175415
1761391510100059400,3.014059326171875,0.026600684970617294,0.08471493422985077,-0.3280014395713806
1761391510110125300,3.024125244140625,0.030560050159692764,0.05617604777216911,-0.33857962489128113
1761391510120191200,3.034191162109375,0.03998604416847229,0.018255561590194702,-0.34387585520744324
1761391510130257400,3.04425732421875,0.056256167590618134,0.0025036102160811424,-0.30955106019973755
1761391510140323300,3.0543232421875,0.07228732854127884,-0.003889307379722595,-0.2624932825565338
1761391510150389200,3.06438916015625,0.08850780874490738,-0.025624219328165054,-0.20247100293636322
1761391510160456200,3.074456298828125,0.09781262278556824,-0.031935907900333405,-0.14618350565433502
1761391510170522000,3.084522216796875,0.09471328556537628,-0.019527986645698547,-0.09801661968231201
1761391510180588300,3.09458837890625,0.088889479637146,-0.0029463469982147217,-0.05358603224158287
1761391510190654200,3.104654296875,0.07722630351781845,-0.001270027831196785,-0.0021504475735127926
1761391510200720400,3.114720458984375,0.07244433462619781,-0.006051466800272465,0.04315711185336113
1761391510210787300,3.124787353515625,0.07818160206079483,-0.03054105117917061,0.06245674937963486
1761391510220853200,3.134853271484375,0.08954131603240967,-0.06255491077899933,0.05843271315097809
1761391510230919400,3.14491943359375,0.10310414433479309,-0.08950141817331314,0.03425066918134689
1761391510240985300,3.1549853515625,0.11763834208250046,-0.08812269568443298,0.006983097176998854
1761391510251051300,3.16505126953125,0.14045633375644684,-0.09146600216627121,-0.016659751534461975
1761391510261117200,3.1751171875,0.1615632027387619,-0.08307091891765594,-0.020642776042222977
1761391510271184100,3.18518408203125,0.18606388568878174,-0.0611463338136673,-0.019524237141013145
1761391510281250300,3.195250244140625,0.20645436644554138,-0.04829844832420349,-0.017113277688622475
1761391510291316200,3.205316162109375,0.2234519124031067,-0.044149648398160934,-0.019169704988598824
1761391510301382400,3.21538232421875,0.2372950166463852,-0.033441342413425446,-0.02143605425953865
1761391510311448300,3.2254482421875,0.23457138240337372,-0.040374137461185455,-0.017617855221033096
1761391510321514800,3.2355146484375,0.21772342920303345,-0.05608944967389107,0.022175097838044167
1761391510331581000,3.245580810546875,0.20544420182704926,-0.05001837760210037,0.07551513612270355
1761391510341646800,3.255646728515625,0.18410561978816986,-0.02550744265317917,0.11805646866559982
1761391510351712800,3.265712646484375,0.16364715993404388,-0.019591074436903,0.13805170357227325
1761391510361778700,3.27577880859375,0.14518453180789948,-0.01737106405198574,0.13895797729492188
1761391510371844900,3.285844970703125,0.13078297674655914,-0.02129836194217205,0.1410592794418335
1761391510381911800,3.295911865234375,0.13599026203155518,0.000588294118642807,0.14224626123905182
1761391510391977700,3.305977783203125,0.14191879332065582,0.021201802417635918,0.13001039624214172
1761391510402044000,3.3160439453125,0.1576886922121048,0.043099381029605865,0.1238720715045929
1761391510412109800,3.32610986328125,0.17088919878005981,0.06268961727619171,0.09890882670879364
1761391510422176000,3.336176025390625,0.17838627099990845,0.06372106075286865,0.06885026395320892
1761391510432243000,3.346242919921875,0.17936566472053528,0.03770390525460243,0.047322072088718414
1761391510442308900,3.356308837890625,0.1767381876707077,0.01064059603959322,0.02553129382431507
1761391510452374800,3.366374755859375,0.17355383932590485,-0.004569265991449356,-0.004506315104663372
1761391510462440700,3.376440673828125,0.17212505638599396,-0.010255381464958191,-0.04617439955472946
1761391510472507000,3.3865068359375,0.1788381189107895,-0.024077920243144035,-0.08076561242341995
1761391510482573800,3.39657373046875,0.18590188026428223,-0.028048694133758545,-0.08923739194869995
1761391510492639700,3.4066396484375,0.19230704009532928,-0.032815784215927124,-0.0742972195148468
1761391510502706000,3.416705810546875,0.194457545876503,-0.03345441073179245,-0.04611218720674515
1761391510512771800,3.426771728515625,0.19173841178417206,-0.011434563435614109,-0.00885570514947176
1761391510522837800,3.436837646484375,0.1845574676990509,0.006118064746260643,0.020759444683790207
1761391510532904000,3.446904052734375,0.17069019377231598,0.01591620221734047,0.04408664628863335
1761391510542971000,3.456970947265625,0.15825748443603516,0.008019397035241127,0.045944467186927795
1761391510553036800,3.467036865234375,0.16027472913265228,-0.010446873493492603,0.012490186840295792
1761391510563102700,3.477102783203125,0.1699928641319275,-0.034672319889068604,-0.022373519837856293
1761391510573168600,3.487168701171875,0.18250752985477448,-0.03368669003248215,-0.03325942903757095
1761391510583234800,3.49723486328125,0.18776008486747742,-0.02629535086452961,-0.013462021946907043
1761391510593301800,3.5073017578125,0.19659966230392456,-0.025502603501081467,0.016935663297772408
1761391510603367700,3.51736767578125,0.2070147544145584,-0.013683759607374668,0.04407753422856331
1761391510613433900,3.527433837890625,0.21942637860774994,-0.006378678139299154,0.05979037284851074
1761391510623499800,3.537499755859375,0.21968816220760345,-0.0128091461956501,0.06659848242998123
1761391510633566000,3.54756591796875,0.2256523072719574,-0.02211850695312023,0.05926138535141945
1761391510643631600,3.557631591796875,0.22032171487808228,-0.020259620621800423,0.07124269008636475
1761391510653698600,3.567698486328125,0.20688210427761078,-0.008292222395539284,0.10275160521268845
1761391510663764700,3.5777646484375,0.17388632893562317,0.017034173011779785,0.145924374461174
1761391510673830700,3.58783056640625,0.15843790769577026,0.007219690829515457,0.17706477642059326
1761391510683896800,3.597896728515625,0.15608607232570648,-0.012957216240465641,0.17192408442497253
1761391510693962800,3.607962646484375,0.17169132828712463,-0.0077451905235648155,0.12655211985111237
1761391510704029700,3.61802978515625,0.18415969610214233,-0.004325691610574722,0.06323439627885818
1761391510714095900,3.628095947265625,0.2056976556777954,-0.020312180742621422,0.005848036613315344
1761391510724161800,3.638161865234375,0.22550545632839203,-0.037364400923252106,-0.03939614072442055
1761391510734228000,3.64822802734375,0.22525174915790558,-0.04320995882153511,-0.049557849764823914
1761391510744293600,3.658293701171875,0.2061171978712082,-0.0435178205370903,-0.03984290361404419
1761391510754359800,3.66835986328125,0.18379901349544525,-0.04185903072357178,-0.011774981394410133
1761391510764426800,3.6784267578125,0.1501140147447586,-0.022887205705046654,0.013779914006590843
1761391510774492700,3.68849267578125,0.10490794479846954,0.016090504825115204,0.05865523964166641
1761391510784558800,3.698558837890625,0.102333202958107,-0.013100137934088707,0.08379015326499939
1761391510794624800,3.708624755859375,0.11461956053972244,0.0191362202167511,0.0685066282749176
1761391510804691000,3.71869091796875,0.12505888938903809,0.05194290727376938,0.050291139632463455
1761391510814758000,3.7287578125,0.10097969323396683,0.07043251395225525,0.038908131420612335
1761391510824823800,3.73882373046875,0.07567540556192398,0.09191064536571503,0.0523589588701725
1761391510834890000,3.748889892578125,0.08778313547372818,0.07687681168317795,0.04722486063838005
1761391510844955600,3.75895556640625,0.11614234000444412,0.08405669033527374,0.030057858675718307
1761391510855021800,3.769021728515625,0.12758003175258636,0.0840747058391571,0.03483375161886215
1761391510865088800,3.7790888671875,0.09844158589839935,0.1380937397480011,0.039247408509254456
1761391510875154700,3.78915478515625,0.09219648689031601,0.11040541529655457,0.047593116760253906
1761391510885220900,3.799220947265625,0.08974211663007736,0.08805989474058151,0.0306484904140234
1761391510895286800,3.809286865234375,0.06980205327272415,0.08552490174770355,0.006130130495876074
1761391510905352700,3.819352783203125,0.01884540170431137,0.08923974633216858,-0.004674846772104502
1761391510915419000,3.8294189453125,0.006023051682859659,0.05678702890872955,0.0037149167619645596
1761391510925485800,3.83948583984375,-0.0027384813874959946,0.051100119948387146,-0.004975777119398117
1761391510935552000,3.849552001953125,-0.006905373185873032,0.05985880643129349,-0.0028187986463308334
1761391510945617700,3.85961767578125,-0.01868586614727974,0.07214716821908951,0.0030681188218295574
1761391510955683600,3.86968359375,-0.02374396286904812,0.08785989135503769,0.00965106301009655
1761391510965749800,3.879749755859375,-0.03331856057047844,0.111939936876297,0.010805809870362282
1761391510975816700,3.889816650390625,-0.03988414257764816,0.1242065504193306,0.0001861746422946453
1761391510985883000,3.8998828125,-0.0486677810549736,0.12395302206277847,-0.026939185336232185
1761391510995948800,3.90994873046875,-0.0562039390206337,0.1205056682229042,-0.06005644053220749
1761391511006014700,3.9200146484375,-0.06683847308158875,0.1181463673710823,-0.08702627569437027
1761391511016081000,3.930080810546875,-0.0730508342385292,0.11147566884756088,-0.10633853077888489
1761391511026146800,3.940146728515625,-0.0725693330168724,0.08913334459066391,-0.1084192618727684
1761391511036213800,3.9502138671875,-0.07020881026983261,0.08048943430185318,-0.09060868620872498
1761391511046280000,3.960280029296875,-0.07924624532461166,0.08720779418945312,-0.06600693613290787
1761391511056345600,3.970345703125,-0.08977586776018143,0.10813915729522705,-0.041758932173252106
1761391511066411800,3.980411865234375,-0.10345146805047989,0.12537141144275665,-0.027752039954066277
1761391511076477700,3.990477783203125,-0.11884023994207382,0.12106088548898697,-0.019115082919597626
1761391511086544600,4.000544677734375,-0.13505195081233978,0.10962952673435211,-0.013848414644598961
1761391511096610800,4.01061083984375,-0.1481117457151413,0.09670953452587128,-0.008797431364655495
1761391511106676700,4.0206767578125,-0.16143208742141724,0.11904626339673996,0.0076398649252951145
1761391511116743000,4.030742919921875,-0.18061526119709015,0.13513238728046417,0.01458798162639141
1761391511126808800,4.040808837890625,-0.20326250791549683,0.12744569778442383,0.006807556841522455
1761391511136874800,4.050874755859375,-0.21502158045768738,0.1311800628900528,0.00983656756579876
1761391511146942000,4.06094189453125,-0.20360007882118225,0.12331230193376541,-0.01085912436246872
1761391511157007600,4.071007568359375,-0.19224582612514496,0.1480015367269516,-0.03821414336562157
1761391511167073800,4.08107373046875,-0.2141258269548416,0.17445579171180725,-0.0479637086391449
1761391511177139700,4.0911396484375,-0.21905766427516937,0.1576060801744461,-0.02491161599755287
1761391511187206000,4.101205810546875,-0.21300137042999268,0.14954203367233276,-0.017848912626504898
1761391511197272800,4.11127294921875,-0.21745005249977112,0.17457215487957,-0.013589013367891312
1761391511207338800,4.1213388671875,-0.22289088368415833,0.13610891997814178,0.0074829827062785625
1761391511217405000,4.131405029296875,-0.21084842085838318,0.07891746610403061,-0.009067796170711517
1761391511227470800,4.141470947265625,-0.20358146727085114,0.07310564815998077,-0.031674571335315704
1761391511237537000,4.151537109375,-0.18387657403945923,0.0530095174908638,-0.024113235995173454
1761391511247602700,4.161602783203125,-0.16990269720554352,0.05914517492055893,-0.030666476115584373
1761391511257669600,4.171669677734375,-0.1590021848678589,0.07577473670244217,-0.028368491679430008
1761391511267735800,4.18173583984375,-0.1587342619895935,0.07262101769447327,-0.01261110045015812
1761391511277801700,4.1918017578125,-0.16688095033168793,0.06001865118741989,0.0060227192007005215
1761391511287868000,4.201867919921875,-0.17497402429580688,0.051243267953395844,0.023939136415719986
1761391511297933800,4.211933837890625,-0.19323286414146423,0.05212213844060898,0.04238130897283554
1761391511308000800,4.222000732421875,-0.2103857398033142,0.06268023699522018,0.05831234157085419
1761391511318067200,4.232067138671875,-0.22265739738941193,0.08012088388204575,0.07358358800411224
1761391511328133400,4.24213330078125,-0.2324136197566986,0.08944860845804214,0.0743148922920227
1761391511338199000,4.252198974609375,-0.2314024567604065,0.10214497894048691,0.056767433881759644
1761391511348265200,4.26226513671875,-0.21942463517189026,0.12306170910596848,0.03189217299222946
1761391511358332200,4.272332275390625,-0.21382425725460052,0.14538222551345825,0.005203202832490206
1761391511368398000,4.282398193359375,-0.20115746557712555,0.15018977224826813,-0.02139298804104328
1761391511378464300,4.29246435546875,-0.18545620143413544,0.16393007338047028,-0.038271065801382065
1761391511388530200,4.3025302734375,-0.17410022020339966,0.16779379546642303,-0.049776189029216766
1761391511398596400,4.312596435546875,-0.17227888107299805,0.16027168929576874,-0.061857353895902634
1761391511408662300,4.322662353515625,-0.1593489646911621,0.16026264429092407,-0.07808265835046768
1761391511418729200,4.332729248046875,-0.14845100045204163,0.15040957927703857,-0.09566329419612885
1761391511428795400,4.34279541015625,-0.14382775127887726,0.11202144622802734,-0.0983155369758606
1761391511438861300,4.352861328125,-0.1412355899810791,0.08953112363815308,-0.08368801325559616
1761391511448927200,4.36292724609375,-0.13738200068473816,0.08436565101146698,-0.04413554072380066
1761391511458993200,4.3729931640625,-0.1463765949010849,0.08481674641370773,-0.005460028536617756
1761391511469060000,4.38306005859375,-0.14855985343456268,0.10456594824790955,0.02151060290634632
1761391511479126300,4.393126220703125,-0.13678304851055145,0.1451198160648346,0.027912022545933723
1761391511489192200,4.403192138671875,-0.12892858684062958,0.1666775792837143,0.026823053136467934
1761391511499258400,4.41325830078125,-0.13255029916763306,0.17362892627716064,0.03447825834155083
1761391511509324300,4.42332421875,-0.13965320587158203,0.17719170451164246,0.02606639452278614
1761391511519390500,4.433390380859375,-0.14943161606788635,0.18568925559520721,0.0015932475216686726
1761391511529457400,4.44345751953125,-0.1565459966659546,0.18154005706310272,-0.019876090809702873
1761391511539523300,4.4535234375,-0.16598568856716156,0.17558299005031586,-0.031014157459139824
1761391511549589200,4.46358935546875,-0.17695391178131104,0.17792977392673492,-0.028850605711340904
1761391511559655200,4.4736552734375,-0.1905611753463745,0.1686173379421234,-0.032725874334573746
1761391511569721300,4.483721435546875,-0.1918213814496994,0.16688229143619537,-0.04543927311897278
1761391511579788300,4.493788330078125,-0.18661576509475708,0.17625792324543,-0.05397164076566696
1761391511589854200,4.503854248046875,-0.16755951941013336,0.1865808665752411,-0.03885394334793091
1761391511599920400,4.51392041015625,-0.15197332203388214,0.2055595964193344,-0.015889614820480347
1761391511609986300,4.523986328125,-0.13520152866840363,0.21324068307876587,0.004461995791643858
1761391511620052200,4.53405224609375,-0.12170832604169846,0.2095586508512497,0.012567039579153061
1761391511630119400,4.544119384765625,-0.10636985301971436,0.207535982131958,0.01863451860845089
1761391511640185300,4.554185302734375,-0.10475879162549973,0.19522589445114136,0.015813443809747696
1761391511650251300,4.564251220703125,-0.10544189065694809,0.16776178777217865,0.007437003310769796
1761391511660317200,4.574317138671875,-0.0993756651878357,0.13766250014305115,-0.010546306148171425
1761391511670383000,4.584383056640625,-0.09390473365783691,0.13056810200214386,-0.010242706164717674
1761391511680449300,4.59444921875,-0.09812679141759872,0.1390123814344406,0.00549675477668643
1761391511690516200,4.60451611328125,-0.10302967578172684,0.14267022907733917,0.01940751075744629
1761391511700582100,4.61458203125,-0.10663163661956787,0.15837110579013824,0.020985905081033707
1761391511710648300,4.6246484375,-0.10455942898988724,0.16244548559188843,0.02173638343811035
1761391511720714200,4.63471435546875,-0.11341977119445801,0.15830637514591217,0.007696384098380804
1761391511730780400,4.644780517578125,-0.11937407404184341,0.1390453279018402,0.000726624857634306
1761391511740847400,4.654847412109375,-0.12342692166566849,0.12426791340112686,-0.013195723295211792
1761391511750913000,4.6649130859375,-0.11296602338552475,0.1210034117102623,-0.024509631097316742
1761391511760979200,4.674979248046875,-0.1127610057592392,0.12488551437854767,-0.041160933673381805
1761391511771045000,4.685045166015625,-0.10666342824697495,0.13113701343536377,-0.0607018806040287
1761391511781111300,4.695111328125,-0.10116127878427505,0.14325518906116486,-0.05950189009308815
1761391511791177200,4.70517724609375,-0.0938572958111763,0.143711656332016,-0.044793251901865005
1761391511801244200,4.715244140625,-0.0847327932715416,0.14537690579891205,-0.03768250718712807
1761391511811310300,4.725310302734375,-0.07328146696090698,0.13439109921455383,-0.039364293217659
1761391511821376300,4.735376220703125,-0.055161941796541214,0.1049969270825386,-0.058264248073101044
1761391511831442400,4.7454423828125,-0.038007721304893494,0.0870666652917862,-0.0941798985004425
1761391511841508000,4.755508056640625,-0.029087107628583908,0.08315134793519974,-0.10529244691133499
1761391511851575000,4.765574951171875,-0.013575793243944645,0.06144445389509201,-0.10024122893810272
1761391511861641200,4.77564111328125,0.013453896157443523,0.03394943103194237,-0.09269388020038605
1761391511871707100,4.78570703125,0.04603447765111923,0.03746959567070007,-0.07880576699972153
1761391511881773300,4.795773193359375,0.06300424784421921,0.057983025908470154,-0.05998794734477997
1761391511891839200,4.805839111328125,0.07861863076686859,0.09265339374542236,-0.041608139872550964
1761391511901906200,4.81590625,0.10065548866987228,0.13996544480323792,-0.027728799730539322
1761391511911972400,4.825972412109375,0.12640398740768433,0.18051846325397491,-0.025823041796684265
1761391511922038300,4.836038330078125,0.15556348860263824,0.19641780853271484,-0.05014853924512863
1761391511932104400,4.8461044921875,0.193879172205925,0.19679145514965057,-0.08907277137041092
1761391511942170000,4.856170166015625,0.22487428784370422,0.18628732860088348,-0.12031282484531403
1761391511952236300,4.866236328125,0.2593497037887573,0.18737363815307617,-0.11550315469503403
1761391511962303200,4.87630322265625,0.2993016839027405,0.16169728338718414,-0.11312533169984818
1761391511972369200,4.886369140625,0.31676244735717773,0.13898929953575134,-0.11865751445293427
1761391511982435300,4.896435302734375,0.33849039673805237,0.08368457108736038,-0.11444726586341858
1761391511992501200,4.906501220703125,0.3551151752471924,-0.01037587784230709,-0.1193661242723465
1761391512002567200,4.916567138671875,0.34991297125816345,-0.06156716123223305,-0.10280019789934158
1761391512012634400,4.92663427734375,0.35438868403434753,-0.11790233850479126,-0.06404587626457214
1761391512022700300,4.9367001953125,0.35942915081977844,-0.17019866406917572,-0.030532054603099823
1761391512032766500,4.946766357421875,0.36259591579437256,-0.17273186147212982,0.019289564341306686
1761391512042832100,4.95683203125,0.3786468207836151,-0.20721332728862762,0.07236091047525406
1761391512052898000,4.96689794921875,0.388403058052063,-0.222951278090477,0.10886912047863007
1761391512062964200,4.976964111328125,0.389048308134079,-0.19374175369739532,0.15148833394050598
1761391512073031200,4.98703125,0.3686727285385132,-0.1520901918411255,0.18161506950855255
1761391512083097300,4.997097412109375,0.3328494429588318,-0.112469881772995,0.18905100226402283
1761391512093163300,5.007163330078125,0.3082799017429352,-0.07809992134571075,0.1742158681154251
1761391512103229200,5.017229248046875,0.2904640734195709,-0.047025736421346664,0.14573173224925995
1761391512113295400,5.02729541015625,0.27604973316192627,-0.028739675879478455,0.1324329674243927
1761391512123362300,5.0373623046875,0.26719215512275696,-0.02873951755464077,0.1245308443903923
1761391512133428200,5.04742822265625,0.26854372024536133,-0.02109597995877266,0.10925708711147308
1761391512143494400,5.057494384765625,0.2734319269657135,-0.01707516796886921,0.0833054855465889
1761391512153560000,5.06756005859375,0.28486618399620056,-0.016194194555282593,0.045797523111104965
1761391512163626200,5.077626220703125,0.29958590865135193,-0.027755368500947952,0.012750264257192612
1761391512173693200,5.087693115234375,0.3044368624687195,-0.05367671325802803,-0.015635570511221886
1761391512183759000,5.097759033203125,0.29611897468566895,-0.0878315418958664,-0.020075304433703423
1761391512193825300,5.1078251953125,0.26767802238464355,-0.0974479466676712,-0.013997439295053482
1761391512203891200,5.11789111328125,0.23856963217258453,-0.10193275660276413,-0.0027751228772103786
1761391512213957400,5.127957275390625,0.2065318077802658,-0.09301941841840744,0.015644896775484085
1761391512224023300,5.138023193359375,0.17897094786167145,-0.08882415294647217,0.040316104888916016
1761391512234090200,5.14809033203125,0.14605455100536346,-0.07350645959377289,0.06448695063591003
1761391512244156400,5.158156494140625,0.11544179916381836,-0.042767688632011414,0.08148234337568283
1761391512254222000,5.16822216796875,0.08414326608181,-0.012320034205913544,0.08302538096904755
1761391512264288300,5.178288330078125,0.05418352782726288,0.022295687347650528,0.07686921209096909
1761391512274354200,5.188354248046875,0.021546754986047745,0.04016629606485367,0.06112433969974518
1761391512284421000,5.198421142578125,-0.002716735005378723,0.047099366784095764,0.05291226878762245
1761391512294487300,5.2084873046875,-0.0170205719769001,0.062034908682107925,0.054210562258958817
1761391512304553200,5.21855322265625,-0.0295906662940979,0.07062125205993652,0.05923965573310852
1761391512314618600,5.22861865234375,-0.036003291606903076,0.05730624496936798,0.06053288280963898
1761391512324684500,5.2386845703125,-0.03253292664885521,0.06401954591274261,0.050243228673934937
1761391512334750500,5.24875048828125,-0.03595002740621567,0.06180592626333237,0.03213106840848923
1761391512344817400,5.2588173828125,-0.044276025146245956,0.048685237765312195,0.007727379444986582
1761391512354883300,5.26888330078125,-0.047701381146907806,0.0523872897028923,-0.0225029606372118
1761391512364949500,5.278949462890625,-0.0425228476524353,0.0636264830827713,-0.03689927980303764
1761391512375015400,5.289015380859375,-0.03898989409208298,0.07327990978956223,-0.028430160135030746
1761391512385081600,5.29908154296875,-0.03136180341243744,0.06153120845556259,-0.011722310446202755
1761391512395148500,5.3091484375,-0.028946051374077797,0.031160788610577583,-0.0052092839032411575
1761391512405214500,5.31921435546875,-0.039359185844659805,0.022915706038475037,-0.010851691477000713
1761391512415280600,5.32928076171875,-0.06348316371440887,0.016710806638002396,-0.020475557073950768
1761391512425346600,5.3393466796875,-0.07579927891492844,-0.008113868534564972,-0.03710119053721428
1761391512435412500,5.34941259765625,-0.07562430948019028,-0.008880858309566975,-0.03885648027062416
1761391512445479400,5.3594794921875,-0.05967529118061066,0.028062401339411736,0.003441163804382086
1761391512455545300,5.36954541015625,-0.03868692368268967,0.044014208018779755,0.049899473786354065
1761391512465611500,5.379611572265625,-0.014430942013859749,0.03523493930697441,0.09259285777807236
1761391512475677400,5.389677490234375,-0.005255020689219236,0.03644561022520065,0.1169663742184639
1761391512485743600,5.39974365234375,0.007868687622249126,0.02693541906774044,0.13274405896663666
1761391512495809500,5.4098095703125,0.022038301452994347,0.015948547050356865,0.11854195594787598
1761391512505876500,5.41987646484375,0.0275837741792202,0.020987998694181442,0.09459403157234192
1761391512515942700,5.429942626953125,0.01832636073231697,0.009843201376497746,0.06349576264619827
1761391512526008600,5.440008544921875,0.017408177256584167,-0.016298530623316765,0.02352849580347538
1761391512536074500,5.450074462890625,0.016134917736053467,-0.027961844578385353,-0.01865091547369957
1761391512546140400,5.460140380859375,0.016675742343068123,-0.046224579215049744,-0.04755130782723427
1761391512556207400,5.470207275390625,0.019264068454504013,-0.07346951961517334,-0.05522174760699272
1761391512566273500,5.4802734375,0.02711188979446888,-0.08695174008607864,-0.04831520840525627
1761391512576339500,5.49033935546875,0.030679993331432343,-0.09477104246616364,-0.03417036309838295
1761391512586405600,5.500405517578125,0.021029157564044,-0.08137564361095428,-0.010506446473300457
1761391512596471600,5.510471435546875,0.011087043210864067,-0.046723391860723495,0.013145353645086288
1761391512606537500,5.520537353515625,0.0027911232318729162,-0.009824165143072605,0.04223296418786049
1761391512616604700,5.530604736328125,-0.0024009752087295055,0.02700096182525158,0.06254169344902039
1761391512626670600,5.540670654296875,-0.005012902431190014,0.04765625298023224,0.06656957417726517
1761391512636736500,5.550736572265625,-0.003762548789381981,0.052573513239622116,0.04251031205058098
1761391512646802400,5.560802490234375,0.006859220564365387,0.053059034049510956,0.011431118473410606
1761391512656868400,5.570868408203125,0.025489896535873413,0.04426927492022514,-0.020759575068950653
1761391512666935600,5.580935546875,0.03747822716832161,0.026771865785121918,-0.04396163299679756
1761391512677001500,5.59100146484375,0.04561604931950569,-0.00036387983709573746,-0.06689358502626419
1761391512687067400,5.6010673828125,0.04888416826725006,-0.018501698970794678,-0.09147635847330093
1761391512697133600,5.611133544921875,0.04365212097764015,-0.022809095680713654,-0.0915522575378418
1761391512707199500,5.621199462890625,0.03572390228509903,-0.02328871563076973,-0.06979228556156158
1761391512717265700,5.631265625,0.02237320877611637,-0.01131061464548111,-0.032422807067632675
1761391512727332600,5.64133251953125,0.006191172171384096,-0.005938095506280661,0.013363417237997055
1761391512737398300,5.651398193359375,-0.004844168201088905,-0.0053620534017682076,0.051826123148202896
1761391512747464400,5.66146435546875,-0.0061463722959160805,0.004863817244768143,0.08317252993583679
1761391512757530400,5.6715302734375,0.0007677259854972363,0.008978933095932007,0.09890994429588318
1761391512767596500,5.681596435546875,-0.001711299642920494,0.004531729966402054,0.09486108273267746
1761391512777663500,5.69166357421875,-0.003576577641069889,-0.009726835414767265,0.08846310526132584
1761391512787729400,5.7017294921875,-0.012001661583781242,-0.020114071667194366,0.07246790826320648
1761391512797795600,5.711795654296875,-0.02703467570245266,-0.024137841537594795,0.06596793234348297
1761391512807861500,5.721861572265625,-0.047720685601234436,-0.01985142007470131,0.06714934855699539
1761391512817927700,5.731927734375,-0.06213824450969696,-0.006783554796129465,0.05788740515708923
1761391512827993300,5.741993408203125,-0.06511551886796951,0.006028787232935429,0.043403975665569305
1761391512838060500,5.752060546875,-0.05828583985567093,0.021622128784656525,0.023007623851299286
1761391512848126500,5.76212646484375,-0.057659812271595,0.02550922892987728,-0.0050756256096065044
1761391512858192400,5.7721923828125,-0.04853289574384689,0.025156894698739052,-0.03381486237049103
1761391512868258600,5.782258544921875,-0.03831295669078827,0.013953326269984245,-0.047382909804582596
1761391512878324500,5.792324462890625,-0.030729342252016068,0.01007150299847126,-0.04427473619580269
1761391512888391400,5.802391357421875,-0.024430477991700172,0.019619395956397057,-0.026794955134391785
1761391512898457600,5.81245751953125,-0.02182244509458542,0.020140575245022774,-0.01280190609395504
1761391512908523500,5.8225234375,-0.01579124853014946,0.020726900547742844,-0.009694036096334457
1761391512918589700,5.832589599609375,-0.012975488789379597,0.007845454849302769,-0.007866841740906239
1761391512928655400,5.8426552734375,-0.007552126422524452,-0.004877984523773193,0.0007824213244020939
1761391512938722600,5.85272265625,-0.004045542329549789,-0.014193722046911716,0.03178294748067856
1761391512948788500,5.86278857421875,-0.0039060022681951523,-0.021728798747062683,0.07275478541851044
1761391512958854400,5.8728544921875,-0.009571877308189869,-0.010225007310509682,0.1291951686143875
1761391512968920600,5.882920654296875,-0.01993730291724205,0.01694069430232048,0.16076835989952087
1761391512978986500,5.892986572265625,-0.03209729865193367,0.04703414440155029,0.164959117770195
1761391512989052400,5.903052490234375,-0.0396600216627121,0.05739652365446091,0.14292199909687042
1761391512999119600,5.91311962890625,-0.05098777636885643,0.06046821177005768,0.10211306065320969
1761391513009185500,5.923185546875,-0.03351297974586487,0.0438506081700325,0.06030190736055374
1761391513019251700,5.933251708984375,-0.029281482100486755,0.0263909250497818,0.015715530142188072
1761391513029317600,5.943317626953125,-0.026927810162305832,0.00419875793159008,0.0011312835849821568
1761391513039383300,5.95338330078125,-0.0247940830886364,-0.014921407215297222,0.005555859301239252
1761391513049450500,5.963450439453125,-0.02992449887096882,-0.024978647008538246,0.015424089506268501
1761391513059516400,5.973516357421875,-0.04112441837787628,-0.030259694904088974,0.034085389226675034
1761391513069582300,5.983582275390625,-0.061971914023160934,-0.02500234916806221,0.0618608258664608
1761391513079648500,5.9936484375,-0.08342021703720093,-0.02946394309401512,0.08691611886024475
1761391513089714400,6.00371435546875,-0.09678113460540771,-0.03803994879126549,0.09461192786693573
1761391513099780600,6.013780517578125,-0.09359359741210938,-0.033746398985385895,0.101979561150074
1761391513109847600,6.02384765625,-0.07760678976774216,-0.02424066886305809,0.10700015723705292
1761391513119913500,6.03391357421875,-0.05247054249048233,-0.016400590538978577,0.12244863063097
1761391513129979600,6.043979736328125,-0.04203035682439804,-0.016842037439346313,0.12008830159902573
1761391513140045300,6.05404541015625,-0.022559717297554016,-0.016423389315605164,0.10472505539655685
1761391513150111500,6.064111572265625,-0.007320092059671879,-0.018730027601122856,0.08287181705236435
1761391513160178400,6.074178466796875,-0.012613125145435333,-0.021680809557437897,0.057394418865442276
1761391513170244400,6.084244384765625,-0.016370054334402084,-0.012961102649569511,0.03190921992063522
1761391513180310500,6.094310546875,-0.011813119053840637,-0.001855188049376011,0.007747424300760031
1761391513190376400,6.10437646484375,-0.013947339728474617,0.012418615631759167,-0.008254917338490486
1761391513200443400,6.114443359375,-0.006230565253645182,0.012804240919649601,-0.029438765719532967
1761391513210509600,6.124509521484375,0.0039240592159330845,0.008609747514128685,-0.05620494857430458
1761391513220575500,6.134575439453125,0.011026710271835327,0.0037875622510910034,-0.06978147476911545
1761391513230641700,6.1446416015625,0.01744626834988594,0.005251423455774784,-0.057796888053417206
1761391513240707300,6.154707275390625,0.00910844374448061,0.007811521179974079,-0.04429306462407112
1761391513250774300,6.164774169921875,-0.010765818879008293,0.040471386164426804,-0.016686556860804558
1761391513260840400,6.17484033203125,-0.04329713061451912,0.05605513975024223,0.003166510257869959
1761391513270906400,6.18490625,-0.06493975967168808,0.05315740033984184,0.008657099679112434
1761391513280972500,6.19497265625,-0.0821901187300682,0.038014668971300125,-0.012661503627896309
1761391513291038500,6.20503857421875,-0.0820213109254837,-0.010428206995129585,-0.04485227167606354
1761391513301104600,6.215104736328125,-0.0638367161154747,-0.03492529317736626,-0.08717629313468933
1761391513311171600,6.225171630859375,-0.04094327986240387,-0.05828193202614784,-0.10704335570335388
1761391513321237800,6.23523779296875,-0.024016229435801506,-0.05849551782011986,-0.09074268490076065
1761391513331304000,6.245303955078125,-0.0073609850369393826,-0.046307481825351715,-0.04395029693841934
1761391513341369900,6.255369873046875,0.0181459728628397,-0.05248042196035385,-0.015648620203137398
1761391513351435800,6.265435791015625,0.04413333535194397,-0.03518350422382355,-0.0022973730228841305
1761391513361503000,6.2755029296875,0.056023020297288895,-0.03767169639468193,-0.011901265010237694
1761391513371569000,6.28556884765625,0.05761425942182541,-0.04903646931052208,-0.03382121026515961
1761391513381635000,6.295635009765625,0.05162401124835014,-0.05006551370024681,-0.057874880731105804
1761391513391701000,6.305700927734375,0.04533756151795387,-0.06145408749580383,-0.08655788004398346
1761391513401766700,6.3157666015625,0.03586256876587868,-0.08898105472326279,-0.11006267368793488
1761391513411832800,6.325832763671875,0.03235747292637825,-0.12461583316326141,-0.13413597643375397
1761391513421899800,6.335899658203125,0.025507822632789612,-0.14286167919635773,-0.12800832092761993
1761391513431966000,6.345966064453125,0.034942805767059326,-0.1659688800573349,-0.1153184026479721
1761391513442031900,6.356031982421875,0.0413261353969574,-0.19004012644290924,-0.08747851848602295
1761391513452097800,6.366097900390625,0.0439981147646904,-0.20191672444343567,-0.0524771474301815
1761391513462164000,6.3761640625,0.04608789458870888,-0.21188494563102722,-0.01809547282755375
1761391513472231000,6.38623095703125,0.0470895953476429,-0.21214532852172852,0.024308396503329277
1761391513482296800,6.396296875,0.04306289553642273,-0.22466619312763214,0.0624653659760952
1761391513492363000,6.406363037109375,0.044819340109825134,-0.2435074746608734,0.08416057378053665
1761391513502428700,6.4164287109375,0.03125879168510437,-0.2487453669309616,0.09214206784963608
1761391513512494800,6.426494873046875,0.0166051983833313,-0.23473212122917175,0.07898344099521637
1761391513522561800,6.436561767578125,0.007288394495844841,-0.23702964186668396,0.06780268996953964
1761391513532627700,6.446627685546875,-0.011650528758764267,-0.2332560420036316,0.07310476899147034
1761391513542694000,6.45669384765625,-0.03626346215605736,-0.22242869436740875,0.08933354169130325
1761391513552759800,6.466759765625,-0.062097180634737015,-0.20469841361045837,0.1017327681183815
1761391513562826000,6.476825927734375,-0.0801699310541153,-0.1929570734500885,0.0913616195321083
1761391513572892000,6.486891845703125,-0.07918720692396164,-0.1794274002313614,0.06846410781145096
1761391513582958800,6.496958740234375,-0.0625469833612442,-0.15777750313282013,0.024451639503240585
1761391513593025000,6.50702490234375,-0.0317840650677681,-0.14952197670936584,-0.0314030721783638
1761391513603090700,6.517090576171875,-0.011150158010423183,-0.1598888635635376,-0.06735095381736755
1761391513613156900,6.527156982421875,-0.004247336648404598,-0.164747953414917,-0.07627682387828827
1761391513623222800,6.537222900390625,-0.0038856789469718933,-0.13078120350837708,-0.07538440078496933
1761391513633289700,6.547289794921875,0.006702847313135862,-0.07009413093328476,-0.055660974234342575
1761391513643356000,6.55735595703125,0.02234332635998726,-0.0018431711941957474,-0.029713794589042664
1761391513653421800,6.567421875,0.030708754435181618,0.04135856777429581,0.0091632641851902
1761391513663488000,6.577488037109375,0.013782503083348274,0.11103138327598572,0.07052142918109894
1761391513673554000,6.587553955078125,-0.005919489543884993,0.1734600067138672,0.17597420513629913
1761391513683620900,6.597620849609375,-0.034955937415361404,0.045727603137493134,0.27349409461021423
1761391513693687000,6.60768701171875,-0.0957883819937706,-0.008478187955915928,0.347256064414978
1761391513703753000,6.6177529296875,-0.14040139317512512,0.02293965592980385,0.38208621740341187
1761391513713819000,6.62781884765625,-0.1723126918077469,0.01551454421132803,0.38559648394584656
1761391513723884800,6.637884765625,-0.20076137781143188,-0.024506375193595886,0.35915929079055786
1761391513733951000,6.647950927734375,-0.19877450168132782,-0.02806791290640831,0.3012813925743103
1761391513744018000,6.658017822265625,-0.17138975858688354,-0.08527901023626328,0.21218642592430115
1761391513754083800,6.668083740234375,-0.1503630131483078,-0.07919393479824066,0.09330005943775177
1761391513764150000,6.67814990234375,-0.09908811002969742,-0.039018020033836365,-0.030929211527109146
1761391513774216000,6.6882158203125,-0.03017488121986389,-0.028563521802425385,-0.13155698776245117
1761391513784281900,6.69828173828125,0.023834291845560074,-0.015422153286635876,-0.1872282475233078
1761391513794349000,6.70834912109375,0.06422952562570572,-0.031731028109788895,-0.18438459932804108
1761391513804415000,6.7184150390625,0.09084276109933853,-0.06180397421121597,-0.13695795834064484
1761391513814481000,6.72848095703125,0.10216739773750305,-0.09726038575172424,-0.0476391464471817
1761391513824546800,6.738546875,0.09252861142158508,-0.12112337350845337,0.06889119744300842
1761391513834612700,6.74861279296875,0.0705559253692627,-0.12024533748626709,0.18111459910869598
1761391513844679000,6.758678955078125,0.024997230619192123,-0.13856948912143707,0.24880683422088623
1761391513854745900,6.768745849609375,-0.015419847331941128,-0.08202719688415527,0.2817173898220062
1761391513864811800,6.778811767578125,-0.03103715553879738,-0.07748544216156006,0.2846641540527344
1761391513874878000,6.7888779296875,-0.08931498229503632,-0.058014221489429474,0.21686257421970367
1761391513884944000,6.79894384765625,-0.1222098097205162,0.07554730027914047,0.12624453008174896
1761391513895010000,6.809010009765625,-0.15515831112861633,0.24942272901535034,0.023408083245158195
1761391513905077000,6.819076904296875,-0.20594878494739532,0.3333922028541565,-0.05198041349649429
1761391513915142700,6.829142578125,-0.24880239367485046,0.3261416554450989,-0.07817509025335312
1761391513925208800,6.839208740234375,-0.2933405637741089,0.29310035705566406,-0.03412853926420212
1761391513935274800,6.849274658203125,-0.2973287105560303,0.14429756999015808,0.01913098245859146
1761391513945341000,6.8593408203125,-0.30331096053123474,0.03471994027495384,0.014153268188238144
1761391513955406800,6.86940673828125,-0.2820059657096863,-0.1060851439833641,0.013760553672909737
1761391513965473800,6.879473876953125,-0.23514871299266815,-0.2662210464477539,-0.022249644622206688
1761391513975540000,6.8895400390625,-0.18444237112998962,-0.3560984134674072,-0.10611676424741745
1761391513985606000,6.89960595703125,-0.13233789801597595,-0.3456636369228363,-0.21156249940395355
1761391513995672000,6.909672119140625,-0.09454996138811111,-0.26166772842407227,-0.33916258811950684
1761391514005737700,6.91973779296875,-0.10912224650382996,-0.05674922093749046,-0.4863046407699585
1761391514015804700,6.9298046875,-0.11152150481939316,0.31710609793663025,-0.7313169240951538
1761391514025870800,6.939870849609375,-0.1783471405506134,0.7314159274101257,-1.0489245653152466
1761391514035936800,6.949936767578125,-0.2558818459510803,0.9222157597541809,-1.2103545665740967
1761391514046003000,6.9600029296875,-0.36454707384109497,0.9202892184257507,-1.1795440912246704
1761391514056068900,6.97006884765625,-0.4722610414028168,0.8565645217895508,-1.0471482276916504
1761391514066135800,6.9801357421875,-0.5547156929969788,0.7216221690177917,-0.9009928107261658
1761391514076202000,6.990201904296875,-0.6317662000656128,0.4629364013671875,-0.7416856288909912
1761391514086268000,7.000267822265625,-0.673900842666626,0.17573152482509613,-0.5902942419052124
1761391514096334000,7.010333984375,-0.6877871751785278,-0.08890660852193832,-0.4773600697517395
1761391514106399700,7.020399658203125,-0.6773936748504639,-0.43253588676452637,-0.32785579562187195
1761391514116466700,7.030466796875,-0.6572788953781128,-0.9158267378807068,-0.030837485566735268
1761391514126532900,7.040532958984375,-0.6178401112556458,-1.4110866785049438,0.3976547420024872
1761391514136598800,7.050598876953125,-0.5209818482398987,-1.7002041339874268,0.7834417223930359
1761391514146665000,7.0606650390625,-0.2768291234970093,-1.122078776359558,0.7035029530525208
1761391514156731000,7.07073095703125,-0.0406930148601532,-0.7277975678443909,0.4697498083114624
1761391514166796800,7.080796875,0.05792304128408432,-0.36435940861701965,0.2567853331565857
1761391514176864000,7.090864013671875,0.08962060511112213,-0.15040943026542664,0.18968753516674042
1761391514186930000,7.100929931640625,0.10226982086896896,-0.06396375596523285,0.19507458806037903
1761391514196996000,7.11099609375,0.12774811685085297,-0.005827387794852257,0.20581823587417603
1761391514207061800,7.121061767578125,0.1416197270154953,0.06663189828395844,0.22370721399784088
1761391514217127700,7.131127685546875,0.12030193209648132,0.11774090677499771,0.24255849421024323
1761391514227193900,7.14119384765625,0.08051005005836487,0.12959249317646027,0.25037992000579834
1761391514237260800,7.1512607421875,0.063710518181324,0.1114102303981781,0.21890415251255035
1761391514247327000,7.161326904296875,0.06544157862663269,0.08377833664417267,0.16726653277873993
1761391514257393000,7.171392822265625,0.08143440634012222,0.06716983020305634,0.08934792131185532
1761391514267458800,7.181458740234375,0.09563012421131134,0.06653839349746704,0.008390218019485474
1761391514277525000,7.19152490234375,0.11345213651657104,0.06191343441605568,-0.06783612072467804
1761391514287592000,7.201592041015625,0.12659138441085815,0.0455203503370285,-0.12690050899982452
1761391514297657900,7.211657958984375,0.14589685201644897,0.026936717331409454,-0.1591675877571106
1761391514307723800,7.221723876953125,0.1501094400882721,0.013594547286629677,-0.1576290726661682
1761391514317790500,7.23179052734375,0.1404670625925064,-0.007421914488077164,-0.12533381581306458
1761391514327856600,7.241856689453125,0.11031182110309601,-0.05000719055533409,-0.0674113929271698
1761391514337923600,7.251923583984375,0.08420289307832718,-0.1008259728550911,-0.024871239438652992
1761391514347989500,7.261989501953125,0.0771348625421524,-0.15093894302845,0.0011310665868222713
1761391514358055700,7.2720556640625,0.06478817760944366,-0.19326536357402802,0.00956316664814949
1761391514368121600,7.28212158203125,0.04763074964284897,-0.20976953208446503,0.010687658563256264
1761391514378187800,7.292187744140625,0.036922890692949295,-0.2242974042892456,0.010732714086771011
1761391514388253700,7.302253662109375,0.03171694651246071,-0.2459654062986374,0.01469176821410656
1761391514398320600,7.312320556640625,0.033078767359256744,-0.22550524771213531,0.04055371508002281
1761391514408386800,7.32238671875,0.028641939163208008,-0.2058095782995224,0.05257708951830864
1761391514418452700,7.33245263671875,0.02218070812523365,-0.21802297234535217,0.048516128212213516
1761391514428518700,7.3425185546875,0.03805101662874222,-0.24256427586078644,0.023518897593021393
1761391514438584600,7.35258447265625,0.08332210034132004,-0.146192267537117,-0.07756315171718597
1761391514448651500,7.362651611328125,0.1453753560781479,0.19514375925064087,-0.3520261347293854
1761391514458717700,7.3727177734375,0.11390487104654312,0.2456376999616623,-0.5155526995658875
1761391514468783600,7.38278369140625,0.039417050778865814,0.1778418868780136,-0.5111950039863586
1761391514478849500,7.392849609375,-0.07432448118925095,0.17980800569057465,-0.4368613362312317
1761391514488915700,7.402915771484375,-0.07522808760404587,0.07421420514583588,-0.2766982913017273
1761391514498981600,7.412981689453125,-0.022896066308021545,0.008762584067881107,-0.16163116693496704
1761391514509048600,7.423048583984375,0.005473523400723934,-0.04998381808400154,-0.10576070845127106
1761391514519114800,7.43311474609375,0.03778889775276184,-0.07972938567399979,-0.1129005029797554
1761391514529180400,7.443180419921875,0.10118092596530914,0.07303885370492935,-0.28406423330307007
1761391514539246600,7.45324658203125,0.19081120193004608,0.4873027205467224,-0.6334293484687805
1761391514549312500,7.4633125,0.23016074299812317,0.28092503547668457,-0.6349779963493347
1761391514559379500,7.47337939453125,0.23580452799797058,0.22702203691005707,-0.47301092743873596
1761391514569445600,7.483445556640625,0.2406565248966217,0.29602906107902527,-0.26324358582496643
1761391514579511600,7.493511474609375,0.21127742528915405,0.3396381139755249,-0.07184083014726639
1761391514589577700,7.50357763671875,0.1536756455898285,0.3740096688270569,0.08789423853158951
1761391514599643600,7.5136435546875,0.15518702566623688,0.3431849777698517,0.1623719036579132
1761391514609710600,7.523710693359375,0.1548123061656952,0.2822135090827942,0.18589720129966736
1761391514619776800,7.53377685546875,0.1547827124595642,0.22155441343784332,0.18128277361392975
1761391514629842400,7.543842529296875,0.12295446544885635,0.18124081194400787,0.1605767011642456
1761391514639908600,7.55390869140625,0.13323499262332916,0.1499333679676056,0.16675645112991333
1761391514649974500,7.563974609375,0.12393204122781754,0.12763231992721558,0.14624451100826263
1761391514660040700,7.574040771484375,0.10235565900802612,0.12990084290504456,0.12494710087776184
1761391514670107600,7.584107666015625,0.0826416090130806,0.11685881018638611,0.0786786749958992
1761391514680173600,7.594173583984375,0.08552633225917816,0.07815238833427429,0.025978554040193558
1761391514690239700,7.60423974609375,0.0982796773314476,0.042558975517749786,-0.010408480651676655
1761391514700305700,7.6143056640625,0.11148633807897568,0.01892138086259365,-0.031597431749105453
1761391514710371800,7.624371826171875,0.11949233710765839,-0.0011774953454732895,-0.04179653897881508
1761391514720438800,7.634438720703125,0.12870411574840546,-0.018883423879742622,-0.02875407226383686
1761391514730504400,7.64450439453125,0.14060045778751373,-0.017329735681414604,0.00634718919172883
1761391514740570600,7.654570556640625,0.15313822031021118,-0.01026840414851904,0.03952367976307869
1761391514750636500,7.664636474609375,0.16487236320972443,0.001178927719593048,0.07180598378181458
1761391514760702700,7.67470263671875,0.1762419492006302,0.008553417399525642,0.10248329490423203
1761391514770769700,7.684769775390625,0.17650453746318817,0.012795299291610718,0.1181381568312645
1761391514780835600,7.694835693359375,0.17199599742889404,0.007518481463193893,0.1301715224981308
1761391514790901800,7.70490185546875,0.17519524693489075,0.005098467692732811,0.15246643126010895
1761391514800967700,7.7149677734375,0.17619100213050842,-0.0026326896622776985,0.18505100905895233
1761391514811033600,7.72503369140625,0.17567595839500427,-0.008756628260016441,0.2328142672777176
1761391514821099500,7.735099609375,0.162686288356781,0.011387172155082226,0.2916835844516754
1761391514831166700,7.745166748046875,0.13427701592445374,0.04256053641438484,0.33627527952194214
1761391514841232600,7.755232666015625,0.1259966790676117,0.05886196717619896,0.3626132011413574
1761391514851298600,7.765298583984375,0.118865005671978,0.0442686453461647,0.3194689154624939
1761391514861364500,7.775364501953125,0.1279144585132599,0.036574285477399826,0.2711849808692932
1761391514871430700,7.7854306640625,0.13387461006641388,0.021823301911354065,0.20571781694889069
1761391514881497600,7.79549755859375,0.12786808609962463,0.00443972647190094,0.1255643367767334
1761391514891563800,7.805563720703125,0.12233642488718033,-0.006623844150453806,0.033414170145988464
1761391514901629700,7.815629638671875,0.10614147037267685,-0.017333228141069412,-0.03877861425280571
1761391514911695600,7.825695556640625,0.09584728628396988,-0.02713099867105484,-0.10117115080356598
1761391514921761500,7.835761474609375,0.09851088374853134,-0.022697966545820236,-0.12859322130680084
1761391514931827500,7.845827392578125,0.10266595333814621,-0.007945120334625244,-0.12359180301427841
1761391514941894700,7.855894775390625,0.10487817227840424,-0.0027536749839782715,-0.1036781370639801
1761391514951960600,7.865960693359375,0.11099918186664581,0.0013308152556419373,-0.07360758632421494
1761391514962026500,7.876026611328125,0.11591527611017227,0.015813538804650307,-0.0377972386777401
1761391514972092700,7.8860927734375,0.1193145290017128,0.02576657012104988,-0.0032634963281452656
1761391514982158600,7.89615869140625,0.1189212054014206,0.023440878838300705,0.03210858628153801
1761391514992225500,7.9062255859375,0.11938513070344925,0.025118403136730194,0.07305575162172318
1761391515002291700,7.916291748046875,0.111932173371315,0.02091105841100216,0.0986640676856041
1761391515012357600,7.926357666015625,0.10880455374717712,0.014940517023205757,0.11060488224029541
1761391515022423800,7.936423828125,0.11593017727136612,0.01826523058116436,0.10720673948526382
1761391515032489500,7.946489501953125,0.12755194306373596,0.01495225727558136,0.08256744593381882
1761391515042555600,7.9565556640625,0.14191332459449768,0.001647135242819786,0.049069564789533615
1761391515052622600,7.96662255859375,0.15103092789649963,0.0001475093886256218,0.021459240466356277
1761391515062688500,7.9766884765625,0.15785285830497742,0.004116388037800789,0.001705880742520094
1761391515072754700,7.986754638671875,0.1610901951789856,0.03457362949848175,0.003763438668102026
1761391515082820600,7.996820556640625,0.16187189519405365,0.08396098017692566,0.0064393398351967335
1761391515092886800,8.00688671875,0.15884894132614136,0.10397862643003464,0.025748055428266525
1761391515102953700,8.01695361328125,0.15852567553520203,0.12022391706705093,0.03997836261987686
1761391515113019600,8.02701953125,0.16350579261779785,0.1317918747663498,0.03679508715867996
1761391515123085800,8.0370859375,0.17154905200004578,0.14354382455348969,0.028508419170975685
1761391515133151500,8.0471513671875,0.18474528193473816,0.11683952063322067,0.03965480998158455
1761391515143217700,8.0572177734375,0.1944129467010498,0.06970123201608658,0.056230321526527405
1761391515153284600,8.06728466796875,0.19743376970291138,0.04450347274541855,0.06006660312414169
1761391515163350500,8.0773505859375,0.19634303450584412,0.04526815935969353,0.032938774675130844
1761391515173416700,8.087416748046875,0.18460676074028015,0.04710494354367256,-0.009877663105726242
1761391515183482600,8.097482666015624,0.16916729509830475,0.044839851558208466,-0.03921838477253914
1761391515193548800,8.107548828125,0.14721140265464783,0.04848145693540573,-0.057847727090120316
1761391515203614700,8.11761474609375,0.12094404548406601,0.07192017883062363,-0.057966023683547974
1761391515213681700,8.127681640625,0.08572826534509659,0.0992647185921669,-0.041359882801771164
1761391515223747800,8.137747802734374,0.049776770174503326,0.10967058688402176,-0.021144965663552284
1761391515233813500,8.1478134765625,0.027186505496501923,0.1154232770204544,-0.009010804817080498
1761391515243879700,8.157879638671876,0.016868436709046364,0.11138837039470673,-0.0132695147767663
1761391515253945600,8.167945556640625,0.028907522559165955,0.08924205601215363,-0.01992075890302658
1761391515264012500,8.178012451171876,0.04986177012324333,0.05229303240776062,-0.012946799397468567
1761391515274078700,8.18807861328125,0.07279478758573532,0.006936470977962017,-0.004258769564330578
1761391515284144600,8.19814453125,0.09073954075574875,-0.026430446654558182,-0.0036708125844597816
1761391515294210600,8.20821044921875,0.09310974925756454,-0.027183588594198227,0.00858478806912899
1761391515304276700,8.21827685546875,0.08636139333248138,-0.016750233247876167,0.0097078587859869
1761391515314342700,8.2283427734375,0.08120418339967728,-0.022105317562818527,0.010868463665246964
1761391515324409600,8.23840966796875,0.07552427053451538,-0.027824074029922485,0.0006614909507334232
1761391515334475500,8.2484755859375,0.05036591365933418,-0.034191958606243134,-0.01068091206252575
1761391515344541400,8.25854150390625,0.03411602973937988,-0.03564882278442383,-0.005964044947177172
1761391515354607600,8.268607666015624,0.03115512803196907,-0.01682213880121708,0.019801238551735878
1761391515364673500,8.278673583984375,0.027019653469324112,-0.0011378275230526924,0.04848959669470787
1761391515374740500,8.288740478515624,0.022933831438422203,0.007599204778671265,0.07426872849464417
1761391515384806400,8.298806396484375,0.01595800369977951,0.03242705762386322,0.08641857653856277
1761391515394872300,8.308872314453126,0.008715270087122917,0.035955749452114105,0.08549286425113678
1761391515404938500,8.3189384765625,0.000852745957672596,0.035200707614421844,0.07285310328006744
1761391515415004400,8.32900439453125,-0.009848633781075478,0.005396740511059761,0.06187980994582176
1761391515425071400,8.3390712890625,-0.014796430245041847,-0.016160419210791588,0.06490679085254669
1761391515435137500,8.349137451171876,-0.023282859474420547,-0.015418196097016335,0.07183952629566193
1761391515445203500,8.359203369140625,-0.03299311175942421,0.00159373227506876,0.06984949856996536
1761391515455269600,8.36926953125,-0.039409998804330826,0.029917780309915543,0.06849554926156998
1761391515465335600,8.37933544921875,-0.0442572720348835,0.04067526012659073,0.06843993067741394
1761391515475401500,8.3894013671875,-0.05270056053996086,0.04880349338054657,0.06485425680875778
1761391515485468400,8.399468505859375,-0.06947274506092072,0.05212300270795822,0.055850014090538025
1761391515495534300,8.409534423828125,-0.09482923150062561,0.035467855632305145,0.03060724586248398
1761391515505600500,8.4196005859375,-0.11510861665010452,0.01833290420472622,-0.005653069820255041
1761391515515666400,8.42966650390625,-0.11743035912513733,0.021927906200289726,-0.06582958996295929
1761391515525732600,8.439732666015624,-0.1245991587638855,0.014368973672389984,-0.1098051518201828
1761391515535799600,8.449799560546875,-0.14025002717971802,0.0026641152799129486,-0.151259645819664
1761391515545865500,8.459865478515624,-0.16728168725967407,-0.011240839958190918,-0.1777762770652771
1761391515555931600,8.469931640625,-0.20455661416053772,-0.03297143429517746,-0.2324877232313156
1761391515565997600,8.47999755859375,-0.2530558705329895,-0.12429754436016083,-0.3089118003845215
1761391515576063500,8.4900634765625,-0.2927106022834778,-0.2341042011976242,-0.4048053026199341
1761391515586129400,8.50012939453125,-0.34074804186820984,-0.32250717282295227,-0.47652140259742737
1761391515596196400,8.5101962890625,-0.4071512818336487,-0.40671685338020325,-0.5214643478393555
1761391515606262500,8.520262451171876,-0.49404528737068176,-0.46776241064071655,-0.522754430770874
1761391515616328400,8.530328369140625,-0.5974469780921936,-0.4961509108543396,-0.5168816447257996
1761391515626394600,8.54039453125,-0.6957654356956482,-0.54198157787323,-0.5185213088989258
1761391515636460500,8.55046044921875,-0.7932536005973816,-0.6083377003669739,-0.5677085518836975
1761391515646527500,8.560527587890626,-0.855231523513794,-0.7242674827575684,-0.6455836296081543
1761391515656593700,8.57059375,-0.8236974477767944,-0.9298537969589233,-0.6902043223381042
1761391515666659600,8.58065966796875,-0.8248865604400635,-0.6780972480773926,-0.6757944226264954
1761391515676725500,8.5907255859375,-0.7454087734222412,-0.364546000957489,-0.48267850279808044
1761391515686791400,8.60079150390625,-0.7060112953186035,-0.20864617824554443,-0.2612338960170746
1761391515696858400,8.6108583984375,-0.6969653367996216,-0.14479288458824158,-0.07246530801057816
1761391515706924500,8.620924560546875,-0.6429462432861328,-0.1304359883069992,0.11283747106790543
1761391515716990500,8.630990478515624,-0.5663585066795349,-0.075002022087574,0.2670622169971466
1761391515727056400,8.641056396484375,-0.49626025557518005,-0.005464381538331509,0.36015352606773376
1761391515737122600,8.65112255859375,-0.4149547517299652,0.048311498016119,0.37758445739746094
1761391515747188500,8.6611884765625,-0.3399569094181061,0.1332957148551941,0.3282075524330139
1761391515757255700,8.671255615234376,-0.26224958896636963,0.18285155296325684,0.24824586510658264
1761391515767321600,8.681321533203125,-0.2176339030265808,0.08430610597133636,0.20973113179206848
1761391515777387500,8.691387451171876,-0.19882239401340485,-0.0032341284677386284,0.17421413958072662
1761391515787453400,8.701453369140625,-0.19186681509017944,-0.06409625709056854,0.12232320755720139
1761391515797519400,8.711519287109375,-0.186839297413826,-0.10669004917144775,0.03794761374592781
1761391515807586300,8.72158642578125,-0.1802729368209839,-0.1702689230442047,-0.07860319316387177
1761391515817652500,8.731652587890625,-0.16863812506198883,-0.23314616084098816,-0.1847464144229889
1761391515827718400,8.741718505859374,-0.1675655096769333,-0.2569698691368103,-0.2497890740633011
1761391515837784600,8.75178466796875,-0.17309609055519104,-0.24931755661964417,-0.25452178716659546
1761391515847850500,8.7618505859375,-0.20277039706707,-0.226191446185112,-0.22034737467765808
1761391515857916700,8.771916748046875,-0.25074005126953125,-0.1926947385072708,-0.19203317165374756
1761391515867983600,8.781983642578124,-0.2848278880119324,-0.15291522443294525,-0.1529848277568817
1761391515878049500,8.792049560546875,-0.2810310125350952,-0.08730877935886383,-0.11060913652181625
1761391515888115500,8.802115478515624,-0.24942126870155334,-0.03588195890188217,-0.09769611060619354
1761391515898181400,8.812181396484375,-0.213714137673378,-0.004246002994477749,-0.12834376096725464
1761391515908247600,8.82224755859375,-0.18387827277183533,0.00026049092411994934,-0.2060929238796234
1761391515918314500,8.832314453125,-0.15291902422904968,0.03475961089134216,-0.27016857266426086
1761391515928380400,8.84238037109375,-0.12279786169528961,0.07408545911312103,-0.31487205624580383
1761391515938446600,8.852446533203125,-0.09600832313299179,0.1050146147608757,-0.3230023980140686
1761391515948512500,8.862512451171876,-0.08134685456752777,0.1223859116435051,-0.31188803911209106
1761391515958578700,8.87257861328125,-0.07791724056005478,0.1418946236371994,-0.290299654006958
1761391515968645600,8.882645751953126,-0.0671364888548851,0.16590063273906708,-0.2507835924625397
1761391515978711600,8.892711669921875,-0.0663340836763382,0.19635121524333954,-0.2078379988670349
1761391515988777500,8.902777587890625,-0.07329799979925156,0.21756115555763245,-0.15607883036136627
1761391515998843400,8.912843505859374,-0.07549910247325897,0.23651432991027832,-0.1074865385890007
1761391516008909600,8.92290966796875,-0.07367833703756332,0.2574253976345062,-0.05406366288661957
1761391516018975500,8.9329755859375,-0.058349452912807465,0.2860426604747772,-0.016889663413167
1761391516029042400,8.94304248046875,-0.0460020937025547,0.32856231927871704,-0.02244449593126774
1761391516039108600,8.953108642578124,-0.02811044454574585,0.36146408319473267,-0.038971539586782455
1761391516049174500,8.963174560546875,-0.0067167566157877445,0.4015275835990906,-0.04573054239153862
1761391516059240700,8.97324072265625,0.01541144773364067,0.4661225378513336,-0.06503020226955414
1761391516069306600,8.983306640625,0.02846170775592327,0.5166253447532654,-0.10455761849880219
1761391516079373600,8.99337353515625,0.0413476787507534,0.5450223684310913,-0.15784721076488495
1761391516089439500,9.003439453125,0.0048883347772061825,0.5414221286773682,-0.09950391203165054
1761391516099505400,9.01350537109375,-0.0747913122177124,0.30660486221313477,-0.11695533990859985
1761391516109571600,9.023571533203125,-0.07821567356586456,0.16098026931285858,-0.19615007936954498
1761391516119637500,9.033637451171876,-0.045715250074863434,0.06972412765026093,-0.2223140448331833
1761391516129703400,9.043703369140625,-0.027937062084674835,0.004316247068345547,-0.19327765703201294
1761391516139770600,9.0537705078125,-0.03450388461351395,-0.017463084310293198,-0.12623922526836395
1761391516149836500,9.06383642578125,-0.044708117842674255,-0.00944431871175766,-0.04039255902171135
