time,seconds_elapsed,z,y,x
1761391655344736800,0.06673681640625,0.5061971255123615,0.11253580746427178,0.286660275292024
1761391655354802700,0.076802734375,0.565484596261382,0.053423254890739916,0.36740729817710815
1761391655364868600,0.08686865234375,0.49755029319822786,0.0020626316182315346,0.38218934531062837
1761391655374935600,0.096935546875,0.46840720082223414,0.07043883322998881,0.3189734125388786
1761391655385001700,0.107001708984375,0.5552741678923369,0.15873510245084763,0.31207181645687665
1761391655395067600,0.117067626953125,0.6231482652008533,0.10977291862219571,0.3631106969617307
1761391655405133800,0.1271337890625,0.47854105682373044,0.005057867911458016,0.3107577747162431
1761391655415199700,0.13719970703125,0.3427075220108032,0.012566928367316722,0.12836184722539037
1761391655425265700,0.147265625,0.27301556162536145,0.09858034734800457,0.08540445676948874
1761391655435331800,0.157331787109375,0.2729974414467811,0.10075053099393844,0.13261000618916005
1761391655445398800,0.167398681640625,0.34836101772785183,0.10732318738251924,0.188062100026384
1761391655455465500,0.177465576171875,0.5505453858047723,0.19142229717448353,0.22668029223419725
1761391655465531600,0.18753173828125,0.7201525954037904,0.17400252194851637,0.24759788298066704
1761391655475597300,0.197597412109375,0.6314969913512468,0.13458075827285645,0.2275144780360162
1761391655485663500,0.20766357421875,0.4007996454954147,0.4077326596289873,0.30252138636652376
1761391655495729400,0.2177294921875,0.529033226698637,0.3409145011141896,-0.018888934463076292
1761391655505795600,0.227795654296875,0.3711334060281515,0.19701777909398077,-0.09814761848654598
1761391655515862500,0.237862548828125,0.26374679802060125,0.3612083704717457,-0.21729042300041765
1761391655525928400,0.247928466796875,0.31876784349679943,0.4569770213998854,-0.20257033518720416
1761391655535994600,0.25799462890625,0.43329847804009913,0.36151159120202064,-0.09671601478084921
1761391655546060500,0.268060546875,0.546180176332593,0.3280370454929769,-0.05490019557550549
1761391655556126700,0.278126708984375,0.7553408131629228,0.34039982959032056,-0.04059471644517034
1761391655566192400,0.2881923828125,0.8746183499723672,0.2038296510659158,-0.2640236422006041
1761391655576258300,0.29825830078125,0.7609452090412377,0.1354552030198276,-0.45893188179470595
1761391655586325500,0.308325439453125,0.8306248944669962,0.0958079600252211,-0.7155778348341584
1761391655596391400,0.318391357421875,0.9798270294189453,-0.002655775205790996,-0.8200007707305252
1761391655606457300,0.328457275390625,0.929489173322916,-0.10572437388375401,-0.9202398450709879
1761391655616523500,0.3385234375,0.6777665750950574,-0.0026379472881555557,-0.9447879378069192
1761391655626589400,0.34858935546875,0.44970016226470466,0.1285064798604697,-0.9216290344070642
1761391655636655600,0.358655517578125,0.2217220122396946,0.0936598420806229,-0.9083991851516068
1761391655646721500,0.368721435546875,0.2511187871158123,-0.03402173126302659,-0.8045762609750032
1761391655656787500,0.378787353515625,0.4287076431185007,-0.24348916902020573,-0.6535408461812883
1761391655666854400,0.3888544921875,0.6284171455144881,-0.551657438699901,-0.5973349748346954
1761391655676920300,0.39892041015625,0.7130933245420455,-0.8710583194032311,-0.5885336095459759
1761391655686986500,0.408986572265625,0.3487432950437069,-1.1221952266976236,-0.5868949754934758
1761391655697052400,0.419052490234375,-0.343101489764452,-1.2230278099518268,-0.6239877116996795
1761391655707118600,0.42911865234375,-0.9221399796038865,-1.2003577860474586,-0.5612738466985523
1761391655717184500,0.4391845703125,-1.1594658036887644,-1.1716297772783786,-0.3910997239317745
1761391655727250700,0.449250732421875,-1.05081896648705,-1.2076246352452784,-0.20396445642672478
1761391655737317600,0.459317626953125,-0.8904290825664997,-1.2828801480419934,-0.04916384388059378
1761391655747383600,0.469383544921875,-0.7610761419445276,-1.3959768042594194,-0.002632905786857009
1761391655757449500,0.479449462890625,-0.7259720953375101,-1.492993117161095,0.028316286163032053
1761391655767515400,0.489515380859375,-1.0004033689796925,-1.5054105540551244,0.0146271488327533
1761391655777581600,0.49958154296875,-1.450599790328741,-1.3971157451614737,-0.0003845423381775617
1761391655787647500,0.5096474609375,-1.751440347468853,-1.2963590766876936,0.09720562492869794
1761391655797713400,0.51971337890625,-1.773503126195073,-1.1788258993275462,0.18372122127786278
1761391655807780600,0.529780517578125,-1.6026327647924423,-0.9268924348279833,0.22137962854281065
1761391655817846500,0.539846435546875,-1.3547457992047072,-0.7302547410927712,0.29062092255130406
1761391655827912400,0.549912353515625,-1.0477385361284017,-0.6391061511807143,0.3884022284761071
1761391655837978600,0.559978515625,-0.8777513873010874,-0.5479163159428164,0.42778336788043375
1761391655848044300,0.570044189453125,-0.8302455397605896,-0.4524830344488844,0.3605789865270257
1761391655858110500,0.5801103515625,-0.7672475240558385,-0.3579733340732753,0.2832463021300733
1761391655868176400,0.59017626953125,-0.8435995268523693,-0.2732976665023714,0.2665263457365334
1761391655878243300,0.600243408203125,-0.9120639912694692,-0.20231771213300526,0.3765983934357762
1761391655888309500,0.6103095703125,-0.7066670908868312,-0.07722995467483997,0.41281843846067784
1761391655898375400,0.62037548828125,-0.13477555019259452,-0.07897815004903823,0.35634470995813605
1761391655908441600,0.630441650390625,0.3317272783130407,-0.28243622785620387,0.23099355232343077
1761391655918507500,0.640507568359375,0.7171896539449691,-0.42125900761298835,0.13740180704295635
1761391655928573700,0.65057373046875,1.195500409144163,-0.12481843899749219,0.3261819191455841
1761391655938639400,0.660639404296875,1.710635458871722,0.3869903158515692,0.8053004835963249
1761391655948706300,0.670706298828125,2.225686921969056,0.7094555525615811,1.270198945645243
1761391655958772500,0.6807724609375,2.5418121420025823,0.7011496426396071,1.5847604234933852
1761391655968838400,0.69083837890625,2.565802673920989,0.41231282702609895,1.7080894276507197
1761391655978904600,0.700904541015625,2.090703866505623,0.20561492704749107,1.5111395992264152
1761391655988970500,0.710970458984375,1.5917372767686844,0.16227905866801737,0.96128014985919
1761391655999036700,0.72103662109375,1.6921324184536932,0.19224406188614665,0.3669426763400435
1761391656009102600,0.7311025390625,2.4306068524897095,0.1649134988248348,0.1520489026851952
1761391656019169500,0.74116943359375,3.6674814745515585,0.10098645864166318,0.2289515251018107
1761391656029235700,0.751235595703125,4.919005968734622,0.1095918629668653,0.545306462237984
1761391656039301400,0.76130126953125,5.7994549245566125,0.27616759591549633,0.8457583123214543
1761391656049367600,0.771367431640625,6.113987906962633,0.5399301029618829,0.958928326036036
1761391656059433500,0.78143359375,5.881378590005636,0.7711671817176043,0.9976838808879256
1761391656069499400,0.79149951171875,5.685879983302951,1.0794351854447275,1.1687618936918676
1761391656079565600,0.801565673828125,5.730709305110573,1.4434505030959843,1.2951903251692651
1761391656089631500,0.811631591796875,5.956749180549383,1.8000844052590428,1.4553963769555092
1761391656099698400,0.821698486328125,5.972991874819994,2.108872122011334,1.5394628996521234
1761391656109764600,0.8317646484375,5.511015583828091,2.3058605288803578,1.4187635133460164
1761391656119830500,0.84183056640625,4.713814820057153,2.7651521108329296,1.049658252144605
1761391656129896400,0.851896484375,4.110135809957981,3.4975659296557304,0.8053948838815093
1761391656139962400,0.86196240234375,4.003556426680087,3.9178585033893585,1.0273089115619658
1761391656150028500,0.872028564453125,3.806907480898499,3.9186248115867373,1.4918636747397482
1761391656160094500,0.882094482421875,3.154090638142824,3.875826118823886,1.6359727243363855
1761391656170161400,0.892161376953125,2.250843575057387,3.978223832502961,1.2944117420122028
1761391656180227600,0.9022275390625,1.5621446870595215,3.783002873697877,0.9791189542148262
1761391656190293500,0.91229345703125,0.741435037407279,2.9120506450176236,0.5871787608709186
1761391656200359700,0.922359619140625,-0.7931359985500573,1.5489400453105568,-0.26704112685825676
1761391656210425600,0.932425537109375,-3.178706608483195,0.1365839878540486,-1.239811552296579
1761391656220491500,0.942491455078125,-6.910494843250513,-1.0986417710222303,-2.221143433320522
1761391656230557400,0.952557373046875,-11.172146910321711,-1.7174235115766525,-3.350937736845016
1761391656240624400,0.962624267578125,-14.115729004156588,-1.8820220992334187,-3.619749124778807
1761391656250690600,0.972690673828125,-16.092212617242335,-2.4525287614405156,-2.917990556460619
1761391656260756500,0.982756591796875,-18.739908561474085,-2.9445056384205817,-2.191114644151181
1761391656270822400,0.992822509765625,-22.63977431205511,-2.269790559850633,-2.672976515960693
1761391656280888600,1.002888671875,-26.324476385998725,-0.7815849692270159,-4.124398144066333
1761391656290954500,1.01295458984375,-27.182133664298057,0.22008314072517676,-5.027518365901709
1761391656301020400,1.0230205078125,-24.70155369737148,-0.1128229173099622,-4.7530032133683555
1761391656311087600,1.033087646484375,-20.16313869884014,-1.287363284805417,-4.569470646530389
1761391656321153300,1.0431533203125,-15.36766617079377,-2.7721584824636576,-4.946363931259513
1761391656331219500,1.053219482421875,-11.4087239618659,-4.346547441807389,-5.21905099158287
1761391656341285400,1.063285400390625,-7.614992188882828,-5.620581289440393,-5.000497672507167
1761391656351351600,1.0733515625,-3.8828070637524124,-6.3289627830296755,-4.440572463938594
1761391656361417500,1.08341748046875,-1.6086656152158976,-6.181103294858336,-3.5908091537594795
1761391656371483600,1.093483642578125,-1.5778794318079947,-4.94668600282073,-2.90799172501564
1761391656381550600,1.103550537109375,-3.5016841786295174,-2.92018835876584,-2.5674235531210896
1761391656391616500,1.113616455078125,-6.14765753685236,-0.704138449192047,-2.6315055646702645
1761391656401682700,1.1236826171875,-6.637545332598686,1.1234756218969821,-2.4501632013529537
1761391656411748400,1.133748291015625,-4.607910559561849,2.089368672379106,-1.5651953068017959
1761391656421814500,1.143814453125,-1.1629746885925532,2.016487706694007,-0.4386950763866305
1761391656431880400,1.15388037109375,2.418115619707107,1.7471213152259588,0.49732949005439875
1761391656441946600,1.163946533203125,5.565975839027762,2.0803693733654915,0.7961065387934446
1761391656452013600,1.174013671875,7.921172353485226,2.51868056500107,1.1835673947662115
1761391656462078500,1.184078369140625,9.761773916441202,2.79698634198904,1.7320215073801577
1761391656472144600,1.19414453125,11.435239043825865,3.3575220836713906,1.976563108062744
1761391656482210600,1.20421044921875,12.352111896681786,3.7004800733119247,2.3163057889185845
1761391656492276700,1.21427685546875,12.429970212388039,3.7298537595733996,2.781305373254418
1761391656502342700,1.2243427734375,12.583954320919513,3.5298160481363534,3.1197642979100344
1761391656512408800,1.234408935546875,12.790460059326886,3.5938401920184493,3.0832901319935915
1761391656522474500,1.244474609375,13.029396241217851,3.3838287835776804,2.7350395889028905
1761391656532541400,1.25454150390625,13.245705580759047,2.8693907762035726,2.09702225587219
1761391656542607600,1.264607666015625,13.365214588236809,2.517210200187564,1.3025319201037286
1761391656552673500,1.274673583984375,13.405335001701117,2.3490336079135536,0.8335401243265718
1761391656562739700,1.28473974609375,13.253573245394229,2.1379200834497807,0.6445522877573967
1761391656572805600,1.2948056640625,12.665602676558494,1.9515932097181676,0.481164792923443
1761391656582871600,1.30487158203125,11.965908931815623,1.9987486363857982,0.3215326685676351
1761391656592937700,1.314937744140625,11.440533643102645,2.1411849304646253,0.15609394029229878
1761391656603004700,1.325004638671875,11.32114621617794,2.2444392609730364,0.10193679990274832
1761391656613070800,1.33507080078125,11.719294470381737,2.080772255077958,0.2463038428484462
1761391656623136500,1.345136474609375,11.94143032411933,1.7776079311653972,0.3320593232790008
1761391656633202400,1.355202392578125,11.844976029014587,1.5072691875338553,0.33674627551883457
1761391656643268600,1.3652685546875,11.579918732917308,1.3881722679883242,0.29136171271493655
1761391656653334500,1.37533447265625,11.193919181668758,1.3084677398934959,0.10008954633455723
1761391656663400700,1.385400634765625,10.643325280547142,1.047216704211384,-0.2996826558092609
1761391656673466600,1.395466552734375,9.909864875280856,0.5991901011820883,-0.6521019724845886
1761391656683533600,1.405533447265625,9.267217544361948,0.24241949396207926,-0.847248112487793
1761391656693599700,1.415599853515625,9.047491089853644,0.12409238974526524,-0.8273435347087681
1761391656703665700,1.425665771484375,9.128934278309345,0.06754369631037116,-0.6737639883901924
1761391656713731600,1.435731689453125,9.16687676321268,0.039347383265197274,-0.5792790205970406
1761391656723797500,1.445797607421875,8.884773639768362,-0.024388006803393363,-0.5671547944959253
1761391656733863700,1.45586376953125,8.39112795279324,-0.11882387475781142,-0.505028666254878
1761391656743929600,1.4659296875,7.372617849236726,-0.24645649439319967,-0.47253502134196457
1761391656753996500,1.47599658203125,6.000774784758686,-0.3573731762230396,-0.508469746619463
1761391656764062700,1.486062744140625,3.769314540085196,-0.48091260826066135,-0.6772814219266176
1761391656774128600,1.496128662109375,0.6189198338508606,-0.6655363313362002,-0.7049464045740663
1761391656784194800,1.50619482421875,-3.3424943181484936,-1.2171624250497668,-0.2439839302672073
1761391656794260700,1.5162607421875,-8.143861164930462,-2.015962952167541,1.0462792772307992
1761391656804326700,1.52632666015625,-14.623881939911842,-2.2752453181251884,3.323703985221684
1761391656814392600,1.536392578125,-22.792446753466127,-0.9757924401406198,4.77753851968795
1761391656824459500,1.54645947265625,-30.848713221573828,1.2836324277140199,5.0387552147090435
1761391656834525700,1.556525634765625,-36.92646661659479,3.0505551526054737,3.9875642000392078
1761391656844591600,1.566591552734375,-41.115208930277824,4.393631264543533,1.8841905293136834
1761391656854657500,1.576657470703125,-44.1720012237072,5.280859505242109,-0.7414106336183846
1761391656864723700,1.5867236328125,-44.41353034470081,5.0060944696009155,-3.759592772015929
1761391656874789600,1.59678955078125,-39.475802724361415,3.619897008816898,-7.003809086763859
1761391656884855600,1.60685546875,-30.418556548690795,1.7091127793490886,-9.517152674651145
1761391656894922800,1.6169228515625,-20.731565193772315,-0.39007739514671264,-10.886720195412636
1761391656904988400,1.626988525390625,-13.060924182903765,-2.2823012279860673,-10.969357562088966
1761391656915054600,1.6370546875,-7.362552966818213,-3.3991830045759674,-9.88975264610052
1761391656925120500,1.64712060546875,-3.2293951777130365,-4.142580866488814,-8.25716488802731
1761391656935186700,1.657186767578125,-0.34899697754383086,-4.253169485408067,-6.123289988315105
1761391656945252600,1.667252685546875,1.4303431842416523,-3.835768249201774,-3.6259172920197247
1761391656955318800,1.67731884765625,2.6643092253804204,-3.3599417120337485,-1.5216253374055027
1761391656965384700,1.687384765625,3.6560055562913414,-2.5968817027956246,-0.08549761494565755
1761391656975451600,1.69745166015625,4.266129504746198,-1.107355531092733,1.0748081101659686
1761391656985517800,1.707517822265625,4.139776914983988,0.43818161043915893,2.1524634264566003
1761391656995583500,1.71758349609375,3.7176200086832045,1.3467743819341063,2.9753321538388726
1761391657005649700,1.727649658203125,3.7853538207381963,1.9533929526165126,2.8705338087588546
1761391657015715600,1.737715576171875,4.480867649447918,2.091433495954424,2.6849937014907597
1761391657025781500,1.747781494140625,6.1985933588415385,2.0402318626359106,2.38543982316032
1761391657035847700,1.75784765625,8.362869242036343,2.074973067279905,2.069938580244034
1761391657045914600,1.76791455078125,10.33058385773301,1.958418671824038,1.8676989748485384
1761391657055980800,1.777980712890625,11.727454395961761,1.7630024827077984,1.560737450610101
1761391657066046700,1.788046630859375,12.559446487128733,1.7900719836801289,1.2559122077479958
1761391657076112400,1.7981123046875,12.953164065408705,1.9252182668812572,1.1974717822823673
1761391657086178600,1.808178466796875,12.801459592247008,1.77544841504395,1.2465823616057634
1761391657096244500,1.818244384765625,12.180775671333073,1.345815619904548,1.1528313341103493
1761391657106310700,1.828310546875,11.486182464599608,0.9969478216983377,0.8527128076344728
1761391657116377600,1.838377685546875,10.766779810780287,0.7148723169133067,0.6273334419310093
1761391657126443500,1.848443603515625,10.226166036403178,0.45477388533242047,0.4016584542818367
1761391657136509700,1.858509765625,9.996876803779601,0.2938328155362047,0.19731520940428598
1761391657146575600,1.86857568359375,10.072726702272892,-0.08281851366320625,0.09520354612497613
1761391657156641800,1.878641845703125,10.322221687579153,-0.5166419836917892,-0.007192925445083528
1761391657166707500,1.88870751953125,10.64631335644722,-0.7589945864301174,-0.05788218879466876
1761391657176773600,1.898773681640625,10.834143620479106,-1.1064185425035655,-0.24036683574859052
1761391657186839600,1.908839599609375,10.726404545772075,-1.5360520682953298,-0.4339268025388941
1761391657196906500,1.918906494140625,10.588652610117196,-1.8274502588294446,-0.5275982985246926
1761391657206972700,1.92897265625,10.520650502514838,-1.9656746343016622,-0.6767715727083384
1761391657217038600,1.93903857421875,10.288184977942704,-2.0156319666475055,-0.7589243707381188
1761391657227104800,1.949104736328125,9.982020595431328,-2.056246447239071,-0.7712995759256184
1761391657237170700,1.959170654296875,9.684126613137126,-2.0411564301349223,-0.6648634735759348
1761391657247236600,1.969236572265625,9.372750633457303,-1.9866994482822715,-0.4590595632949844
1761391657257302500,1.979302490234375,8.982384119170904,-1.9520391999199986,-0.29418886243226006
1761391657267369500,1.989369384765625,8.470878950378298,-1.751381749149412,-0.2718726569342427
1761391657277435600,1.999435546875,7.53027860045433,-1.4274959781169891,-0.2937942005588673
1761391657287501600,2.00950146484375,7.361672676852345,-1.1431162149775773,-0.08778581721438095
1761391657297567500,2.0195673828125,7.471808291307092,-0.6217636789746582,-0.17349132102336734
1761391657307633700,2.029633544921875,7.190332944372296,-0.08911803393252193,-0.09278530600210651
1761391657317699600,2.039699462890625,6.914241628563404,0.25170729106087236,-0.08131441097687929
1761391657327765800,2.049765869140625,6.341687824568152,0.44409598558209834,-0.16567160544944926
1761391657337832700,2.059832763671875,5.412487405058741,0.7277303371816873,-0.3001562829366885
1761391657347898600,2.069898681640625,4.005691685143113,1.1166774861894548,-0.5490225236190482
1761391657357964500,2.079964599609375,2.1782640765368937,1.3991668324723838,-0.6758700938239693
1761391657368030500,2.090030517578125,-0.10128069234788417,1.2874521321326493,-0.7039272906593979
1761391657378096600,2.1000966796875,-3.584726034453511,0.33971769254505635,-0.3132064465099946
1761391657388162600,2.11016259765625,-8.6076547344774,-0.8013006003051996,1.1360413081552834
1761391657398228700,2.120228759765625,-17.162189288663864,0.48448652122467756,3.9943087058633564
1761391657408295700,2.130295654296875,-29.11468461215496,5.1986453324139115,6.965702935731411
1761391657418361600,2.140361572265625,-40.32562740933895,10.231190586566925,9.012309886357187
1761391657428427800,2.150427734375,-45.55141209309101,12.620595660096406,9.533628593155742
1761391657438493700,2.16049365234375,-44.414549750876425,11.97954699654579,8.205563880127668
1761391657448559600,2.1705595703125,-40.263654060506816,9.8459263638556,3.950328986622393
1761391657458625500,2.18062548828125,-34.51061660373211,7.738446719115972,-1.4723153630524872
1761391657468691700,2.190691650390625,-27.154380564975735,4.913036831197142,-6.051725804316997
1761391657478757600,2.200757568359375,-19.672540124475955,1.9894282887242734,-9.297600407665968
1761391657488824600,2.210824462890625,-13.035263671946526,-0.3728603028859943,-10.657020628422497
1761391657498890800,2.220890869140625,-7.459915608939528,-2.2399141847640274,-10.4466056076169
1761391657508956700,2.230956787109375,-3.3169624020069834,-3.5994136082366106,-9.432468896839023
1761391657519022600,2.241022705078125,-0.4457394419401884,-4.262863488687574,-7.6969526792109
1761391657529088500,2.251088623046875,1.6990256850987673,-4.264055328820645,-5.4254971087574955
1761391657539154400,2.261154541015625,3.221114840623736,-3.8327149991109963,-3.384696798583865
1761391657549220600,2.271220703125,3.8918601387798786,-3.1967534295663236,-1.3845721976697445
1761391657559287600,2.28128759765625,3.7599908314228054,-2.4067837860926984,1.0985222362957894
1761391657569353500,2.291353515625,3.5304444091677665,-1.0341376616034657,3.0042788468599317
1761391657579419600,2.301419677734375,3.3797949980169535,0.5633016261991113,3.480812070992589
1761391657589485600,2.311485595703125,3.674911916813254,1.9647291701450942,3.265450241434574
1761391657599551700,2.3215517578125,4.260226418182254,2.4007142569206654,2.72026988979429
1761391657609617400,2.331617431640625,5.009740132626891,1.9911456140361725,2.3049979207016524
1761391657619683600,2.34168359375,6.3207899979680775,1.3130419159412383,1.7366886224083602
1761391657629750500,2.35175048828125,7.599278486922383,0.7396606481458992,1.2450728338256478
1761391657639816400,2.36181640625,8.350667347589134,0.49316082606762646,0.8583789436373859
1761391657649882600,2.371882568359375,8.806881421792507,0.38723055434823034,0.31443441740237177
1761391657659948500,2.381948486328125,9.205617705017328,0.3867320302415639,-0.26534767561228945
1761391657670014700,2.3920146484375,9.687440267729759,0.4024392293959856,-0.6429007211580872
1761391657680080600,2.40208056640625,10.219196197390556,0.33766638603843746,-0.7542360667914152
1761391657690146600,2.412146484375,10.787889234304428,0.1569081792846322,-0.6960478625211864
1761391657700212500,2.42221240234375,11.252144576144218,0.018548706190660593,-0.5076826148297637
1761391657710279400,2.432279541015625,11.539710641169547,0.05196852603778243,-0.1724149604961276
1761391657720345600,2.442345703125,11.747998002296686,0.10103501049112527,0.21814777048211542
1761391657730411500,2.45241162109375,11.782041726195812,-0.01733823442235589,0.5656121681638062
1761391657740477400,2.4624775390625,11.566081930744648,-0.2953723548620939,0.8037460937611758
1761391657750543600,2.472543701171875,11.073781228637694,-0.6687117465019226,0.7575226141814142
1761391657760609500,2.482609619140625,10.455042596572637,-1.071536614214629,0.4898383305814117
1761391657770675700,2.49267578125,9.896738851726054,-1.5350801545232533,0.17134521237276493
1761391657780742700,2.50274267578125,9.492541380485891,-1.973275464694202,-0.06885134484283625
1761391657790808600,2.51280859375,9.151947489628196,-2.2172142771780488,-0.2603491184063256
1761391657800874500,2.52287451171875,8.735271645087003,-2.2294285927154123,-0.4476554316293448
1761391657810940400,2.5329404296875,8.164020155861973,-1.9715800589531658,-0.5034534162947908
1761391657821006600,2.543006591796875,7.621975471898913,-1.5388706328473984,-0.40614385606758296
1761391657831072500,2.553072509765625,7.215886487823724,-1.1008261293239892,-0.19987342425342647
1761391657841138700,2.563138671875,6.7278136325448745,-0.834480108590424,0.14444449209608137
1761391657851205600,2.57320556640625,6.16983137473762,-0.6896227979097515,0.5626897413784637
1761391657861271600,2.583271484375,6.335529886460304,-0.5924398962695151,0.7281092534966767
1761391657871337700,2.593337646484375,6.7428527962446205,-0.44329248717948794,0.3830545107726007
1761391657881403600,2.603403564453125,6.443492248529195,-0.4239828065536916,0.2020871182475239
1761391657891469600,2.613469482421875,6.160441030579805,-0.5184902053743601,-0.023990477119479325
1761391657901535500,2.623535400390625,6.332890185606479,-0.3880119139842689,-0.22225644790995866
1761391657911601700,2.6336015625,6.591949118071794,-0.05951886835210025,-0.39897082263305783
1761391657921667600,2.64366748046875,6.736900025320053,0.28537608070038256,-0.3567777676131576
1761391657931734500,2.653734619140625,6.586207359549403,0.6814712748318911,-0.13112740294858813
1761391657941800700,2.66380078125,5.66232550471425,1.3128336800180376,0.046319797827396536
1761391657951866600,2.67386669921875,3.6444518966197967,2.4240393106676636,0.5325886541578918
1761391657961932500,2.6839326171875,1.0156494534283875,4.164253769114613,1.6158149024486541
1761391657971998700,2.693998779296875,-1.9125795884519814,5.889537931063771,2.5399448868259786
1761391657982064400,2.704064453125,-4.697836329680681,6.263628433331847,3.375328958518803
1761391657992130600,2.714130615234375,-6.54163814998269,3.978639719827473,3.4729067046955224
1761391658002197500,2.724197509765625,-9.292220468193293,-0.18768720229938626,2.6959879737138746
1761391658012263400,2.734263427734375,-14.950435614979266,-4.419746825791895,2.557525259441137
1761391658022329600,2.74432958984375,-22.99272499566078,-5.608040956819057,3.7823558079659936
1761391658032395500,2.7543955078125,-32.18009509632587,-2.6232585453286767,5.744829015877842
1761391658042461700,2.764461669921875,-39.788620135021205,2.3788272731527687,6.648770490968227
1761391658052527600,2.774527587890625,-41.55623771030903,6.85932462798357,5.421795916152
1761391658062593800,2.78459375,-38.43473884369135,8.111663945680856,3.048051645351946
1761391658072660700,2.79466064453125,-33.09245660923719,6.06833791642189,0.0023853242339566347
1761391658082726400,2.804726318359375,-27.152012082278727,2.6131150447160003,-3.728563427501917
1761391658092792600,2.81479248046875,-20.811008732843398,-0.3216358732137829,-6.976603099930286
1761391658102858500,2.8248583984375,-14.691487741672992,-2.6665169645577667,-8.159413538849353
1761391658112924700,2.834924560546875,-9.579148235315085,-4.344816380231082,-7.490435250365734
1761391658122990600,2.844990478515625,-6.027499710077047,-5.1260231637954705,-6.101615332123637
1761391658133056800,2.855056884765625,-3.499436107441783,-5.261874234265089,-5.0149219191789625
1761391658143123700,2.865123779296875,-0.8869044155716895,-4.662673830884695,-4.364746238581836
1761391658153189600,2.875189697265625,1.6526649159401654,-3.942315483775735,-3.1528941218346356
1761391658163255800,2.885255859375,3.203568662539124,-3.4961735985144973,-1.75281660425812
1761391658173321500,2.895321533203125,3.859720787197351,-2.7651854285806414,-1.3343307876855135
1761391658183387400,2.905387451171875,3.6034365801423784,-1.1304970449663698,-1.1800257035713642
1761391658193453600,2.91545361328125,2.1716215697824954,0.4366932715775445,-1.449856424615532
1761391658203519500,2.92551953125,1.4819547135353088,1.5284743265174328,-1.5923729443237185
1761391658213586700,2.935586669921875,2.255271328371763,2.094281871122867,-0.9438096673592925
1761391658223652600,2.945652587890625,4.008455304637551,2.0351026830539105,-0.14828925789073108
1761391658233718500,2.955718505859375,6.181531749403477,2.2946128664180634,0.492656749003008
1761391658243784700,2.96578466796875,8.189009051167965,2.729284678637981,1.2576999679476022
1761391658253850600,2.9758505859375,9.841597394740582,2.696711319552362,1.629858625370264
1761391658263916500,2.98591650390625,11.409058308386802,2.7559724868163467,1.6266968003384767
1761391658273982500,2.995982421875,12.667184392791986,2.73210382771194,1.3588869906626642
1761391658284049400,3.00604931640625,13.54093355871439,2.261968487922847,0.9626689738690852
1761391658294115600,3.016115478515625,14.103911140590906,1.8342489790588616,0.44228009526655077
1761391658304181500,3.026181396484375,14.556792855501174,1.6721398701302705,0.08513356740623712
1761391658314247700,3.03624755859375,14.956884060466288,1.4907280948385595,0.027506138823926447
1761391658324313600,3.046313720703125,14.961667787611484,1.2647924104265869,0.1433753284946084
1761391658334379800,3.0563798828125,14.877639258837698,0.9660243487115949,0.20944369155541062
1761391658344445400,3.066445556640625,14.922680177569388,0.7056625900194049,-0.14826660766750574
1761391658354511600,3.07651171875,14.73975755932331,0.6476990613505244,-0.6231099790170789
1761391658364578600,3.08657861328125,13.990241506791113,0.5029456494357437,-0.7404432498909532
1761391658374644500,3.09664453125,13.027938443624972,0.31372656139396127,-0.6841473621733486
1761391658384710700,3.106710693359375,12.273582549846171,0.20633125862330198,-0.5508043290019035
1761391658394776600,3.116776611328125,11.665754603374003,-0.06317936362102627,-0.4242997635483742
1761391658404842500,3.126842529296875,11.097574776679277,-0.4169903173178434,-0.638108956836909
1761391658414908700,3.13690869140625,10.546709657400847,-0.3309973566032946,-0.9198531838409603
1761391658424974600,3.146974609375,9.864328281986714,-0.11054214942902325,-0.9409019632190465
1761391658435041800,3.157041748046875,8.898952387246489,-0.03850415564039722,-0.6227011790204793
1761391658445107700,3.167107666015625,7.675969512414932,-0.05247947123460471,-0.18557210984155534
1761391658455173400,3.17717333984375,6.433302862948179,-0.028006553493579847,0.0918215572701767
1761391658465239800,3.18723974609375,5.5725330055862665,0.11862168498290702,0.23226417504744604
1761391658475305700,3.1973056640625,5.184133991980552,0.18892993236947803,0.34804665454905476
1761391658485372000,3.207371826171875,4.978143217357993,0.11307891049818135,0.38291499270405616
1761391658495437800,3.217437744140625,4.653405067279935,-0.009133939977642148,0.28246961866915227
1761391658505504800,3.2275048828125,4.383911250039935,0.010948738881223835,0.048855915009160526
1761391658515571000,3.237571044921875,4.580683529940247,0.26503941338071596,-0.26483645642083137
1761391658525636900,3.247636962890625,5.006472655263543,0.6823091869607567,-0.4248755176097154
1761391658535703000,3.257703125,5.142899479794502,1.0186411095250398,-0.588139934053272
1761391658545768700,3.267768798828125,4.748985502159595,1.1874292578261345,-0.8982746084351092
1761391658555835000,3.2778349609375,3.8556361482322212,1.366189276500046,-1.214311565663293
1761391658565900800,3.28790087890625,2.5968185744315386,1.290492815002799,-1.6187065322369336
1761391658575967700,3.2979677734375,0.7590823377788066,0.9102386755384504,-1.6232272245317696
1761391658586034000,3.308033935546875,-1.4987965427428482,0.013209397839184385,-0.7350702516157179
1761391658596099800,3.318099853515625,-5.1961570227295155,-1.0575498821772635,1.6882228437945246
1761391658606165800,3.328165771484375,-12.401126395219563,-1.3732424098819493,5.475450349450111
1761391658616232000,3.33823193359375,-22.97282553244829,0.7968187787160277,9.031382835617661
1761391658626297600,3.348297607421875,-34.78986842939853,5.323498039007187,11.603625771719217
1761391658636363800,3.35836376953125,-43.809317081594465,10.643442184925078,13.311936587035655
1761391658646430700,3.3684306640625,-46.66168570358753,14.142584277856349,13.714965599018335
1761391658656496600,3.37849658203125,-45.83270740728378,14.035674055188894,10.81475853652954
1761391658666562800,3.388562744140625,-41.69603664162159,11.664499050354957,5.215542106679082
1761391658676628700,3.398628662109375,-34.65034305433035,8.081976078903674,-0.1851161827675998
1761391658686695000,3.40869482421875,-26.931135288691518,4.520170316788554,-4.996681913611292
1761391658696760800,3.4187607421875,-19.265804074668882,1.46964775127843,-8.572440797755121
1761391658706827000,3.428826904296875,-11.847503501665592,-1.4000778098374604,-10.174067600375412
1761391658716894000,3.43889404296875,-5.704106544867158,-4.144932982572913,-10.118015458285807
1761391658726959900,3.4489599609375,-0.8423504035741091,-6.299755977767705,-9.199885298845171
1761391658737025800,3.45902587890625,3.2471681502908467,-8.485319563663005,-8.865167022022604
1761391658747091700,3.469091796875,6.184082602930069,-11.21581186452508,-11.004117909824847
1761391658757158000,3.479157958984375,7.141743977770209,-10.419571470218896,-9.46755365422368
1761391658767223800,3.489223876953125,6.5307052525579925,-8.127328547802566,-6.440096760872006
1761391658777290000,3.4992900390625,5.468322105005383,-4.452367238889634,-3.525006017506122
1761391658787357000,3.50935693359375,3.83396792178154,-0.7550253174729645,0.016489947029948233
1761391658797422800,3.5194228515625,2.2293916217058896,1.5724669052399693,2.9417458183184264
1761391658807489000,3.529489013671875,1.6737977203398942,2.5479177654013037,4.06933092136085
1761391658817554700,3.5395546875,2.4653666157037017,2.8423806042030453,3.361837024261057
1761391658827620900,3.549620849609375,4.057766155773401,2.760063847783208,2.3507535635739565
1761391658837686800,3.559686767578125,5.95115939771831,2.2849429746665058,1.7749277521707116
1761391658847752700,3.569752685546875,8.055918677583337,1.9386036720246076,1.2608555093690752
1761391658857819000,3.57981884765625,9.805614811733365,1.4686134397946298,0.9213673877961933
1761391658867885800,3.5898857421875,11.203096175336837,1.0537607190273701,0.585939209138602
1761391658877951700,3.59995166015625,12.275844649559259,0.6776520818699151,0.02325666468590498
1761391658888018000,3.610017822265625,12.832418209612369,0.22356416950765995,-0.4882929277703166
1761391658898083800,3.620083740234375,13.254033848643303,0.25909002172332257,-0.8231106463793665
1761391658908149800,3.630149658203125,13.771695786499976,0.4685967685775831,-0.9676223584927618
1761391658918215700,3.640215576171875,14.166339247453212,0.5912380461990833,-0.8420195641845464
1761391658928281900,3.65028173828125,14.304293427681921,0.6109155006913468,-0.7073617951527238
1761391658938348800,3.660348876953125,14.054756356799603,0.5612003796035424,-0.4971880357570946
1761391658948414700,3.670414794921875,13.469792568564413,0.5162208722028881,-0.26727862540856
1761391658958481000,3.68048095703125,12.783937964081764,0.5362234304636716,-0.08755012702867389
1761391658968546800,3.690546875,12.083809335052967,0.5241358831111341,0.07030000928118825
1761391658978613000,3.700613037109375,11.518375592195987,0.4808909444181248,0.08019888748303056
1761391658988679000,3.710678955078125,11.088874752873181,0.41622378992475567,0.12741305860057472
1761391658998744800,3.720744873046875,10.718951891678572,0.31075587502010166,0.1810749445527792
1761391659008811800,3.730811767578125,10.202315205216408,0.1670301439189352,0.24652181471437215
1761391659018877700,3.740877685546875,9.469857839512825,-0.01443813477489748,0.26682854355350133
1761391659028944000,3.75094384765625,8.668328691148757,-0.10050305903889238,0.026370558922737836
1761391659039009800,3.761009765625,7.68429018151462,-0.06721316744806245,-0.26099413831159474
1761391659049076000,3.771075927734375,7.076182833579182,-0.03149772007758729,-0.38419074826091526
1761391659059142000,3.781141845703125,7.211595512631535,0.10680515485778451,-0.3663085431549698
1761391659069207800,3.791207763671875,7.204733810168504,0.11574384625796227,-0.041737347141653294
1761391659079275000,3.80127490234375,7.30226421007216,-0.012333448405005037,0.10694478252418338
1761391659089341000,3.8113408203125,7.410016144260764,-0.04640291866674088,0.0751468647904694
1761391659099406600,3.821406494140625,7.353674663835763,-0.1095183228066191,-0.10511669031418859
1761391659109472800,3.83147265625,7.366790165996551,-0.27321331268716603,-0.5299466882817447
1761391659119538700,3.84153857421875,7.4693392708450554,-0.47049650125168263,-0.8995617256361991
1761391659129604900,3.85160498046875,7.506796018058061,-0.6301475495036691,-1.3346008367985487
1761391659139670800,3.8616708984375,7.6481000932365655,-0.5386493059037253,-1.8884739057213067
1761391659149737700,3.87173779296875,7.695934442079067,-0.184388800074812,-2.753337754398584
1761391659159804000,3.881803955078125,7.113847086063027,0.6782128575578331,-4.001399540907144
1761391659169869800,3.891869873046875,6.2373921683132645,1.7487345956414937,-4.650231990201771
1761391659179936000,3.90193603515625,4.566801719582081,3.01064195215106,-4.249743018090725
1761391659190001700,3.912001708984375,1.7944775251626968,4.298500619257986,-2.6390441434815526
1761391659200067800,3.92206787109375,-2.1511866845190526,5.2742777887642385,0.032097339071705935
1761391659210133800,3.9321337890625,-7.418375391805172,6.291827522855996,3.6464293341726064
1761391659220200000,3.942199951171875,-16.788157238584756,9.205662128680943,7.902768097266554
1761391659230267000,3.952266845703125,-32.62210587313175,13.344896607351302,11.124409007591009
1761391659240332800,3.962332763671875,-49.644253069376944,16.698836448621748,10.652945341807603
1761391659250399000,3.97239892578125,-59.51496666848659,17.971743922573328,7.105768409025669
1761391659260465000,3.98246484375,-57.682439106392856,16.18767088704705,1.72138189381361
1761391659270530800,3.99253076171875,-47.701339717459675,11.892387768530845,-3.8151872334659096
1761391659280596700,4.0025966796875,-36.509358810377115,7.09828828240335,-8.957005347764492
1761391659290662700,4.01266259765625,-27.938951564276216,2.8575732048988343,-12.583740385907888
1761391659300728800,4.022728759765625,-21.411118652284145,-0.2389828705769032,-14.592844996613263
1761391659310794800,4.032794677734375,-15.705782857882976,-2.5629034453481436,-14.336383679425715
1761391659320861000,4.04286083984375,-10.324159962165355,-4.298592096933723,-12.291910818219185
1761391659330926800,4.0529267578125,-5.5586704844504595,-5.055928467828035,-9.594905776417255
1761391659340993000,4.062992919921875,-1.4795383000433444,-4.7562680603832,-6.831500216990709
1761391659351060000,4.07306005859375,2.0323890401810405,-4.16506099384427,-4.311477589730918
1761391659361126000,4.0831259765625,4.575525708785653,-4.055725005334615,-2.054169494834542
1761391659371191800,4.09319189453125,6.43434564999938,-3.7841985132232305,-0.3946686684597283
1761391659381257700,4.1032578125,7.5362845628708595,-2.9802731173723935,0.7828276627644896
1761391659391324000,4.113323974609375,7.730489622631668,-1.9730057078421115,1.4295118479840456
1761391659401389800,4.123389892578125,7.740878914698958,-0.693405458253622,1.169251796100661
1761391659411455700,4.133455810546875,7.9528435030341145,0.49019233165085313,0.3864261060975492
1761391659421522000,4.14352197265625,8.355689559665322,0.9049658497020602,-0.467912256912142
1761391659431588900,4.1535888671875,8.990368103662133,0.7310502753846347,-0.9534601237580179
1761391659441655000,4.163655029296875,9.756371180614828,0.2832088379302062,-1.0596478043045847
1761391659451720700,4.173720703125,10.5907323390007,-0.4552614861862734,-0.8979538520481437
1761391659461786600,4.18378662109375,11.428685384398698,-1.1024708277910946,-1.1223713139168918
1761391659471852500,4.1938525390625,12.288375629830359,-1.3430480548873542,-1.4701830271989107
1761391659481918500,4.20391845703125,13.011836034607887,-1.362365480428189,-1.5945885745465755
1761391659491984600,4.213984619140625,13.524670990699528,-1.4868658664524554,-1.2654966131731866
1761391659502051600,4.224051513671875,13.690844718718528,-1.3859237584091721,-0.7614392761684954
1761391659512117500,4.234117431640625,13.383140705549716,-0.8953447655282915,-0.17464966074563562
1761391659522183700,4.24418359375,12.911325157588719,-0.5115378289531916,0.264070403951779
1761391659532249600,4.25424951171875,12.4595061034739,-0.42562366909589616,0.582954201978445
1761391659542315500,4.2643154296875,12.07759119119048,-0.5432082478497177,0.7308293991755693
1761391659552381400,4.27438134765625,11.712888110470772,-0.716784799471125,0.6312362945884465
1761391659562447600,4.284447509765625,11.296334431004524,-0.7901208154473454,0.461065386692062
1761391659572514600,4.2945146484375,10.744753856933116,-0.7425776315711439,0.3587427840758115
1761391659582580500,4.30458056640625,10.32441013753414,-0.5616504249259829,0.38265009469017386
1761391659592646700,4.314646728515625,9.994411290448904,-0.21152694583656265,0.6976833547685295
1761391659602712600,4.324712646484375,9.620922261205315,-0.05388524637930095,1.0863769674066452
1761391659612778800,4.33477880859375,9.12812471549213,-0.033276173592731356,1.1374088701814413
1761391659622844700,4.3448447265625,8.626484522631763,0.06621010961905122,1.0139354891173542
1761391659632910600,4.35491064453125,8.206261799263954,0.10197400837428867,0.9185779762733727
1761391659642977500,4.3649775390625,7.763249736461043,0.07854633450303226,0.836389010951668
1761391659653043500,4.37504345703125,7.213873394435644,0.10539455740749835,0.7059944523222744
1761391659663109600,4.385109619140625,6.7178948805987835,0.2517278589248657,0.7389370831117034
1761391659673175600,4.395175537109375,6.218111713781952,0.48100883517675097,0.7402497000802308
1761391659683241700,4.40524169921875,5.948119883891939,0.7104653141260147,0.7301540571972728
1761391659693307600,4.4153076171875,6.094002519032359,0.8728275940980762,1.019372857865691
1761391659703373600,4.42537353515625,6.429336881926655,0.835721194692701,1.3079698733739553
1761391659713440800,4.435440673828125,6.661306731936335,0.668992609269917,1.2591753011971711
1761391659723506700,4.445506591796875,6.662778558054566,0.5273259478567168,0.8255987368680536
1761391659733572600,4.455572509765625,6.306771994009614,0.8155161726623773,0.08953753798622638
1761391659743639600,4.4656396484375,5.572847478362918,1.4645590498372911,-0.3246043310979381
1761391659753705500,4.47570556640625,4.481964797034859,1.9383594880051909,-0.17485844465810804
1761391659763771600,4.485771728515625,3.19602306946516,2.139468628066033,-0.12598824996184557
1761391659773837600,4.495837646484375,1.74116971334517,2.385970276775211,-0.5166060355955735
1761391659783903500,4.505903564453125,-0.43441725293695926,2.669126854795217,-0.9472417606998235
1761391659793969700,4.5159697265625,-4.56478804167211,3.072405749885738,-1.1567134362407028
1761391659804035600,4.52603564453125,-10.240140785741806,3.743591777546704,-0.8106691710226237
1761391659814102500,4.5361025390625,-16.416559137654303,4.605911786960065,0.17444485888853667
1761391659824168700,4.546168701171875,-21.530980710983275,5.188872126418352,1.2328057651877402
1761391659834234400,4.556234375,-23.987714522898195,5.205349213966727,1.242935237275064
1761391659844300500,4.566300537109375,-24.549917028748986,4.234143297898769,-0.20689152285456655
1761391659854366500,4.576366455078125,-24.88304072985649,2.53668822311759,-1.7349850333608685
1761391659864432600,4.5864326171875,-25.557604709517953,1.0928493782911448,-2.275626718658209
1761391659874498600,4.59649853515625,-26.193903548192978,0.646020825939998,-2.328993274925649
1761391659884565500,4.6065654296875,-26.201397118818758,0.9476264491684734,-1.9988523890212178
1761391659894631700,4.616631591796875,-25.12515904891491,1.3599597344607115,-1.493265504361689
1761391659904697600,4.626697509765625,-23.072650180768964,1.6531472926296293,-1.8575101737894117
1761391659914763800,4.636763671875,-20.027768105363844,1.390710846555233,-3.1526199810683724
1761391659924829400,4.646829345703125,-16.20347051372528,0.021966825804766266,-4.537229295878112
1761391659934895600,4.6568955078125,-11.890230882757901,-1.8662223264247177,-5.310973488476872
1761391659944961500,4.66696142578125,-7.968514534896611,-3.6000311556130646,-5.350604072597623
1761391659955027500,4.67702734375,-5.422604894447327,-4.5648909175246954,-5.152496744701266
1761391659965094700,4.6870947265625,-4.04001422598362,-4.501950477226078,-4.512375717389584
1761391659975160600,4.69716064453125,-3.2033892143189906,-3.731744395625591,-3.309754662585258
1761391659985226800,4.707226806640625,-2.0363187808454035,-2.8103075958549977,-2.155434843482822
1761391659995292700,4.717292724609375,-0.7061912900686264,-1.878616820834577,-1.3464397431522608
1761391660005358600,4.727358642578125,0.4343891958862543,-0.917966347181052,-0.8552112733867019
1761391660015424500,4.737424560546875,1.343061791151762,0.15253449424505233,-0.3259626503717154
1761391660025490400,4.747490478515625,2.2751626082777974,1.4946920300334692,0.421618634705618
1761391660035557600,4.7575576171875,3.3439790037482977,2.5820301706224678,1.134164189171791
1761391660045623600,4.76762353515625,4.416970054554939,2.8817317868605254,1.190880567323789
1761391660055689500,4.777689453125,5.590568428492546,2.946850740242004,0.7310591893434524
1761391660065755600,4.787755615234375,7.195220716413855,3.080529435108602,0.1983897250343114
1761391660075821600,4.797821533203125,9.084623427417874,2.893014520636201,-0.09629698565118014
1761391660085887700,4.8078876953125,10.75356844702959,2.295861405174434,-0.36315208841804414
1761391660095953400,4.817953369140625,12.156547239005565,1.5616244625777005,-0.8008859550897032
1761391660106020600,4.8280205078125,13.156900339102744,1.0944922501273453,-1.2588881548188626
1761391660116086500,4.83808642578125,13.65952603586912,0.7495555808249861,-1.5567646014563739
1761391660126152400,4.84815234375,13.81010822700262,0.546646697865799,-1.5142229521945119
1761391660136218600,4.858218505859375,13.694884934020042,0.5329796262368559,-1.1202526412624865
1761391660146284500,4.868284423828125,13.324268829864263,0.5171820453852415,-0.6949094330757856
1761391660156350700,4.878350830078125,13.028250578314065,0.8101370369073003,-0.4754395106118172
1761391660166416600,4.888416748046875,12.589135522949695,1.2376461909562348,-0.4006063879456371
1761391660176483600,4.898483642578125,12.078223643875122,1.2991606901049613,-0.34680344955492765
1761391660186549800,4.9085498046875,11.486125181454419,1.1124197556797415,-0.14587806856315583
1761391660196615700,4.91861572265625,10.797688159263133,0.8714989027775824,-0.060548357530310744
1761391660206681600,4.928681640625,10.402067377710342,0.48968763353172684,-0.07528378904312849
1761391660216747500,4.93874755859375,10.323799896681308,0.08820965038333088,-0.05867238932428881
1761391660226813400,4.9488134765625,10.272043990480899,-0.08484477706011384,-0.085985051402729
1761391660236879600,4.958879638671875,10.143563741040229,-0.19551124698854982,-0.07953163747964427
1761391660246946600,4.968946533203125,10.03789153573513,-0.4807470789680257,0.1627548412199132
1761391660257012500,4.979012451171875,9.8375326295197,-0.6306751535743474,0.5273708464443684
1761391660267078700,4.98907861328125,9.342334452405572,-0.521392027763091,0.5371387186776846
1761391660277144600,4.99914453125,8.505555711483956,-0.014103490284830331,0.2210990945683792
1761391660287210500,5.00921044921875,7.952115773281455,0.5242340827886015,0.33987112954109905
1761391660297276400,5.0192763671875,7.604623355081677,0.6424971087932586,0.8518304718419909
1761391660307342600,5.029342529296875,7.372559981569648,0.54397430031877,1.1184952762011438
1761391660317409500,5.039409423828125,7.270344054198264,0.47024891969878224,1.2077541799090803
1761391660327475500,5.049475341796875,6.8352575236976145,0.38515995861925184,1.0272906452529131
1761391660337541600,5.059541748046875,5.598820708531141,0.5017512520194053,0.4143915329962969
1761391660347607600,5.069607666015625,3.25484526078999,0.7656690957579761,-0.3806117207303643
1761391660357673700,5.079673828125,0.7423200035482644,0.4895698889035731,-1.397268013113737
1761391660367739600,5.08973974609375,-1.2424363478422165,-0.5402911913592368,-2.4730758749067783
1761391660377805600,5.0998056640625,-2.8848522569686175,-2.2641779806658624,-3.341471989363432
1761391660387872800,5.109872802734375,-5.526694214475155,-2.8234406336724756,-3.70663421202749
1761391660397938400,5.1199384765625,-13.259434830904006,-1.9502322966285048,-2.098205912698805
1761391660408004600,5.130004638671875,-24.59719082109928,0.7183566518977283,0.34684900572970506
1761391660418070500,5.140070556640625,-32.9411823441863,4.006608507727086,1.3196680560827254
1761391660428136700,5.15013671875,-34.909234813535214,4.659611228443682,0.18136077575683593
1761391660438202600,5.16020263671875,-29.64992429227829,4.009588108059764,-2.017337893782556
1761391660448268500,5.1702685546875,-21.99506303434372,1.9033957266516983,-2.712153511095047
1761391660458335700,5.180335693359375,-15.650863519215584,0.5016540021900088,-3.5478871268779035
1761391660468401700,5.190401611328125,-11.22013849555254,-0.05197160391085781,-4.471743847271799
1761391660478467600,5.200467529296875,-7.940566205263138,-0.8342790330603719,-4.452188082930445
1761391660488533800,5.21053369140625,-5.418069004583359,-1.202085925014317,-3.9427123741388317
1761391660498599700,5.220599609375,-3.476953057476878,-1.0682724978521465,-3.2925361090198155
1761391660508665900,5.230665771484375,-1.8865479060947894,-0.9193842511549591,-2.5929516698703168
1761391660518731500,5.2407314453125,-0.472062800720334,-0.8683966989785432,-1.991153066690266
1761391660528797700,5.250797607421875,0.7436778478980064,-0.8884177427440881,-1.6698175646625457
1761391660538864600,5.26086474609375,1.6446131269097328,-0.8911667491912841,-1.5379058794684708
1761391660548930600,5.2709306640625,2.1919150007486343,-0.9322706938002258,-1.3794129152104257
1761391660558996700,5.280996826171875,2.2016963900506497,-1.0852259707406162,-1.4735316069744526
1761391660569062700,5.291062744140625,2.265075514027476,-1.2811406108982861,-1.6034351672165095
1761391660579128800,5.30112890625,2.56320798125267,-1.3723612431332468,-1.3089420794069766
1761391660589194800,5.31119482421875,2.8710546177625655,-1.329308137217909,-0.8500628776475787
1761391660599261000,5.321260986328125,2.895716180810332,-0.9813044084951281,-0.31299539757519956
1761391660609327900,5.331327880859375,2.6095810253709555,-0.6014167277229949,0.2648570973500609
1761391660619393500,5.3413935546875,2.1557330957770344,-0.43229978585895146,0.669784198039025
1761391660629459700,5.351459716796875,1.795015869823098,-0.2508066158941015,0.917945596653968
1761391660639525600,5.361525634765625,1.8075047645181417,-0.2284637050522491,1.0979019124403595
1761391660649591800,5.371591796875,2.2529916930019853,-0.28805918230451644,1.1533826843827961
1761391660659657700,5.38165771484375,2.9333868630349635,-0.33900903281904754,1.0599094509154559
1761391660669723600,5.3917236328125,3.6177988674938675,-0.5812117056926712,1.0005351786658168
1761391660679790800,5.401790771484375,3.9713130302011965,-0.9705167647600174,0.8480310795590281
1761391660689856800,5.411856689453125,3.8537890590608117,-1.2767593270741402,0.6362763345822692
1761391660699922700,5.421922607421875,3.290045753508806,-1.409268393639475,0.3877949102327227
1761391660709988600,5.431988525390625,2.794011710092425,-1.2011060471314936,0.20281725915297866
1761391660720054500,5.442054443359375,2.5571622713476416,-0.9156962833572179,0.30038039228245617
1761391660730120700,5.45212060546875,2.5250439625531436,-0.8059588013745844,0.513635751080513
1761391660740186600,5.4621865234375,2.5533172863572835,-0.6804966576460748,0.6457545031540095
1761391660750253600,5.472253662109375,2.4376807363986965,-0.2662440581964329,0.47175402703210706
1761391660760319700,5.48231982421875,2.2513749054551124,0.3555729584006592,0.1697470564611256
1761391660770385700,5.4923857421875,2.212142965263128,0.7324221482597291,0.08905892415642738
1761391660780451800,5.502451904296875,2.3847528638094664,0.6199018306255341,0.22893603527173398
1761391660790517800,5.512517822265625,2.72380420140028,0.34997455387171356,0.40017201511636374
1761391660800583700,5.522583740234375,2.9316876579016444,0.07669588433075696,0.48725043298006054
1761391660810649600,5.532649658203125,2.6584026316851377,-0.2722182007025927,0.44661885512322186
1761391660820716500,5.542716552734375,1.6513111632436512,-0.37285380007997154,0.44414530461654067
1761391660830782700,5.55278271484375,0.31451193961799145,0.18664236942157147,0.5248749379754066
1761391660840848600,5.5628486328125,-0.8809422922968864,0.7519874110817909,0.8794551224790513
1761391660850914800,5.572914794921875,-1.7235925556004046,0.9126117613453417,1.3648369851082562
1761391660860980700,5.582980712890625,-1.8870213688254356,0.9112786130454391,1.5508955632925032
1761391660871046700,5.593046630859375,-1.3084481584101915,0.6500531501960009,1.4956146978363394
1761391660881112800,5.60311279296875,-0.3611404198020696,0.17918394317440686,1.2211378314867616
1761391660891179800,5.6131796875,0.5064730198442936,-0.18349428065419196,0.8948517213143408
1761391660901245700,5.62324560546875,1.154039686986804,-0.4112215246580541,0.6589657207742333
1761391660911311600,5.6333115234375,1.620662342479825,-0.5489383889995515,0.4117886570215225
1761391660921377500,5.64337744140625,2.07935128236413,-0.45061384304352103,0.25454773865118624
1761391660931443700,5.653443603515625,2.7855250367760656,-0.2745077729444951,0.5407895693354309
1761391660941509600,5.663509521484375,3.48289881413877,-0.3209039787426591,0.9285977774411439
1761391660951575800,5.673575927734375,4.095219395855069,-0.526544843949005,1.1480296329170465
1761391660961641700,5.683641845703125,4.700511686369777,-0.7968317843280732,1.1963513268850743
1761391660971708700,5.693708740234375,5.17641654947102,-1.0794940029598772,1.252795244771242
1761391660981774800,5.70377490234375,5.551635178986191,-1.274609455563873,1.4240955220237372
1761391660991840500,5.713840576171875,5.720525180226564,-1.4050326557658612,1.5984699460245668
1761391661001906700,5.72390673828125,5.775847254475951,-1.4017482272677122,1.5713905081801116
1761391661011972600,5.73397265625,5.829407579749822,-1.2556120557576418,1.425300075507909
1761391661022038800,5.744038818359375,5.4897845797508955,-1.2320935252651573,1.1140222955055534
1761391661032104700,5.754104736328125,4.835905660721659,-1.122707560133934,0.7104474862083793
1761391661042171600,5.764171630859375,4.304386462426185,-0.5298706273708492,0.5698724559567868
1761391661052237800,5.77423779296875,3.4915456464529036,0.195817682589218,0.6738662066556513
1761391661062303700,5.7843037109375,2.216992158859968,0.47791671438030897,0.5862928448818624
1761391661072370000,5.794369873046875,0.05548749394416809,0.5355844019077718,0.12588467998951672
1761391661082435600,5.804435546875,-3.3180010974049567,0.9075875034425407,-0.7349025668986141
1761391661092501800,5.814501708984375,-6.637604369309544,1.6464710297361016,-1.4433267305858433
1761391661102567700,5.824567626953125,-10.15296285302639,2.471746964390576,-1.620527902445197
1761391661112634600,5.834634521484375,-13.668932162117958,3.3367502215385434,-1.5582903497189282
1761391661122700800,5.84470068359375,-16.77127040119171,3.8430087218493223,-1.2506462500438094
1761391661132766700,5.8547666015625,-19.771939240860938,3.752254099690914,-1.4583042272262274
1761391661142832600,5.86483251953125,-22.29527113879919,3.3323201301366088,-2.228995023603737
1761391661152898800,5.87489892578125,-23.70025367181301,2.9575141730755568,-3.106758393603563
1761391661162964700,5.88496484375,-24.040917705297467,2.7472844457089898,-4.0697099838063115
1761391661173030700,5.89503076171875,-22.99980940096378,2.5833152419969436,-4.907123807761073
1761391661183097600,5.90509765625,-19.891848061311244,1.749468024482578,-5.228378791898488
1761391661193163500,5.91516357421875,-15.060469522625207,0.12427485190639272,-5.2353568142175675
1761391661203229700,5.925229736328125,-10.307307027041912,-2.4646079062908886,-6.085306002357601
1761391661213295600,5.935295654296875,-6.141510120138526,-5.647102801141142,-8.781091731497645
1761391661223361800,5.94536181640625,-3.202295573863387,-7.0393965329736465,-10.936568222165107
1761391661233427700,5.955427734375,-2.108417217850685,-7.68777860815227,-11.771038686144351
1761391661243494000,5.965493896484375,-1.2787345726698636,-5.68078938216567,-9.881010536718367
1761391661253560800,5.975560791015625,0.2188420728892088,-2.4947283192664385,-5.650663123971223
1761391661263626800,5.985626708984375,1.904475192451477,-0.2665918487207964,-1.2996736080631612
1761391661273692700,5.995692626953125,3.615228140223026,1.4714765741407871,1.9882465315937994
1761391661283758600,6.005758544921875,5.040125918540358,3.08465440608412,4.036750548012554
1761391661293824800,6.01582470703125,6.121589614138006,3.699196755503118,5.316309004285931
1761391661303890700,6.025890625,7.120252861452102,3.4999797127991914,6.323074894034862
1761391661313956900,6.035956787109375,8.007334387156368,3.3522388825714584,7.1107631485730405
1761391661324023800,6.04602392578125,8.897423862504958,2.9217288662061094,7.256710665643214
1761391661334089700,6.05608984375,9.68717547931373,2.4275766910135745,6.909635596072674
1761391661344156000,6.066156005859375,10.285691407561302,2.00957193595618,6.4994567123353475
1761391661354221800,6.076221923828125,10.989336520278453,1.5230287744626403,6.095437520271539
1761391661364287500,6.08628759765625,11.929956159424782,1.0511503173332661,5.787073581889271
1761391661374353700,6.096353759765625,12.693014415097236,0.6641716188542545,5.607912362003326
1761391661384419600,6.106419677734375,13.21781921044588,0.47120377273820335,5.415414106160402
1761391661394485800,6.11648583984375,13.689091153049468,0.46616175998300313,5.154856459569931
1761391661404552700,6.126552734375,13.918891257804631,0.4625791522558778,5.039236860746145
1761391661414618600,6.13661865234375,13.651472493273019,0.31231172615997493,4.864269000896811
1761391661424684800,6.146684814453125,13.028254085445404,0.1468554987605661,4.636933532689511
1761391661434750700,6.156750732421875,12.28018881624341,0.07507233824953437,4.39056018653512
1761391661444816600,6.166816650390625,11.452156276357174,-0.050531625102460384,4.1209678773567076
1761391661454882600,6.176882568359375,10.619359883069992,-0.04476400148645043,3.834198223406076
1761391661464948700,6.18694873046875,9.834873054921626,0.12909297451153398,3.605097499091923
1761391661475015700,6.197015625,9.122301123905181,0.2753735229283571,3.439953406381607
1761391661485081600,6.20708154296875,8.525418934339285,0.38053039912246167,3.380812066105008
1761391661495147500,6.2171474609375,8.11814863152504,0.45247583752311765,3.390868180695176
1761391661505213400,6.22721337890625,7.897670481866598,0.5440441872172057,3.3464068154171107
1761391661515279600,6.237279541015625,7.797349574461579,0.7374035899341106,3.314206381297111
1761391661525345500,6.247345458984375,7.436717688703537,0.9855184459935873,3.3249387877136467
1761391661535411700,6.25741162109375,6.414798068964481,1.226161212606728,3.160328948010504
1761391661545478700,6.267478759765625,5.05108921110332,1.6349509800732134,2.798484763853252
1761391661555544600,6.277544677734375,4.393147280418873,2.2797090195357796,2.8393419671595095
1761391661565610800,6.28761083984375,4.36185782366395,2.9172458755731583,2.8549510397017
1761391661575676700,6.2976767578125,4.109531414324045,3.451773608034849,2.5075930615365505
1761391661585742600,6.30774267578125,3.5827620409041643,3.9577059451311825,1.9672262476578353
1761391661595808500,6.31780859375,2.805724359717965,4.048552337226272,1.1707428383760154
1761391661605874400,6.32787451171875,1.9732021071970463,3.5802260926857588,-0.4407371036082506
1761391661615941600,6.337941650390625,1.412925016450882,2.8802964933604,-2.3837153374552726
1761391661626007600,6.348007568359375,-0.08541267660856247,1.815637948221713,-4.2196933322638275
1761391661636073500,6.358073486328125,-3.975623879137635,0.5090870748002082,-5.708480522167682
1761391661646139600,6.3681396484375,-10.180392127221822,-0.2987953881133348,-5.713417394047975
1761391661656205600,6.37820556640625,-18.078647130978105,0.2634794523213059,-4.5205178150519725
1761391661666271700,6.388271728515625,-26.58097861971855,2.3426047439098356,-3.9367502508640286
1761391661676337400,6.39833740234375,-32.50112387049198,5.3345209528028965,-3.9467987666696307
1761391661686404400,6.408404296875,-35.34520163400173,6.930144131094217,-3.602980360807478
1761391661696470500,6.418470458984375,-35.834843930554385,6.994525710111856,-4.0779152098327875
1761391661706536400,6.428536376953125,-34.70749994279146,6.304032339912653,-5.131405441355705
1761391661716602600,6.4386025390625,-31.95633777886629,4.581262206611037,-6.488969805112481
1761391661726668500,6.44866845703125,-27.191481338357924,2.215869000048935,-7.477922390273213
1761391661736734700,6.458734619140625,-21.254896993958948,-0.26994265698604286,-7.742047373956441
1761391661746800600,6.468800537109375,-15.66510013436079,-2.5517270945563912,-7.573097751483321
1761391661756867600,6.47886767578125,-11.0733217944324,-4.250371379122138,-6.968324516406655
1761391661766933800,6.488933837890625,-7.712719572663307,-5.18999382392466,-5.981228372767568
1761391661776999400,6.49899951171875,-5.439148617491126,-5.438256052565574,-5.094366627293825
1761391661787065600,6.509065673828125,-3.484810200718045,-4.987722946608066,-3.89745167517662
1761391661797131500,6.519131591796875,-1.5689929455190896,-4.329600983181596,-2.3603557969167825
1761391661807197700,6.52919775390625,0.07016600763797759,-3.5722573057636615,-0.6208392576061189
1761391661817263600,6.539263671875,1.2589981910645962,-2.569600020377338,0.9623106619507074
1761391661827330600,6.54933056640625,2.6138947969168425,-1.62280242324844,2.3714666812568903
1761391661837396700,6.559396728515625,4.136443971168995,-0.8091820742700249,3.4021450692519544
1761391661847462700,6.569462646484375,5.546510675579309,0.009990154948178679,3.947449339532852
1761391661857528600,6.579528564453125,7.013184233352542,0.8183206356238574,4.1781294419929385
1761391661867594500,6.589594482421875,8.519258073621987,1.2993319550186395,4.344672880107164
1761391661877660400,6.599660400390625,9.596196985271572,1.28193073836267,4.247448769673705
1761391661887726600,6.6097265625,10.236189417767525,0.8712527459967881,3.724676356935501
1761391661897793500,6.61979345703125,10.792690497106314,0.37530718458145856,2.995224018266797
1761391661907859500,6.629859375,11.333451570999621,0.009437653898261487,2.4286656552940604
1761391661917925600,6.639925537109375,11.789778457927703,-0.11019717191625386,2.250636946569383
1761391661927991600,6.649991455078125,11.973762567925453,0.06455686251930892,2.3298719574563203
1761391661938057700,6.6600576171875,11.965927636516094,0.5381628375610337,2.6713144279673693
1761391661948123600,6.67012353515625,11.992026538890599,1.1586115249469875,3.370591116341948
1761391661958189600,6.680189453125,11.978289105439185,1.599901001740992,3.988645857796073
1761391661968256500,6.690256591796875,11.697400618481636,1.8243632525995372,4.293351273670792
1761391661978322400,6.700322509765625,11.194665031599998,2.070659587994963,4.344098879611492
1761391661988388600,6.710388671875,10.596325044441222,2.2169522652409968,4.213939591042697
1761391661998454500,6.72045458984375,9.894991131275892,2.1063217068761584,3.9021997464865446
1761391662008520700,6.730520751953125,9.163535636091233,1.9265856097117064,3.319141499611735
1761391662018586600,6.740586669921875,8.58941589795351,1.7514463388182222,2.5890035167664287
1761391662028652500,6.750652587890625,8.575394386863708,1.564877911415696,1.9616855646654963
1761391662038719700,6.7607197265625,8.950590220025182,1.302843908662349,1.4765603071458637
1761391662048785700,6.77078564453125,9.208546744206547,1.0360066703457385,1.0055367132801563
1761391662058851600,6.7808515625,9.421777991476654,0.8529912592496722,0.4726006339240819
1761391662068917500,6.79091748046875,9.525581480300426,0.7328977298822253,0.09024652650579809
1761391662078983400,6.8009833984375,9.404053534215688,0.7395544112924486,-0.16889475048072636
1761391662089049600,6.811049560546875,9.009137686061859,0.8227641710292547,-0.32442309277951714
1761391662099115500,6.821115478515625,8.543241591277718,1.045353540688008,-0.4938903093859553
1761391662109182700,6.8311826171875,8.044534529259801,1.3804926732711493,-0.8056253316365182
1761391662119248600,6.84124853515625,7.2817153430402275,1.7624907337933777,-1.199248948022723
1761391662129314600,6.851314453125,6.063101184812187,2.359458994207531,-1.3836318480797112
1761391662139380700,6.861380615234375,4.652958492556214,3.031432811245322,-1.4713491483688355
1761391662149446400,6.8714462890625,3.287615896013379,3.5490450647413727,-1.6077143058404326
1761391662159512600,6.8815126953125,2.17015851149261,3.8586066884756085,-1.864461454232037
1761391662169578500,6.89157861328125,1.7690706967055796,3.5288957184210417,-2.1090089001335204
1761391662179645400,6.9016455078125,2.1944635161876676,2.7512068798497316,-2.5876611622467633
1761391662189711600,6.911711669921875,2.3780437215596435,2.0706280238129198,-3.6487148147612807
1761391662199777500,6.921777587890625,1.5906997504144906,1.0656325047373771,-4.645917926394939
1761391662209843700,6.93184375,-1.3231792790740728,-0.5303861026123166,-4.678575164371729
1761391662219909600,6.94190966796875,-7.223816696301102,-1.524953605045378,-3.5496272485435005
1761391662229975600,6.9519755859375,-14.810434439092873,-0.7534304494969546,-2.1497052137896415
1761391662240041500,6.96204150390625,-21.82596085165739,0.9905240722611546,-0.6925695919513702
1761391662250108400,6.9721083984375,-26.94657601892948,2.613881937435269,0.051203825275599954
1761391662260174600,6.982174560546875,-28.733910686600208,2.285169038507342,-1.1992673604622484
1761391662270240500,6.992240478515625,-27.447501926040648,-0.24158801157400012,-4.026818059802055
1761391662280306700,7.002306640625,-24.925313352918625,-4.023474886853993,-7.545411872178316
1761391662290372600,7.01237255859375,-21.784441092789173,-6.805394300353527,-10.701693298363685
1761391662300438500,7.0224384765625,-17.487480396449566,-7.30966776432693,-11.930461186337471
1761391662310504700,7.032504638671875,-13.893245944416522,-6.172422560274601,-10.621720182460546
1761391662320571600,7.042571533203125,-12.107428695571421,-3.7397561449065804,-6.76974840195477
1761391662330637600,7.052637451171875,-10.780099895602463,-2.444668841720372,-2.990576484721899
1761391662340703500,7.062703369140625,-10.322530315136909,-2.598058053098619,-1.2735345198087393
1761391662350769400,7.072769287109375,-10.362118813681603,-2.3008580444179474,-0.39262393782436844
1761391662360835600,7.082835693359375,-9.879359846901894,-1.6532281027808784,0.5556972156099975
1761391662370901500,7.092901611328125,-8.927125173285603,-0.7854744509462267,1.4091427214331924
1761391662380967700,7.1029677734375,-8.1143989236027,0.3339092619946226,1.9729436023913323
1761391662391034600,7.11303466796875,-6.897391031527519,1.9295795308306811,2.4132889302030205
1761391662401100500,7.1231005859375,-4.883337858504056,3.0018475280597805,3.1061943299800157
1761391662411166700,7.133166748046875,-2.061250977528095,3.1516955596998333,3.8736309468671677
1761391662421232400,7.143232421875,0.7351251236081123,3.0115266260311007,4.39720824624747
1761391662431298600,7.153298583984375,3.0461808830440043,2.6344790275231,4.391440476500987
1761391662441364500,7.163364501953125,5.146712900602817,2.1764545428968964,3.974720792818069
1761391662451430700,7.1734306640625,6.8046507885098455,1.5026754300028085,3.501340479758382
1761391662461498400,7.183498291015625,7.988460759860277,0.7566459044121205,3.041513183493912
1761391662471564300,7.193564208984375,8.966852788040041,0.05929057602155953,2.5911653709754345
1761391662481630200,7.203630126953125,9.779985864958167,-0.5126194136448204,2.1540493804737926
1761391662491696000,7.213696044921875,10.219904637920855,-0.9047213003564626,1.8454947418250143
1761391662501762000,7.223761962890625,10.36199138790965,-1.04041213876307,1.581723978406936
1761391662511828200,7.233828125,10.223698184984922,-0.9281656696341931,1.4693611894220113
1761391662521894100,7.24389404296875,10.02153427517414,-0.7227195963475853,1.3906959412470459
1761391662531961000,7.253961181640625,9.978778837031125,-0.4935587758766487,1.2677654348880052
1761391662542027300,7.26402734375,10.065012182372808,-0.4464505858842283,1.262948389995098
1761391662552093200,7.27409326171875,10.044421814286709,-0.5561331593418494,1.2310036842018366
1761391662562159400,7.284159423828125,9.867225172471999,-0.5628673995003104,1.11838100217171
1761391662572225000,7.29422509765625,9.467439087933302,-0.5044654428815469,0.875069162479788
1761391662582291200,7.304291259765625,8.942915447613597,-0.47157899925876406,0.532686780770123
1761391662592357000,7.314357177734375,8.608564835059642,-0.4503376564506441,0.35062596698515114
1761391662602424000,7.324424072265625,8.46046861552298,-0.4416775627961382,0.34675160976983604
1761391662612490200,7.334490234375,8.496640583622455,-0.3288283420011401,0.3967813497647643
1761391662622556200,7.34455615234375,8.66265532168746,-0.30191235109008846,0.5217028107453138
1761391662632622300,7.354622314453125,8.870403753632306,-0.5051993101140484,0.6602377134714276
1761391662642688300,7.364688232421875,8.756681512862443,-0.6510995174437761,0.7718772296831011
1761391662652754400,7.37475439453125,8.344564354538917,-0.7188686930730939,0.8007466196842491
1761391662662820000,7.384820068359375,7.9225436418384305,-0.7532715326081961,0.9014329994007945
1761391662672887000,7.394886962890625,7.475083951976895,-0.900021232906729,0.9593998890705406
1761391662682953200,7.404953125,7.235062897458672,-1.1174120840743182,0.9282490370687096
1761391662693019100,7.41501904296875,7.250478493255376,-1.3570422395788133,0.8406858313627541
1761391662703085300,7.425085205078125,7.376573893386126,-1.6305965842559933,0.5639488380614668
1761391662713151200,7.435151123046875,7.551269366034865,-1.598309933157265,0.005579553698003292
1761391662723217200,7.445217041015625,7.5920643177598715,-1.3866222620673476,-0.42918461298048494
1761391662733283300,7.455283447265625,7.39200702483952,-1.3033907288901507,-0.5638493232097477
1761391662743350300,7.465350341796875,6.397384577348828,-0.7732168077237903,-1.0078418484173715
1761391662753416200,7.475416259765625,4.343241970521212,-0.014972802198957651,-1.570332961951196
1761391662763482000,7.485482177734375,1.8895318903416394,0.45245022815782576,-1.7778697969719766
1761391662773548000,7.495548095703125,-0.4028764517694711,0.5295021959172561,-1.4160655064336956
1761391662783614200,7.5056142578125,-3.1839725661873817,0.0736282221221365,-0.7489848682649434
1761391662793680100,7.51568017578125,-6.6524675919204945,-0.6196371152747422,0.275762686642725
1761391662803746300,7.525746337890625,-10.983556767833232,-0.9483283138275146,1.271521864812076
1761391662813813200,7.535813232421875,-15.626893445563315,-0.5552481566682458,2.0214342231854796
1761391662823879200,7.545879150390625,-19.61187610467672,1.0690813300170003,1.97670105522871
1761391662833945300,7.5559453125,-22.34989587843418,2.6269956860303876,1.795140957507491
1761391662844011300,7.56601123046875,-22.692811490237712,3.0864743149876595,1.7792504376754164
1761391662854077200,7.5760771484375,-21.742661806201934,2.6293761514261362,1.6969456639543175
1761391662864143000,7.58614306640625,-19.997747061109543,1.7560418499149382,0.9241865368701517
1761391662874209300,7.596209228515625,-17.593465905487538,1.0120375465415417,-0.3028294659350067
1761391662884276200,7.606276123046875,-14.965524463039635,0.4056574607901275,-1.0861436701074243
1761391662894342100,7.616342041015625,-12.277926716530322,-0.5006666716530919,-1.4673928119584918
1761391662904408300,7.626408203125,-9.911993704003095,-1.372991357730329,-1.945619103744626
1761391662914474200,7.63647412109375,-7.9805264597296715,-1.8007292790338396,-2.190188615347445
1761391662924540200,7.6465400390625,-6.106061790138483,-1.8335963603690266,-2.086071092138439
1761391662934606300,7.6566064453125,-4.324108230984211,-1.711816193088889,-1.8504966417655349
1761391662944672000,7.666672119140625,-2.8163591509789225,-1.2686273124143481,-1.3542068700224161
1761391662954739200,7.6767392578125,-1.941651953679323,-0.5181252445194869,-0.5448500237073749
1761391662964805000,7.68680517578125,-2.3480735307097436,0.4834594797318801,0.002727452202513814
1761391662974871000,7.69687109375,-3.291606426954269,0.8090481456920504,0.33909291171021755
1761391662984937200,7.706937255859375,-2.3506232151925563,0.6391517438881099,1.5387478832505643
1761391662995003100,7.717003173828125,-1.280509181126952,0.2755547977793962,1.972041392854601
1761391663005069300,7.7270693359375,0.38492987619042396,0.6118270991109311,0.7814488486919552
1761391663015135200,7.73713525390625,2.394664016970992,0.5075065276104956,-0.6118271721761673
1761391663025202200,7.7472021484375,3.882194484812021,-0.22245171475373207,-0.9390987131893634
1761391663035268400,7.757268310546875,4.867940967407822,-0.7068889169439673,-0.9093636462695897
1761391663045334000,7.767333984375,5.4842357134521,-0.620782120591402,-1.0335513130828737
1761391663055400200,7.777400146484375,5.761735727015138,0.08008322521410882,-0.8392707769330591
1761391663065466000,7.787466064453125,5.749462520897388,0.5190497389532626,-0.5515304878519848
1761391663075532300,7.7975322265625,5.539717946699262,0.7618884081754833,-0.12540922623118386
1761391663085598200,7.80759814453125,5.322449406737089,1.247789399307966,0.2921664532265626
1761391663095665200,7.8176650390625,4.956729257929325,1.645676518357545,0.5333638763140887
1761391663105731300,7.8277314453125,4.628768638673424,2.0581028887607156,0.5615151446411386
1761391663115797200,7.83779736328125,4.474152661979198,2.380446252656728,0.7572058033172041
1761391663125863400,7.847863525390625,4.349724902799725,2.0623536780729887,0.6566190845828503
1761391663135929000,7.85792919921875,4.110220565631986,1.249700639756769,-0.4043303038395941
1761391663145995300,7.867995361328125,3.9761750832796094,0.025860271313041448,-1.8368759665615855
1761391663156061200,7.878061279296875,3.8767064087897536,-1.0311986124768853,-2.714096461856365
1761391663166128000,7.888128173828125,3.447176343372464,-1.1942496784307062,-3.220432411317527
1761391663176194300,7.8981943359375,2.4945658221811056,-0.801659789006412,-3.1876147220820186
1761391663186260200,7.90826025390625,2.1810148365497586,0.11053484290540218,-1.5717472126632928
1761391663196326100,7.918326171875,1.717044156870246,0.8745261416442692,-0.13081358775906263
1761391663206392300,7.928392333984375,1.0133914453685282,1.3639173860453069,0.6720159756790847
1761391663216458200,7.938458251953125,-0.4897288057923317,1.4784092960134148,0.5761948639113456
1761391663226524200,7.948524169921875,-1.7839724977612494,1.5355578550375997,-0.22077015487495807
1761391663236591000,7.958591064453125,-1.6820529229879377,1.4332707621261476,-0.4699735002908855
1761391663246657000,7.968656982421875,-0.8428279579579829,1.2268430573910474,0.08987762012816965
1761391663256723200,7.97872314453125,-0.48309331330060956,1.151169392247498,0.301390957564488
1761391663266789000,7.9887890625,-0.20418694007098673,1.2822294290482996,0.24894747095871717
1761391663276855300,7.998855224609375,0.26781156324148175,1.283896193216741,0.3322408173257485
1761391663286921200,8.008921142578124,0.6808867529422045,1.317378776101768,0.4232131008228287
1761391663296987400,8.0189873046875,0.8206605498135089,1.1508696786485613,0.2093140372937545
1761391663307053000,8.029052978515624,0.8647638954341411,0.872646611507982,-0.3270544276637956
1761391663317119200,8.039119140625,0.9669786537617444,0.5660949832446873,-0.5777060721918941
1761391663327185200,8.04918505859375,1.0675509055793284,0.4133876166507601,-0.25866847184300423
1761391663337252000,8.059252197265625,1.0233774173319339,0.5216216352678835,0.21009273004867135
1761391663347318300,8.069318359375,0.8266904776275158,0.6260415024243294,0.42022425773777067
1761391663357384200,8.07938427734375,0.6700923872053622,0.6056745678305625,0.38783553450405595
1761391663367450000,8.0894501953125,0.6309621538221836,0.5257701332494616,0.3350957318328321
1761391663377516300,8.099516357421875,0.7051052483975887,0.35888241174221036,0.3038097091440111
1761391663387582200,8.109582275390625,0.7677712556689977,0.19621566893085837,0.13190832419320941
1761391663397648100,8.119648193359374,0.6419149249911308,-0.023929887772351503,-0.1431318020623177
1761391663407715300,8.12971533203125,0.48908290910422797,-0.14789675144180656,-0.17781652727872133
1761391663417781000,8.139781005859374,0.36347909188270566,0.002355330954492092,0.10857150694318116
1761391663427847200,8.14984716796875,0.3077998747587204,0.12442775917947292,0.34397776114232836
1761391663437913000,8.1599130859375,0.30413024633526803,0.08318097203373909,0.46448385336603965
1761391663447979300,8.169979248046875,0.11100772111415863,0.0640071927472949,0.37667613484710455
1761391663458045200,8.180045166015624,-0.17261048306822777,0.04759133386686444,0.16128785567358137
1761391663468110800,8.19011083984375,-0.22423779445290565,0.007182020458579063,-0.08279409160800277
1761391663478177800,8.200177734375,-0.01315349608361721,0.06111936235129833,-0.14831760720238088
1761391663488243700,8.21024365234375,-0.0096726682305336,0.06954349182546138,-0.1619863593317568
1761391663498310000,8.220309814453126,-0.18645546854734418,0.056629941977560515,-0.36872437212504444
1761391663508375800,8.230375732421875,-0.1413385619699955,0.12303542803823947,-0.42088929751776155
1761391663518442000,8.24044189453125,-0.21904431746304034,0.09204758457839489,-0.28916100606657563
1761391663528508000,8.2505078125,-0.2889724246919155,0.11905074231624603,-0.25270079561024905
1761391663538574000,8.260573974609375,-0.05088906023800373,0.27244185339063404,-0.23237587352730332
1761391663548641000,8.27064111328125,0.5947632977157831,0.21808424025923012,-0.07458207051455974
1761391663558706700,8.280706787109375,0.6503419770747423,0.15730156251639127,-0.14384404198490083
1761391663568772900,8.29077294921875,0.3923258316606283,0.2871720972716808,-0.22659926288723944
1761391663578838800,8.3008388671875,0.06110474930405616,0.019987726017832753,-0.34991153510548173
1761391663588905000,8.310905029296874,-0.36697453278303144,-0.1580006506964564,-0.7675617776367812
1761391663598971000,8.320970947265625,-0.5069616801440715,-0.2919105239704251,-0.9710144120838492
1761391663609036800,8.331036865234376,-0.20130700072050092,-0.20173867013603447,-0.7792221856184304
1761391663619104000,8.34110400390625,0.28673779750764367,-0.023247312335669994,-0.5072721343327313
1761391663629170000,8.351169921875,0.767194332563877,-0.05256722258329391,-0.1565800433088094
1761391663639236000,8.361236083984375,1.0435814164489507,-0.20989771893322468,0.009687281277775763
1761391663649301800,8.3713017578125,0.9651111063241958,-0.3440887472361326,-0.08164850176945328
1761391663659367700,8.38136767578125,0.600211041727662,-0.2467158759817481,-0.16437310833781957
1761391663669433900,8.391433837890625,0.18043197047412393,-0.14983385698422788,-0.17145064550861716
1761391663679500800,8.401500732421875,-0.25639701977968216,-0.17370193156674504,-0.12772837162744252
1761391663689567000,8.41156689453125,-0.6124526836633681,-0.25647943736612794,-0.23378080842178314
1761391663699633000,8.4216328125,-0.5749596960932016,-0.30286563322693105,-0.3553297607619315
1761391663709698800,8.43169873046875,-0.20991993076503276,-0.37642508269548414,-0.30124738437533377
1761391663719765000,8.441764892578124,0.04839198272526264,-0.49462929118499155,-0.2362447143172845
1761391663729831000,8.451830810546875,0.08938976354598999,-0.45657457807883617,-0.2875581739798188
1761391663739897900,8.46189794921875,0.023427052816748617,-0.37543081096112724,-0.26085798124391585
1761391663749963800,8.4719638671875,-0.07154840190708636,-0.34896059105619787,-0.2185830200942233
1761391663760029700,8.48202978515625,-0.3619698563635349,-0.23472061002254485,-0.21426157669853418
1761391663770095900,8.492095947265625,-0.7120972992420196,-0.14063216726630925,-0.19821276103220878
1761391663780161800,8.502161865234376,-0.7391355282932519,0.0006530570812523364,-0.022547749231569467
1761391663790228000,8.51222802734375,-0.5023123930335045,0.2083924289368093,0.2139761838858947
1761391663800295000,8.522294921875,-0.23571838888823984,0.23879677342027425,0.32241482169702645
1761391663810360800,8.53236083984375,0.013187398353219032,0.13357128896936774,0.3603277882449329
1761391663820427000,8.542427001953126,0.18933190076649187,0.05758680431097746,0.17437252430468797
1761391663830493000,8.552492919921875,0.24613047730922696,-0.08339782965481281,-0.001426443473389372
1761391663840558800,8.562558837890625,0.1214572189360857,-0.12207155144214629,-0.06322571438024752
1761391663850624800,8.572624755859374,-0.13483107977211475,-0.07317731828317045,0.05831719181160442
1761391663860691000,8.58269091796875,-0.40030513997673983,-0.07393354347795247,0.16957854976011438
1761391663870758000,8.5927578125,-0.44868134061098097,0.03380567735955119,0.088744971969584
1761391663880823800,8.60282373046875,-0.32142566452920435,0.17827961474582552,0.14467704047663135
1761391663890890000,8.612889892578124,-0.2995505173295736,0.19631971382722258,0.211016566895321
1761391663900956000,8.622955810546875,-0.3731698802918196,0.2944853428944945,0.272954771348834
1761391663911021800,8.633021728515626,-0.18411855003237723,0.25060996081084014,0.26974475979376583
1761391663921088000,8.643087890625,0.11502923171520232,0.01323605980053544,0.08766993574975059
1761391663931153700,8.653153564453126,0.2194166579067707,-0.029986265201866626,-0.1035020855912473
1761391663941220900,8.663220947265625,0.15395897409021853,-0.03377484382987022,-0.25218482717843727
1761391663951286800,8.673286865234376,0.10170739332735537,-0.14559665780588985,-0.25970784309441225
1761391663961352700,8.683352783203125,0.1478168180733919,-0.1402450676448643,-0.162538860381674
1761391663971419000,8.6934189453125,0.20246201597452163,-0.06602189357057213,-0.03076511778698768
1761391663981484800,8.70348486328125,0.1651893931567669,-0.06006634616702795,0.0010899894770816899
1761391663991551000,8.713551025390625,0.07240414195358753,0.012199117968231438,0.028635640610777773
1761391664001617000,8.723616943359374,0.05259060345888138,0.0385043565697968,0.10442825139230116
1761391664011683800,8.733683837890625,0.16461656170487404,0.05599573572725057,0.13148881100635043
1761391664021750000,8.74375,0.06205109024345874,0.08203501686900853,-0.04120834569833241
1761391664031815700,8.753815673828125,-0.09555763852596283,-0.018368746513873338,-0.1829950258951634
1761391664041881900,8.7638818359375,-0.09280044877231121,-0.06894581819325685,-0.11116392545602284
1761391664051947800,8.77394775390625,-0.06256780759394169,-0.07218085459172725,-0.0915447861554101
1761391664062014000,8.784013916015626,0.03977028485238552,-0.06159618608281016,-0.07780892360657453
1761391664072081000,8.794080810546875,0.162356215557456,-0.05631634598374367,-0.08858162550088018
1761391664082146800,8.804146728515626,0.22249065852463243,0.028919220492243766,0.016070391602249583
1761391664092213000,8.814212890625,0.31159575991034505,0.006508797372132539,0.07305656428060028
1761391664102279000,8.82427880859375,0.4558300433218479,-0.0283894975297153,0.06379393815568182
1761391664112345000,8.834344970703125,0.5082751008301973,0.0003368307389318943,0.12611203160514123
1761391664122410800,8.84441064453125,0.7062251923382282,0.009363163889944553,0.41905700405668467
1761391664132477000,8.854476806640625,0.5564613318502902,0.0323489026799798,0.5800543888837099
1761391664142544000,8.8645439453125,-0.062411740249395366,0.9194222450777888,-0.09057679050662554
1761391664152609800,8.87460986328125,0.36267362071871756,0.6263149125382304,-0.3888180062027648
1761391664162676000,8.884676025390625,0.5310340451270341,-0.41601708837151524,-0.607558701076731
1761391664172742000,8.894741943359374,0.606645458689332,-0.3012776333831251,-0.6885633519846945
1761391664182807800,8.904807861328125,0.10538695862293243,-0.35832696981653567,-0.6172736010137945
1761391664192874000,8.9148740234375,-0.6130787066072225,-0.11522811528816819,-0.09261020516352728
