time,seconds_elapsed,z,y,x
1761391655344736800,0.06673681640625,0.15241727232933044,0.2244366556406021,0.037491075694561005
1761391655354802700,0.076802734375,0.15038688480854034,0.20329409837722778,-0.002491758670657873
1761391655364868600,0.08686865234375,0.14249277114868164,0.19394221901893616,-0.024725640192627907
1761391655374935600,0.096935546875,0.15071342885494232,0.1855950802564621,-0.05002540349960327
1761391655385001700,0.107001708984375,0.17761637270450592,0.160072922706604,-0.07996314018964767
1761391655395067600,0.117067626953125,0.20003166794776917,0.1393018662929535,-0.10032939910888672
1761391655405133800,0.1271337890625,0.21099239587783813,0.12591560184955597,-0.09802871197462082
1761391655415199700,0.13719970703125,0.2201819121837616,0.11273375153541565,-0.08312433212995529
1761391655425265700,0.147265625,0.2339451164007187,0.08525947481393814,-0.06088896095752716
1761391655435331800,0.157331787109375,0.25272783637046814,0.046052414923906326,-0.036002255976200104
1761391655445398800,0.167398681640625,0.2805488705635071,-0.003829021006822586,-0.03410489112138748
1761391655455465500,0.177465576171875,0.319929838180542,-0.043845415115356445,-0.07528961449861526
1761391655465531600,0.18753173828125,0.3612799346446991,-0.04776240885257721,-0.12319277226924896
1761391655475597300,0.197597412109375,0.42546212673187256,-0.017905177548527718,-0.1566290259361267
1761391655485663500,0.20766357421875,0.4254263937473297,0.004587039351463318,-0.20568647980690002
1761391655495729400,0.2177294921875,0.43541646003723145,0.0580366849899292,-0.23475781083106995
1761391655505795600,0.227795654296875,0.4385172724723816,0.13742102682590485,-0.25662922859191895
1761391655515862500,0.237862548828125,0.440694123506546,0.20072835683822632,-0.2775055170059204
1761391655525928400,0.247928466796875,0.4471142292022705,0.23614421486854553,-0.3199109733104706
1761391655535994600,0.25799462890625,0.4598636031150818,0.24533264338970184,-0.3630392551422119
1761391655546060500,0.268060546875,0.47622936964035034,0.17833559215068817,-0.39993715286254883
1761391655556126700,0.278126708984375,0.47670528292655945,0.05083329975605011,-0.38514968752861023
1761391655566192400,0.2881923828125,0.45571640133857727,-0.07234236598014832,-0.3388775587081909
1761391655576258300,0.29825830078125,0.42479097843170166,-0.19606909155845642,-0.30006250739097595
1761391655586325500,0.308325439453125,0.39081665873527527,-0.31436482071876526,-0.2906022369861603
1761391655596391400,0.318391357421875,0.3463522493839264,-0.39508256316185,-0.29030635952949524
1761391655606457300,0.328457275390625,0.3271430730819702,-0.3968149423599243,-0.28791019320487976
1761391655616523500,0.3385234375,0.320995956659317,-0.3243274390697479,-0.2991434335708618
1761391655626589400,0.34858935546875,0.31741711497306824,-0.20412836968898773,-0.3081274628639221
1761391655636655600,0.358655517578125,0.32805246114730835,-0.08531064540147781,-0.34255945682525635
1761391655646721500,0.368721435546875,0.34101682901382446,0.015836089849472046,-0.41360709071159363
1761391655656787500,0.378787353515625,0.34841111302375793,0.07737082242965698,-0.5116881132125854
1761391655666854400,0.3888544921875,0.32435858249664307,0.11543099582195282,-0.6328960061073303
1761391655676920300,0.39892041015625,0.2753308415412903,0.11193214356899261,-0.7071750164031982
1761391655686986500,0.408986572265625,0.20445041358470917,0.07581820338964462,-0.6791366338729858
1761391655697052400,0.419052490234375,0.13876274228096008,0.008351272903382778,-0.5723497867584229
1761391655707118600,0.42911865234375,0.09366191923618317,-0.07511457055807114,-0.43466994166374207
1761391655717184500,0.4391845703125,0.07395666092634201,-0.1697385609149933,-0.3316594064235687
1761391655727250700,0.449250732421875,0.06501910835504532,-0.2859543561935425,-0.2896929085254669
1761391655737317600,0.459317626953125,0.047978878021240234,-0.4131815433502197,-0.3001284897327423
1761391655747383600,0.469383544921875,0.023312661796808243,-0.5319893956184387,-0.3408374488353729
1761391655757449500,0.479449462890625,-0.014331653714179993,-0.6188982129096985,-0.3831692039966583
1761391655767515400,0.489515380859375,-0.05672513693571091,-0.6537426710128784,-0.36551257967948914
1761391655777581600,0.49958154296875,-0.08951210975646973,-0.6377021670341492,-0.30378928780555725
1761391655787647500,0.5096474609375,-0.11297877132892609,-0.5737301707267761,-0.22845414280891418
1761391655797713400,0.51971337890625,-0.12276189774274826,-0.4806939959526062,-0.17568546533584595
1761391655807780600,0.529780517578125,-0.1134268119931221,-0.3823363184928894,-0.14065590500831604
1761391655817846500,0.539846435546875,-0.09389466047286987,-0.3035341799259186,-0.12684181332588196
1761391655827912400,0.549912353515625,-0.09113168716430664,-0.2798430919647217,-0.11104769259691238
1761391655837978600,0.559978515625,-0.09283478558063507,-0.28348681330680847,-0.06754548847675323
1761391655848044300,0.570044189453125,-0.11461973935365677,-0.33034852147102356,0.0004925797693431377
1761391655858110500,0.5801103515625,-0.16325785219669342,-0.39394959807395935,0.09850995242595673
1761391655868176400,0.59017626953125,-0.21408872306346893,-0.4098515808582306,0.2353505939245224
1761391655878243300,0.600243408203125,-0.23873229324817657,-0.4269040822982788,0.3644973933696747
1761391655888309500,0.6103095703125,-0.2581730782985687,-0.4340306520462036,0.4513205885887146
1761391655898375400,0.62037548828125,-0.3097153604030609,-0.4589757025241852,0.48910820484161377
1761391655908441600,0.630441650390625,-0.3930443525314331,-0.43354806303977966,0.5024752020835876
1761391655918507500,0.640507568359375,-0.43504878878593445,-0.3454373776912689,0.4294782280921936
1761391655928573700,0.65057373046875,-0.3741677701473236,-0.1940414160490036,0.2643996477127075
1761391655938639400,0.660639404296875,-0.2341693639755249,-0.023325061425566673,0.07956961542367935
1761391655948706300,0.670706298828125,-0.049309343099594116,0.07300565391778946,-0.10532214492559433
1761391655958772500,0.6807724609375,0.12775251269340515,0.09764522314071655,-0.23025847971439362
1761391655968838400,0.69083837890625,0.2540072798728943,0.07778621464967728,-0.21074463427066803
1761391655978904600,0.700904541015625,0.29978621006011963,0.023614587262272835,-0.035097185522317886
1761391655988970500,0.710970458984375,0.27065134048461914,0.03729395568370819,0.2139720618724823
1761391655999036700,0.72103662109375,0.17227575182914734,0.13681389391422272,0.43280163407325745
1761391656009102600,0.7311025390625,0.09799007326364517,0.09175094217061996,0.5510956048965454
1761391656019169500,0.74116943359375,0.054935272783041,0.0450098030269146,0.5288720726966858
1761391656029235700,0.751235595703125,0.02288421243429184,0.017806172370910645,0.41738414764404297
1761391656039301400,0.76130126953125,0.007703929208219051,-0.0210884977132082,0.31967782974243164
1761391656049367600,0.771367431640625,0.027010653167963028,-0.059997137635946274,0.3095811605453491
1761391656059433500,0.78143359375,0.06210019439458847,-0.08716271072626114,0.35752445459365845
1761391656069499400,0.79149951171875,0.0908687487244606,-0.08271385729312897,0.3938421308994293
1761391656079565600,0.801565673828125,0.12359553575515747,-0.06433991342782974,0.38321453332901
1761391656089631500,0.811631591796875,0.1678556650876999,-0.03834080323576927,0.32410672307014465
1761391656099698400,0.821698486328125,0.21031956374645233,0.06409391760826111,0.2338133156299591
1761391656109764600,0.8317646484375,0.26497289538383484,0.36221882700920105,0.1849879026412964
1761391656119830500,0.84183056640625,0.3479473888874054,0.8194756507873535,0.17171524465084076
1761391656129896400,0.851896484375,0.5000866651535034,1.2289729118347168,0.15177485346794128
1761391656139962400,0.86196240234375,0.7394113540649414,1.4790019989013672,0.12630970776081085
1761391656150028500,0.872028564453125,1.0199592113494873,1.5817352533340454,0.13143128156661987
1761391656160094500,0.882094482421875,1.3155314922332764,1.5975632667541504,0.11718709021806717
1761391656170161400,0.892161376953125,1.588992953300476,1.5549596548080444,-0.06966602057218552
1761391656180227600,0.9022275390625,1.802785038948059,1.4150737524032593,-0.44452378153800964
1761391656190293500,0.91229345703125,1.8668965101242065,1.127815842628479,-0.8797836899757385
1761391656200359700,0.922359619140625,1.723164677619934,0.6747487783432007,-1.2504355907440186
1761391656210425600,0.932425537109375,1.3872487545013428,0.09824342280626297,-1.3705352544784546
1761391656220491500,0.942491455078125,0.8907374739646912,-0.44268718361854553,-1.1721539497375488
1761391656230557400,0.952557373046875,0.3481709957122803,-1.0303113460540771,-0.9252787232398987
1761391656240624400,0.962624267578125,-0.048001404851675034,-1.7937142848968506,-0.8716551661491394
1761391656250690600,0.972690673828125,-0.18158218264579773,-2.6738100051879883,-0.9720917344093323
1761391656260756500,0.982756591796875,-0.11914090812206268,-3.1847898960113525,-1.0061917304992676
1761391656270822400,0.992822509765625,0.004922715947031975,-3.0640242099761963,-0.7844057083129883
1761391656280888600,1.002888671875,0.15926781296730042,-2.515763998031616,-0.38791510462760925
1761391656290954500,1.01295458984375,0.3449047803878784,-1.777565598487854,-0.05775923281908035
1761391656301020400,1.0230205078125,0.4755999445915222,-1.0318719148635864,0.04491574689745903
1761391656311087600,1.033087646484375,0.4446086585521698,-0.42527419328689575,-0.03603605926036835
1761391656321153300,1.0431533203125,0.1893470734357834,-0.003484100103378296,-0.16492614150047302
1761391656331219500,1.053219482421875,-0.2782668471336365,0.040779683738946915,-0.3769424557685852
1761391656341285400,1.063285400390625,-0.840262770652771,-0.3694254159927368,-0.7392889261245728
1761391656351351600,1.0733515625,-1.3475688695907593,-1.0548452138900757,-1.1991413831710815
1761391656361417500,1.08341748046875,-1.719372272491455,-1.5989782810211182,-1.593165397644043
1761391656371483600,1.093483642578125,-1.954020619392395,-1.7077499628067017,-1.7123713493347168
1761391656381550600,1.103550537109375,-2.0731091499328613,-1.1864348649978638,-1.4334951639175415
1761391656391616500,1.113616455078125,-2.1438357830047607,-0.17154861986637115,-0.9116360545158386
1761391656401682700,1.1236826171875,-2.107940435409546,0.8271120190620422,-0.4243660271167755
1761391656411748400,1.133748291015625,-1.9807087182998657,1.6038349866867065,-0.05793458968400955
1761391656421814500,1.143814453125,-1.8413643836975098,2.0905637741088867,0.1663760095834732
1761391656431880400,1.15388037109375,-1.7117656469345093,2.3058719635009766,0.265667200088501
1761391656441946600,1.163946533203125,-1.5960965156555176,2.4108219146728516,0.3113883435726166
1761391656452013600,1.174013671875,-1.4160950183868408,2.3500728607177734,0.3738059103488922
1761391656462078500,1.184078369140625,-1.1989790201187134,2.0956315994262695,0.4200091063976288
1761391656472144600,1.19414453125,-0.9433764219284058,1.814296007156372,0.5145730376243591
1761391656482210600,1.20421044921875,-0.6357941031455994,1.5150675773620605,0.6928918957710266
1761391656492276700,1.21427685546875,-0.28365689516067505,1.3460056781768799,0.9308240413665771
1761391656502342700,1.2243427734375,0.0690883994102478,1.1890448331832886,1.123474359512329
1761391656512408800,1.234408935546875,0.38366490602493286,1.1215871572494507,1.2609819173812866
1761391656522474500,1.244474609375,0.6257590055465698,1.0702364444732666,1.3175545930862427
1761391656532541400,1.25454150390625,0.7775405049324036,1.0163848400115967,1.306985855102539
1761391656542607600,1.264607666015625,0.8807191252708435,0.9930699467658997,1.2071759700775146
1761391656552673500,1.274673583984375,0.9551365971565247,0.9599644541740417,1.0375089645385742
1761391656562739700,1.28473974609375,1.030367374420166,0.9091718196868896,0.8629552721977234
1761391656572805600,1.2948056640625,1.1087746620178223,0.8402851223945618,0.7220654487609863
1761391656582871600,1.30487158203125,1.1995623111724854,0.7935130596160889,0.6045838594436646
1761391656592937700,1.314937744140625,1.3004233837127686,0.7577741742134094,0.4620443284511566
1761391656603004700,1.325004638671875,1.4218839406967163,0.6531721353530884,0.261968731880188
1761391656613070800,1.33507080078125,1.5455385446548462,0.46814221143722534,0.04572012647986412
1761391656623136500,1.345136474609375,1.6507946252822876,0.20212143659591675,-0.142645001411438
1761391656633202400,1.355202392578125,1.7477048635482788,-0.05184401571750641,-0.31494808197021484
1761391656643268600,1.3652685546875,1.810818076133728,-0.26647695899009705,-0.4354332387447357
1761391656653334500,1.37533447265625,1.8166886568069458,-0.4493699073791504,-0.4761464297771454
1761391656663400700,1.385400634765625,1.738351821899414,-0.6054452657699585,-0.41717392206192017
1761391656673466600,1.395466552734375,1.590596318244934,-0.7068068981170654,-0.2954230010509491
1761391656683533600,1.405533447265625,1.427117943763733,-0.7378556132316589,-0.19551478326320648
1761391656693599700,1.415599853515625,1.2728564739227295,-0.6903539299964905,-0.1847342848777771
1761391656703665700,1.425665771484375,1.1169360876083374,-0.5347965359687805,-0.2930687367916107
1761391656713731600,1.435731689453125,0.9560344219207764,-0.2916167974472046,-0.48156285285949707
1761391656723797500,1.445797607421875,0.7932848930358887,-0.03529847040772438,-0.7287441492080688
1761391656733863700,1.45586376953125,0.6203534007072449,0.22041800618171692,-1.0033680200576782
1761391656743929600,1.4659296875,0.43558305501937866,0.4452100992202759,-1.3024744987487793
1761391656753996500,1.47599658203125,0.2515603005886078,0.7048025131225586,-1.550154685974121
1761391656764062700,1.486062744140625,0.039376407861709595,1.0180261135101318,-1.7336100339889526
1761391656774128600,1.496128662109375,-0.28390851616859436,1.154585599899292,-1.8762257099151611
1761391656784194800,1.50619482421875,-0.5942131280899048,0.7642722725868225,-2.03963041305542
1761391656794260700,1.5162607421875,-0.669891893863678,-0.18096311390399933,-2.1622769832611084
1761391656804326700,1.52632666015625,-0.43230488896369934,-1.2649143934249878,-2.029625415802002
1761391656814392600,1.536392578125,-0.0016640061512589455,-2.1468422412872314,-1.6230303049087524
1761391656824459500,1.54645947265625,0.5292278528213501,-2.7293663024902344,-1.0497713088989258
1761391656834525700,1.556525634765625,1.1074910163879395,-2.9529969692230225,-0.4332335591316223
1761391656844591600,1.566591552734375,1.6561232805252075,-2.6758787631988525,0.33929407596588135
1761391656854657500,1.576657470703125,2.013307809829712,-1.884614109992981,1.305976152420044
1761391656864723700,1.5867236328125,2.0471839904785156,-0.7490195631980896,2.126925468444824
1761391656874789600,1.59678955078125,1.77884840965271,0.4938777685165405,2.3777716159820557
1761391656884855600,1.60685546875,1.2854539155960083,1.5674244165420532,2.0686099529266357
1761391656894922800,1.6169228515625,0.6267015933990479,2.3338139057159424,1.5133830308914185
1761391656904988400,1.626988525390625,-0.05184521526098251,2.6764283180236816,0.9121086597442627
1761391656915054600,1.6370546875,-0.7214194536209106,2.5932185649871826,0.3843146562576294
1761391656925120500,1.64712060546875,-1.3431733846664429,2.1708805561065674,-0.04030509293079376
1761391656935186700,1.657186767578125,-1.8460166454315186,1.6457539796829224,-0.37194791436195374
1761391656945252600,1.667252685546875,-2.174849033355713,1.0923962593078613,-0.5931521654129028
1761391656955318800,1.67731884765625,-2.3179807662963867,0.6157196164131165,-0.762997567653656
1761391656965384700,1.687384765625,-2.2811026573181152,0.22070278227329254,-0.8895092010498047
1761391656975451600,1.69745166015625,-2.0210940837860107,-0.1526937633752823,-0.8214290738105774
1761391656985517800,1.707517822265625,-1.655620813369751,-0.32534462213516235,-0.6175014972686768
1761391656995583500,1.71758349609375,-1.253281593322754,-0.3324902057647705,-0.25406837463378906
1761391657005649700,1.727649658203125,-0.9013267159461975,-0.1140870451927185,0.18210361897945404
1761391657015715600,1.737715576171875,-0.5831153988838196,0.15212425589561462,0.5368936061859131
1761391657025781500,1.747781494140625,-0.3315151631832123,0.35302701592445374,0.6862689852714539
1761391657035847700,1.75784765625,-0.14170028269290924,0.49065330624580383,0.6521784067153931
1761391657045914600,1.76791455078125,0.013591572642326355,0.6324850916862488,0.49253204464912415
1761391657055980800,1.777980712890625,0.13167724013328552,0.7753305435180664,0.2684018015861511
1761391657066046700,1.788046630859375,0.2489684373140335,0.845896303653717,0.030857691541314125
1761391657076112400,1.7981123046875,0.40327972173690796,0.8024015426635742,-0.15921691060066223
1761391657086178600,1.808178466796875,0.5359088778495789,0.7029711008071899,-0.2528368830680847
1761391657096244500,1.818244384765625,0.6349354982376099,0.5234320759773254,-0.21076303720474243
1761391657106310700,1.828310546875,0.7273570895195007,0.3238963186740875,-0.0775756761431694
1761391657116377600,1.838377685546875,0.8338539600372314,0.20369204878807068,0.08331241458654404
1761391657126443500,1.848443603515625,0.9620241522789001,0.12101234495639801,0.27625203132629395
1761391657136509700,1.858509765625,1.0720560550689697,0.08599952608346939,0.41840606927871704
1761391657146575600,1.86857568359375,1.1606568098068237,0.0830487385392189,0.47477373480796814
1761391657156641800,1.878641845703125,1.2399061918258667,0.09270823746919632,0.45324623584747314
1761391657166707500,1.88870751953125,1.2830486297607422,0.06306565552949905,0.3699449598789215
1761391657176773600,1.898773681640625,1.2559659481048584,0.03673163801431656,0.26250556111335754
1761391657186839600,1.908839599609375,1.1832118034362793,0.036361727863550186,0.1332346349954605
1761391657196906500,1.918906494140625,1.0738437175750732,0.006742861121892929,-0.034185055643320084
1761391657206972700,1.92897265625,0.9338929653167725,-0.032026905566453934,-0.20535387098789215
1761391657217038600,1.93903857421875,0.7829955816268921,-0.08406651765108109,-0.3646661043167114
1761391657227104800,1.949104736328125,0.6381910443305969,-0.17425978183746338,-0.47710663080215454
1761391657237170700,1.959170654296875,0.5099538564682007,-0.3139113187789917,-0.525795578956604
1761391657247236600,1.969236572265625,0.3728189170360565,-0.4749518632888794,-0.5213552713394165
1761391657257302500,1.979302490234375,0.2295190393924713,-0.6106451153755188,-0.46338358521461487
1761391657267369500,1.989369384765625,0.09190897643566132,-0.6721454858779907,-0.3285738527774811
1761391657277435600,1.999435546875,-0.017064277082681656,-0.7534325122833252,-0.22881385684013367
1761391657287501600,2.00950146484375,-0.10342872887849808,-0.7435337901115417,-0.19362790882587433
1761391657297567500,2.0195673828125,-0.14354293048381805,-0.6144934296607971,-0.21056996285915375
1761391657307633700,2.029633544921875,-0.16150648891925812,-0.39515602588653564,-0.26951050758361816
1761391657317699600,2.039699462890625,-0.1661195009946823,-0.12772753834724426,-0.3378084599971771
1761391657327765800,2.049765869140625,-0.1659996658563614,0.20040079951286316,-0.38620129227638245
1761391657337832700,2.059832763671875,-0.18294657766819,0.5946352481842041,-0.41473376750946045
1761391657347898600,2.069898681640625,-0.1613432914018631,1.0185908079147339,-0.5038495063781738
1761391657357964500,2.079964599609375,-0.11623082309961319,1.4665048122406006,-0.7769763469696045
1761391657368030500,2.090030517578125,-0.19384971261024475,1.7781401872634888,-1.2993115186691284
1761391657378096600,2.1000966796875,-0.5075122714042664,1.6596840620040894,-2.0234930515289307
1761391657388162600,2.11016259765625,-0.7594369053840637,1.2640795707702637,-2.5788612365722656
1761391657398228700,2.120228759765625,-0.37897470593452454,0.6154003739356995,-2.39115571975708
1761391657408295700,2.130295654296875,0.5154713988304138,-0.09607084095478058,-1.2488476037979126
1761391657418361600,2.140361572265625,1.516886830329895,-0.803934633731842,0.36386212706565857
1761391657428427800,2.150427734375,2.596715211868286,-1.5146890878677368,1.629740834236145
1761391657438493700,2.16049365234375,3.4430413246154785,-1.8257453441619873,2.3958628177642822
1761391657448559600,2.1705595703125,3.726149797439575,-1.6143574714660645,2.8117804527282715
1761391657458625500,2.18062548828125,3.4867336750030518,-1.2550209760665894,2.9501848220825195
1761391657468691700,2.190691650390625,2.832213878631592,-0.8565228581428528,2.8359591960906982
1761391657478757600,2.200757568359375,1.92062509059906,-0.33813491463661194,2.44840931892395
1761391657488824600,2.210824462890625,0.8821824193000793,0.20704452693462372,1.8237594366073608
1761391657498890800,2.220890869140625,-0.14852456748485565,0.7564658522605896,1.079030990600586
1761391657508956700,2.230956787109375,-1.0853129625320435,1.2769428491592407,0.3326851725578308
1761391657519022600,2.241022705078125,-1.8681062459945679,1.5900206565856934,-0.3734361529350281
1761391657529088500,2.251088623046875,-2.4749200344085693,1.5026180744171143,-0.9584194421768188
1761391657539154400,2.261154541015625,-2.9372975826263428,1.0149976015090942,-1.3627970218658447
1761391657549220600,2.271220703125,-3.1464529037475586,0.3357999324798584,-1.4831072092056274
1761391657559287600,2.28128759765625,-3.0288798809051514,-0.4392869472503662,-1.373016595840454
1761391657569353500,2.291353515625,-2.703038215637207,-1.0738834142684937,-1.0992735624313354
1761391657579419600,2.301419677734375,-2.262104034423828,-1.392427921295166,-0.7538811564445496
1761391657589485600,2.311485595703125,-1.762434482574463,-1.3596068620681763,-0.4401102066040039
1761391657599551700,2.3215517578125,-1.3572934865951538,-1.046970248222351,-0.15419860184192657
1761391657609617400,2.331617431640625,-1.1001908779144287,-0.7103551626205444,0.016439178958535194
1761391657619683600,2.34168359375,-0.9688445925712585,-0.4246685206890106,0.06974749267101288
1761391657629750500,2.35175048828125,-0.9054405689239502,-0.14747683703899384,0.07161250710487366
1761391657639816400,2.36181640625,-0.8850721716880798,0.18540966510772705,0.06833691895008087
1761391657649882600,2.371882568359375,-0.9083449840545654,0.5881821513175964,0.05555800348520279
1761391657659948500,2.381948486328125,-0.9668577313423157,0.8883084058761597,0.07453139871358871
1761391657670014700,2.3920146484375,-1.0072773694992065,0.9981457591056824,0.15220622718334198
1761391657680080600,2.40208056640625,-1.01102614402771,0.9746878147125244,0.21052061021327972
1761391657690146600,2.412146484375,-0.9667244553565979,0.8922120928764343,0.22559356689453125
1761391657700212500,2.42221240234375,-0.8529516458511353,0.821742594242096,0.16614151000976562
1761391657710279400,2.432279541015625,-0.6843125224113464,0.7775087952613831,0.026887759566307068
1761391657720345600,2.442345703125,-0.48789772391319275,0.7227808833122253,-0.15229453146457672
1761391657730411500,2.45241162109375,-0.2772616744041443,0.6196459531784058,-0.32072749733924866
1761391657740477400,2.4624775390625,-0.0882313996553421,0.4946187436580658,-0.4416576623916626
1761391657750543600,2.472543701171875,0.0547071173787117,0.3553580641746521,-0.49332860112190247
1761391657760609500,2.482609619140625,0.12613677978515625,0.1585136353969574,-0.4743097722530365
1761391657770675700,2.49267578125,0.14187952876091003,-0.11792594939470291,-0.40825963020324707
1761391657780742700,2.50274267578125,0.10442060977220535,-0.434701144695282,-0.33273863792419434
1761391657790808600,2.51280859375,0.03736860305070877,-0.7247416973114014,-0.2691807150840759
1761391657800874500,2.52287451171875,-0.04867137223482132,-0.8728832006454468,-0.22901587188243866
1761391657810940400,2.5329404296875,-0.1170208677649498,-0.8751005530357361,-0.2231164425611496
1761391657821006600,2.543006591796875,-0.14078174531459808,-0.7541077136993408,-0.24781917035579681
1761391657831072500,2.553072509765625,-0.10309934616088867,-0.5637111663818359,-0.25929129123687744
1761391657841138700,2.563138671875,0.0031181578524410725,-0.34417724609375,-0.21197205781936646
1761391657851205600,2.57320556640625,0.1514841914176941,-0.21546345949172974,-0.1320338100194931
1761391657861271600,2.583271484375,0.25185254216194153,-0.17597733438014984,-0.050844643265008926
1761391657871337700,2.593337646484375,0.3083967864513397,-0.1791667342185974,0.10134781897068024
1761391657881403600,2.603403564453125,0.33720147609710693,-0.20249372720718384,0.31607967615127563
1761391657891469600,2.613469482421875,0.32658424973487854,-0.18724952638149261,0.4947631359100342
1761391657901535500,2.623535400390625,0.29794755578041077,-0.14257891476154327,0.5934274792671204
1761391657911601700,2.6336015625,0.2889937460422516,-0.005842104088515043,0.5915907025337219
1761391657921667600,2.64366748046875,0.32260364294052124,0.20598307251930237,0.5115851163864136
1761391657931734500,2.653734619140625,0.39859187602996826,0.4559694528579712,0.4264238178730011
1761391657941800700,2.66380078125,0.5668984651565552,0.7951984405517578,0.4593341648578644
1761391657951866600,2.67386669921875,0.9206887483596802,1.1915884017944336,0.5740053653717041
1761391657961932500,2.6839326171875,1.473134994506836,1.7999334335327148,0.7058296799659729
1761391657971998700,2.693998779296875,2.100597381591797,2.6165192127227783,0.6591055989265442
1761391657982064400,2.704064453125,2.5445752143859863,3.012622356414795,0.2541458010673523
1761391657992130600,2.714130615234375,2.55318546295166,2.4136297702789307,-0.44211050868034363
1761391658002197500,2.724197509765625,2.002206802368164,1.018554925918579,-1.015039086341858
1761391658012263400,2.734263427734375,1.2544076442718506,-0.7983938455581665,-1.166862964630127
1761391658022329600,2.74432958984375,0.8379596471786499,-2.4385390281677246,-0.7654890418052673
1761391658032395500,2.7543955078125,0.9589627981185913,-3.1582322120666504,0.049388401210308075
1761391658042461700,2.764461669921875,1.4796061515808105,-2.952108383178711,0.8018659353256226
1761391658052527600,2.774527587890625,2.133939027786255,-2.1341235637664795,1.2523891925811768
1761391658062593800,2.78459375,2.549077272415161,-1.326184868812561,1.5298577547073364
1761391658072660700,2.79466064453125,2.4258854389190674,-0.5897216796875,1.7173235416412354
1761391658082726400,2.804726318359375,1.7626581192016602,0.13686496019363403,1.7021183967590332
1761391658092792600,2.81479248046875,0.79111647605896,0.8500161170959473,1.3888940811157227
1761391658102858500,2.8248583984375,-0.1904030442237854,1.410607099533081,0.8682553768157959
1761391658112924700,2.834924560546875,-1.044024109840393,1.7288559675216675,0.3369227945804596
1761391658122990600,2.844990478515625,-1.7556732892990112,1.6898847818374634,0.030807243660092354
1761391658133056800,2.855056884765625,-2.2789416313171387,1.380602240562439,-0.16562724113464355
1761391658143123700,2.865123779296875,-2.6841518878936768,1.0732898712158203,-0.4583672285079956
1761391658153189600,2.875189697265625,-2.8432140350341797,0.39359742403030396,-0.5552276968955994
1761391658163255800,2.885255859375,-2.819333791732788,-0.28416526317596436,-0.6512792706489563
1761391658173321500,2.895321533203125,-2.708592176437378,-0.45921561121940613,-0.8538337349891663
1761391658183387400,2.905387451171875,-2.522223949432373,-0.34791892766952515,-0.7894238233566284
1761391658193453600,2.91545361328125,-2.3877410888671875,-0.16016313433647156,-0.3506600558757782
1761391658203519500,2.92551953125,-2.1944353580474854,-0.049350492656230927,0.22748759388923645
1761391658213586700,2.935586669921875,-1.919126033782959,-0.033466339111328125,0.7691245079040527
1761391658223652600,2.945652587890625,-1.6277388334274292,-0.0809812918305397,1.1822017431259155
1761391658233718500,2.955718505859375,-1.2619273662567139,-0.12077850103378296,1.4381208419799805
1761391658243784700,2.96578466796875,-0.902610182762146,-0.08449316024780273,1.5529214143753052
1761391658253850600,2.9758505859375,-0.5847757458686829,0.007683638483285904,1.5387437343597412
1761391658263916500,2.98591650390625,-0.30826225876808167,0.1782475709915161,1.4035530090332031
1761391658273982500,2.995982421875,-0.10173465311527252,0.3641601800918579,1.2038925886154175
1761391658284049400,3.00604931640625,0.020581744611263275,0.5228052139282227,0.9613631367683411
1761391658294115600,3.016115478515625,0.0589861236512661,0.6559084057807922,0.7048147320747375
1761391658304181500,3.026181396484375,0.08124549686908722,0.7409464716911316,0.42434993386268616
1761391658314247700,3.03624755859375,0.1268305480480194,0.7620390057563782,0.1751725971698761
1761391658324313600,3.046313720703125,0.17751531302928925,0.6517050862312317,-0.0230907890945673
1761391658334379800,3.0563798828125,0.19763603806495667,0.4134743809700012,-0.19485989212989807
1761391658344445400,3.066445556640625,0.17833907902240753,0.06292392313480377,-0.3591930568218231
1761391658354511600,3.07651171875,0.1319042146205902,-0.2818766236305237,-0.5074748992919922
1761391658364578600,3.08657861328125,0.11197920143604279,-0.5631569623947144,-0.6233069896697998
1761391658374644500,3.09664453125,0.12739597260951996,-0.7887104749679565,-0.7045770883560181
1761391658384710700,3.106710693359375,0.15335075557231903,-1.007173776626587,-0.7755115628242493
1761391658394776600,3.116776611328125,0.149954155087471,-1.1961541175842285,-0.8434706330299377
1761391658404842500,3.126842529296875,0.0969027727842331,-1.331882357597351,-0.9361512660980225
1761391658414908700,3.13690869140625,0.026521017774939537,-1.4198417663574219,-1.0515495538711548
1761391658424974600,3.146974609375,-0.016480566933751106,-1.429535150527954,-1.1342872381210327
1761391658435041800,3.157041748046875,-0.008647412061691284,-1.3967317342758179,-1.1268833875656128
1761391658445107700,3.167107666015625,0.02794085070490837,-1.3053765296936035,-0.9918879270553589
1761391658455173400,3.17717333984375,0.08400359004735947,-1.1611970663070679,-0.7555015087127686
1761391658465239800,3.18723974609375,0.13248635828495026,-1.016104817390442,-0.4730675518512726
1761391658475305700,3.1973056640625,0.16394947469234467,-0.9132255911827087,-0.1923125982284546
1761391658485372000,3.207371826171875,0.15908183157444,-0.7528545260429382,0.08544805645942688
1761391658495437800,3.217437744140625,0.13526330888271332,-0.4988427758216858,0.3543889820575714
1761391658505504800,3.2275048828125,0.09329815208911896,-0.19515997171401978,0.5642731189727783
1761391658515571000,3.237571044921875,0.056646935641765594,0.11944723129272461,0.617351233959198
1761391658525636900,3.247636962890625,0.03638846054673195,0.44183140993118286,0.546847939491272
1761391658535703000,3.257703125,0.027526259422302246,0.8337152600288391,0.4159240126609802
1761391658545768700,3.267768798828125,-0.008312257006764412,1.3622932434082031,0.2216607928276062
1761391658555835000,3.2778349609375,-0.10340388864278793,2.0170741081237793,-0.05294334143400192
1761391658565900800,3.28790087890625,-0.2839026153087616,2.709524393081665,-0.5052706003189087
1761391658575967700,3.2979677734375,-0.607063353061676,3.1513774394989014,-1.22260582447052
1761391658586034000,3.308033935546875,-0.98573899269104,2.845827341079712,-2.12544322013855
1761391658596099800,3.318099853515625,-1.1828866004943848,1.6486276388168335,-2.8686118125915527
1761391658606165800,3.328165771484375,-1.001889705657959,0.005308469757437706,-2.9894986152648926
1761391658616232000,3.33823193359375,-0.4333038330078125,-1.5232962369918823,-2.2610883712768555
1761391658626297600,3.348297607421875,0.5135558247566223,-2.3337862491607666,-1.0652519464492798
1761391658636363800,3.35836376953125,1.8672029972076416,-2.430925130844116,-0.09164173901081085
1761391658646430700,3.3684306640625,3.306716203689575,-1.898056149482727,0.6022377014160156
1761391658656496600,3.37849658203125,4.209402084350586,-1.2843695878982544,1.2602932453155518
1761391658666562800,3.388562744140625,4.441399097442627,-0.8445178866386414,1.8075488805770874
1761391658676628700,3.398628662109375,4.1319899559021,-0.4135032594203949,2.209800958633423
1761391658686695000,3.40869482421875,3.35591197013855,0.1689707636833191,2.321147918701172
1761391658696760800,3.4187607421875,2.316467523574829,0.8913704752922058,2.0426290035247803
1761391658706827000,3.428826904296875,1.20405912399292,1.6099604368209839,1.4598312377929688
1761391658716894000,3.43889404296875,0.10951857268810272,1.9453320503234863,0.9107052683830261
1761391658726959900,3.4489599609375,-0.6927883625030518,1.4975563287734985,0.4220885634422302
1761391658737025800,3.45902587890625,-1.9654539823532104,0.8591164350509644,-0.2772703170776367
1761391658747091700,3.469091796875,-3.106674909591675,0.2635829448699951,-0.9424420595169067
1761391658757158000,3.479157958984375,-3.796131134033203,-0.2623673975467682,-1.320881962776184
1761391658767223800,3.489223876953125,-4.1029052734375,-0.7467994093894958,-1.4871087074279785
1761391658777290000,3.4992900390625,-3.912672758102417,-1.154672622680664,-1.3539714813232422
1761391658787357000,3.50935693359375,-3.329479217529297,-1.328221321105957,-0.9204041361808777
1761391658797422800,3.5194228515625,-2.5859904289245605,-1.3538191318511963,-0.28871485590934753
1761391658807489000,3.529489013671875,-1.89320707321167,-1.3084726333618164,0.40269696712493896
1761391658817554700,3.5395546875,-1.415168046951294,-1.0127235651016235,0.9536842107772827
1761391658827620900,3.549620849609375,-1.0793673992156982,-0.4595741629600525,1.2562419176101685
1761391658837686800,3.559686767578125,-0.814445436000824,0.0907965749502182,1.37116539478302
1761391658847752700,3.569752685546875,-0.6330719590187073,0.5904015898704529,1.3531266450881958
1761391658857819000,3.57981884765625,-0.542763888835907,1.0208486318588257,1.2595895528793335
1761391658867885800,3.5898857421875,-0.5030484795570374,1.3274263143539429,1.1242711544036865
1761391658877951700,3.59995166015625,-0.5533753037452698,1.5667520761489868,0.9989720582962036
1761391658888018000,3.610017822265625,-0.6438040137290955,1.6885788440704346,0.8712620139122009
1761391658898083800,3.620083740234375,-0.7484167218208313,1.6938806772232056,0.6907444596290588
1761391658908149800,3.630149658203125,-0.7953246235847473,1.6120481491088867,0.47811898589134216
1761391658918215700,3.640215576171875,-0.7769288420677185,1.439070224761963,0.25043681263923645
1761391658928281900,3.65028173828125,-0.715467095375061,1.1854158639907837,0.0011336677707731724
1761391658938348800,3.660348876953125,-0.6077587008476257,0.9267089366912842,-0.20927868783473969
1761391658948414700,3.670414794921875,-0.45555391907691956,0.6811892986297607,-0.3874419331550598
1761391658958481000,3.68048095703125,-0.2594057023525238,0.4142923057079315,-0.5095803141593933
1761391658968546800,3.690546875,-0.05879050865769386,0.10311434417963028,-0.571326732635498
1761391658978613000,3.700613037109375,0.1468460112810135,-0.2254536896944046,-0.6171792149543762
1761391658988679000,3.710678955078125,0.3384324014186859,-0.573338508605957,-0.6588784456253052
1761391658998744800,3.720744873046875,0.5152604579925537,-0.8959829211235046,-0.6946066617965698
1761391659008811800,3.730811767578125,0.6708298325538635,-1.1631853580474854,-0.6885068416595459
1761391659018877700,3.740877685546875,0.7812663316726685,-1.3488454818725586,-0.644357442855835
1761391659028944000,3.75094384765625,0.8419486284255981,-1.4100315570831299,-0.534122109413147
1761391659039009800,3.761009765625,0.8680592775344849,-1.3620094060897827,-0.37792906165122986
1761391659049076000,3.771075927734375,0.8908382058143616,-1.2593741416931152,-0.2582928538322449
1761391659059142000,3.781141845703125,0.9289818406105042,-1.1928061246871948,-0.18598589301109314
1761391659069207800,3.791207763671875,0.9744049310684204,-1.1379806995391846,-0.13272228837013245
1761391659079275000,3.80127490234375,1.0225155353546143,-1.059409499168396,-0.08879902958869934
1761391659089341000,3.8113408203125,1.0436784029006958,-1.0040905475616455,-0.030922455713152885
1761391659099406600,3.821406494140625,1.0056660175323486,-0.9511075019836426,0.028356047347187996
1761391659109472800,3.83147265625,0.8936924934387207,-0.898717999458313,0.0701179951429367
1761391659119538700,3.84153857421875,0.6974726319313049,-0.8179847598075867,0.0922296866774559
1761391659129604900,3.85160498046875,0.4166101813316345,-0.7220784425735474,0.06482714414596558
1761391659139670800,3.8616708984375,0.012057371437549591,-0.6207036375999451,-0.008585020899772644
1761391659149737700,3.87173779296875,-0.5098301768302917,-0.5431005358695984,-0.13821280002593994
1761391659159804000,3.881803955078125,-1.150212049484253,-0.37282413244247437,-0.3736453056335449
1761391659169869800,3.891869873046875,-1.7644578218460083,0.03028351068496704,-0.724442183971405
1761391659179936000,3.90193603515625,-2.15788197517395,0.6187726259231567,-1.2139495611190796
1761391659190001700,3.912001708984375,-2.275735855102539,0.9267585277557373,-2.0243582725524902
1761391659200067800,3.92206787109375,-2.0376381874084473,0.5715873837471008,-3.1919021606445312
1761391659210133800,3.9321337890625,-1.1791177988052368,-0.3457917869091034,-4.3417816162109375
1761391659220200000,3.942199951171875,0.3921256363391876,-1.637344479560852,-4.396015167236328
1761391659230267000,3.952266845703125,2.0502121448516846,-3.397113561630249,-2.5313000679016113
1761391659240332800,3.962332763671875,3.2520971298217773,-4.669400691986084,0.6058031916618347
1761391659250399000,3.97239892578125,4.0756916999816895,-4.781299114227295,3.158325672149658
1761391659260465000,3.98246484375,4.548305034637451,-3.60003662109375,4.044429779052734
1761391659270530800,3.99253076171875,4.451203346252441,-1.8405907154083252,3.713449239730835
1761391659280596700,4.0025966796875,3.834388017654419,-0.021378742530941963,2.947075128555298
1761391659290662700,4.01266259765625,2.7987639904022217,1.496358036994934,2.217395782470703
1761391659300728800,4.022728759765625,1.5533219575881958,2.6285338401794434,1.62850022315979
1761391659310794800,4.032794677734375,0.34316354990005493,3.375307559967041,1.1557941436767578
1761391659320861000,4.04286083984375,-0.6352695822715759,3.790431022644043,0.7555906772613525
1761391659330926800,4.0529267578125,-1.3513654470443726,3.9347116947174072,0.35352036356925964
1761391659340993000,4.062992919921875,-1.84123957157135,3.7033798694610596,-0.027282901108264923
1761391659351060000,4.07306005859375,-2.228825807571411,3.22515869140625,-0.3292464315891266
1761391659361126000,4.0831259765625,-2.4149649143218994,2.3122081756591797,-0.39982661604881287
1761391659371191800,4.09319189453125,-2.381192207336426,1.044621467590332,-0.26490116119384766
1761391659381257700,4.1032578125,-2.2071034908294678,-0.13921105861663818,-0.026045970618724823
1761391659391324000,4.113323974609375,-1.9650119543075562,-0.794841468334198,0.13022956252098083
1761391659401389800,4.123389892578125,-1.677748441696167,-0.9480161070823669,0.2059757262468338
1761391659411455700,4.133455810546875,-1.4151886701583862,-0.7651749849319458,0.27253517508506775
1761391659421522000,4.14352197265625,-1.203772783279419,-0.462137907743454,0.3527679741382599
1761391659431588900,4.1535888671875,-1.0381416082382202,-0.15822194516658783,0.44151172041893005
1761391659441655000,4.163655029296875,-0.918780505657196,0.0481938011944294,0.5088595747947693
1761391659451720700,4.173720703125,-0.8725861310958862,0.1576782763004303,0.5413850545883179
1761391659461786600,4.18378662109375,-0.9022492170333862,0.20546764135360718,0.5290250182151794
1761391659471852500,4.1938525390625,-0.9804096221923828,0.20857787132263184,0.4763650596141815
1761391659481918500,4.20391845703125,-1.0427002906799316,0.1374048888683319,0.3895880877971649
1761391659491984600,4.213984619140625,-1.0432926416397095,-0.019398193806409836,0.2665974199771881
1761391659502051600,4.224051513671875,-0.9807334542274475,-0.14377686381340027,0.11106668412685394
1761391659512117500,4.234117431640625,-0.8502737283706665,-0.2360730618238449,-0.010251279920339584
1761391659522183700,4.24418359375,-0.6698318123817444,-0.3362707495689392,-0.10827584564685822
1761391659532249600,4.25424951171875,-0.49915093183517456,-0.4520675539970398,-0.1777317225933075
1761391659542315500,4.2643154296875,-0.3771216869354248,-0.5693933963775635,-0.22896002233028412
1761391659552381400,4.27438134765625,-0.3078756630420685,-0.6800704002380371,-0.23921790719032288
1761391659562447600,4.284447509765625,-0.2784179151058197,-0.7840396761894226,-0.2309999316930771
1761391659572514600,4.2945146484375,-0.26654911041259766,-0.8625887036323547,-0.22665782272815704
1761391659582580500,4.30458056640625,-0.22848612070083618,-0.8640789985656738,-0.27028921246528625
1761391659592646700,4.314646728515625,-0.14837098121643066,-0.8475356101989746,-0.3770533502101898
1761391659602712600,4.324712646484375,-0.057521238923072815,-0.8051937222480774,-0.4865526854991913
1761391659612778800,4.33477880859375,0.02075410634279251,-0.7140399217605591,-0.5717111229896545
1761391659622844700,4.3448447265625,0.07930663228034973,-0.593826949596405,-0.6455590128898621
1761391659632910600,4.35491064453125,0.1250397115945816,-0.4918314516544342,-0.6835073828697205
1761391659642977500,4.3649775390625,0.1539406031370163,-0.4071360230445862,-0.6459770202636719
1761391659653043500,4.37504345703125,0.19226577877998352,-0.3458111882209778,-0.5199689269065857
1761391659663109600,4.385109619140625,0.23976992070674896,-0.3106076717376709,-0.29953670501708984
1761391659673175600,4.395175537109375,0.2993391156196594,-0.3247489035129547,-0.013010739348828793
1761391659683241700,4.40524169921875,0.3987687826156616,-0.3900163173675537,0.2663939893245697
1761391659693307600,4.4153076171875,0.5215709209442139,-0.5218655467033386,0.4653547406196594
1761391659703373600,4.42537353515625,0.6263002157211304,-0.6650147438049316,0.550341784954071
1761391659713440800,4.435440673828125,0.670291543006897,-0.7419618964195251,0.5220769047737122
1761391659723506700,4.445506591796875,0.6615254878997803,-0.6476628184318542,0.41325077414512634
1761391659733572600,4.455572509765625,0.6513771414756775,-0.42108219861984253,0.23369278013706207
1761391659743639600,4.4656396484375,0.6956924200057983,-0.17994283139705658,-0.00915476307272911
1761391659753705500,4.47570556640625,0.7713731527328491,0.012227993458509445,-0.2510862648487091
1761391659763771600,4.485771728515625,0.8225495219230652,0.06915466487407684,-0.46529898047447205
1761391659773837600,4.495837646484375,0.8075847029685974,-0.1310546100139618,-0.6176090240478516
1761391659783903500,4.505903564453125,0.6617356538772583,-0.5892692804336548,-0.6275820732116699
1761391659793969700,4.5159697265625,0.4735943078994751,-1.182033658027649,-0.42248672246932983
1761391659804035600,4.52603564453125,0.41691556572914124,-1.5676145553588867,-0.07920978963375092
1761391659814102500,4.5361025390625,0.6181896328926086,-1.330626368522644,0.2510526180267334
1761391659824168700,4.546168701171875,0.9533673524856567,-0.4780457019805908,0.33004438877105713
1761391659834234400,4.556234375,1.1830039024353027,0.5412011742591858,0.17402313649654388
1761391659844300500,4.566300537109375,1.227602243423462,1.2900532484054565,-0.027207432314753532
1761391659854366500,4.576366455078125,1.147547960281372,1.549765706062317,-0.07078178972005844
1761391659864432600,4.5864326171875,1.0236366987228394,1.2267053127288818,0.19500993192195892
1761391659874498600,4.59649853515625,0.970737636089325,0.507030189037323,0.6860511898994446
1761391659884565500,4.6065654296875,1.079634428024292,-0.19012199342250824,1.2347095012664795
1761391659894631700,4.616631591796875,1.2568821907043457,-0.5647071003913879,1.7208601236343384
1761391659904697600,4.626697509765625,1.351974606513977,-0.5594143271446228,2.056891441345215
1761391659914763800,4.636763671875,1.2301949262619019,-0.2865573763847351,2.155799388885498
1761391659924829400,4.646829345703125,0.8830667734146118,0.05603380128741264,1.9374254941940308
1761391659934895600,4.6568955078125,0.38561487197875977,0.3503938615322113,1.42636239528656
1761391659944961500,4.66696142578125,-0.1946365088224411,0.6347449421882629,0.8284345269203186
1761391659955027500,4.67702734375,-0.7885230183601379,0.8765830993652344,0.2936651110649109
1761391659965094700,4.6870947265625,-1.2801671028137207,1.047424554824829,-0.10526914894580841
1761391659975160600,4.69716064453125,-1.6159793138504028,1.0588414669036865,-0.39161184430122375
1761391659985226800,4.707226806640625,-1.8466399908065796,0.8899252414703369,-0.5597007274627686
1761391659995292700,4.717292724609375,-2.0030219554901123,0.6247522830963135,-0.6031444668769836
1761391660005358600,4.727358642578125,-2.053187847137451,0.3367522060871124,-0.47709816694259644
1761391660015424500,4.737424560546875,-1.9298686981201172,0.030599676072597504,-0.23924370110034943
1761391660025490400,4.747490478515625,-1.6475725173950195,-0.2596859633922577,0.04325403645634651
1761391660035557600,4.7575576171875,-1.3135559558868408,-0.4127568006515503,0.3488588333129883
1761391660045623600,4.76762353515625,-1.0334079265594482,-0.35828638076782227,0.6311658620834351
1761391660055689500,4.777689453125,-0.8227901458740234,-0.1413172483444214,0.7600610256195068
1761391660065755600,4.787755615234375,-0.6453045606613159,0.1484977900981903,0.7452471852302551
1761391660075821600,4.797821533203125,-0.5241739153862,0.37359747290611267,0.6408274173736572
1761391660085887700,4.8078876953125,-0.4770013391971588,0.4852465093135834,0.5094286799430847
1761391660095953400,4.817953369140625,-0.4838615655899048,0.49850404262542725,0.3735906183719635
1761391660106020600,4.8280205078125,-0.5454868674278259,0.4273912310600281,0.253223180770874
1761391660116086500,4.83808642578125,-0.6379433870315552,0.33665481209754944,0.1494101583957672
1761391660126152400,4.84815234375,-0.6803464889526367,0.17102296650409698,0.08530360460281372
1761391660136218600,4.858218505859375,-0.6909583210945129,0.03159327432513237,0.03250965103507042
1761391660146284500,4.868284423828125,-0.6483719944953918,-0.05091118812561035,-0.03201661258935928
1761391660156350700,4.878350830078125,-0.5652632117271423,-0.0540563203394413,-0.12016221135854721
1761391660166416600,4.888416748046875,-0.4635149836540222,-0.029911302030086517,-0.2029082328081131
1761391660176483600,4.898483642578125,-0.3577953577041626,-0.009454641491174698,-0.24962317943572998
1761391660186549800,4.9085498046875,-0.2627250552177429,-0.035176247358322144,-0.24457409977912903
1761391660196615700,4.91861572265625,-0.20715394616127014,-0.09845566004514694,-0.2309926450252533
1761391660206681600,4.928681640625,-0.17453022301197052,-0.15713787078857422,-0.24786776304244995
1761391660216747500,4.93874755859375,-0.1572697013616562,-0.1699441373348236,-0.31237295269966125
1761391660226813400,4.9488134765625,-0.1500227004289627,-0.21768131852149963,-0.38057437539100647
1761391660236879600,4.958879638671875,-0.14121726155281067,-0.364838570356369,-0.4026508033275604
1761391660246946600,4.968946533203125,-0.11908985674381256,-0.59433513879776,-0.39300537109375
1761391660257012500,4.979012451171875,-0.09606875479221344,-0.8356643915176392,-0.3481322228908539
1761391660267078700,4.98907861328125,-0.10216446220874786,-1.0146043300628662,-0.23890721797943115
1761391660277144600,4.99914453125,-0.09623538702726364,-1.0997191667556763,-0.09958592057228088
1761391660287210500,5.00921044921875,-0.01493494026362896,-1.1745667457580566,0.021157005801796913
1761391660297276400,5.0192763671875,0.08288364857435226,-1.2061172723770142,0.06991875171661377
1761391660307342600,5.029342529296875,0.1776658296585083,-1.2079626321792603,0.0028598210774362087
1761391660317409500,5.039409423828125,0.263529896736145,-1.298154354095459,-0.17342104017734528
1761391660327475500,5.049475341796875,0.33054620027542114,-1.3869590759277344,-0.37805888056755066
1761391660337541600,5.059541748046875,0.34884870052337646,-1.31635320186615,-0.48728787899017334
1761391660347607600,5.069607666015625,0.2801189124584198,-1.1258823871612549,-0.45655155181884766
1761391660357673700,5.079673828125,0.11028675734996796,-0.9980781674385071,-0.4339808523654938
1761391660367739600,5.08973974609375,-0.28618067502975464,-1.2331442832946777,-0.8244314193725586
1761391660377805600,5.0998056640625,-0.9166097044944763,-2.185769557952881,-1.720757007598877
1761391660387872800,5.109872802734375,-1.2956273555755615,-3.041386604309082,-2.5046613216400146
1761391660397938400,5.1199384765625,-0.9986154437065125,-3.17582631111145,-2.3853611946105957
1761391660408004600,5.130004638671875,-0.295165479183197,-2.903435468673706,-1.2940219640731812
1761391660418070500,5.140070556640625,0.3293861448764801,-1.9974724054336548,0.2800739109516144
1761391660428136700,5.15013671875,0.4921659827232361,-0.9033046960830688,1.3946797847747803
1761391660438202600,5.16020263671875,0.7098254561424255,-0.16093941032886505,1.6834644079208374
1761391660448268500,5.1702685546875,0.7741325497627258,0.5017575621604919,1.4388421773910522
1761391660458335700,5.180335693359375,0.6349939703941345,0.9983424544334412,1.059012532234192
1761391660468401700,5.190401611328125,0.41818711161613464,1.1931884288787842,0.7529804110527039
1761391660478467600,5.200467529296875,0.19864442944526672,1.1168501377105713,0.5305723547935486
1761391660488533800,5.21053369140625,0.044104646891355515,0.8998973965644836,0.3698854446411133
1761391660498599700,5.220599609375,-0.04915444925427437,0.6195308566093445,0.25815415382385254
1761391660508665900,5.230665771484375,-0.08580780029296875,0.33595746755599976,0.15035898983478546
1761391660518731500,5.2407314453125,-0.1127510815858841,0.11286778748035431,0.01140579767525196
1761391660528797700,5.250797607421875,-0.1469106525182724,-0.009893819689750671,-0.17484928667545319
1761391660538864600,5.26086474609375,-0.2048400193452835,-0.06363407522439957,-0.3844866454601288
1761391660548930600,5.2709306640625,-0.3020169138908386,-0.034243158996105194,-0.5524468421936035
1761391660558996700,5.280996826171875,-0.46559885144233704,0.011746760457754135,-0.6515529751777649
1761391660569062700,5.291062744140625,-0.645628809928894,0.019868869334459305,-0.7337325811386108
1761391660579128800,5.30112890625,-0.78720623254776,0.027259021997451782,-0.8099199533462524
1761391660589194800,5.31119482421875,-0.86573326587677,0.06940114498138428,-0.8674218654632568
1761391660599261000,5.321260986328125,-0.8596524000167847,0.1433018445968628,-0.8768246173858643
1761391660609327900,5.331327880859375,-0.7959240078926086,0.24941577017307281,-0.8069374561309814
1761391660619393500,5.3413935546875,-0.7110516428947449,0.3523638844490051,-0.6489415168762207
1761391660629459700,5.351459716796875,-0.6107964515686035,0.3938919007778168,-0.4506462514400482
1761391660639525600,5.361525634765625,-0.4960125982761383,0.37502092123031616,-0.2641336917877197
1761391660649591800,5.371591796875,-0.3861718475818634,0.2945103645324707,-0.1478680819272995
1761391660659657700,5.38165771484375,-0.2884008288383484,0.16986830532550812,-0.12625066936016083
1761391660669723600,5.3917236328125,-0.22333766520023346,0.0026241857558488846,-0.16611792147159576
1761391660679790800,5.401790771484375,-0.21037207543849945,-0.18802224099636078,-0.19771914184093475
1761391660689856800,5.411856689453125,-0.23686787486076355,-0.31073084473609924,-0.1750633716583252
1761391660699922700,5.421922607421875,-0.27838343381881714,-0.33914923667907715,-0.09169821441173553
1761391660709988600,5.431988525390625,-0.30602705478668213,-0.2958044111728668,-0.015055103227496147
1761391660720054500,5.442054443359375,-0.2929784953594208,-0.21431855857372284,0.012897361069917679
1761391660730120700,5.45212060546875,-0.2541586458683014,-0.0982433408498764,0.006100175436586142
1761391660740186600,5.4621865234375,-0.21078726649284363,0.026833608746528625,-0.01581113412976265
1761391660750253600,5.472253662109375,-0.16406583786010742,0.16625887155532837,-0.029782874509692192
1761391660760319700,5.48231982421875,-0.10622459650039673,0.25678685307502747,-0.01572599820792675
1761391660770385700,5.4923857421875,-0.04966384917497635,0.23090225458145142,-0.015026652254164219
1761391660780451800,5.502451904296875,-0.012512262910604477,0.09203019738197327,-0.06852441281080246
1761391660790517800,5.512517822265625,-0.012315722182393074,-0.12569361925125122,-0.185126394033432
1761391660800583700,5.522583740234375,-0.053989801555871964,-0.38254261016845703,-0.3531387150287628
1761391660810649600,5.532649658203125,-0.13527001440525055,-0.5469139218330383,-0.4685699939727783
1761391660820716500,5.542716552734375,-0.19399592280387878,-0.5683838129043579,-0.506851315498352
1761391660830782700,5.55278271484375,-0.16916194558143616,-0.4637836515903473,-0.4668373167514801
1761391660840848600,5.5628486328125,-0.0647253766655922,-0.26115766167640686,-0.34831035137176514
1761391660850914800,5.572914794921875,0.06849419325590134,-0.04588928818702698,-0.20880359411239624
1761391660860980700,5.582980712890625,0.19327597320079803,0.13124974071979523,-0.09250720590353012
1761391660871046700,5.593046630859375,0.2815472483634949,0.25285446643829346,-0.01884789764881134
1761391660881112800,5.60311279296875,0.3075065612792969,0.28598248958587646,0.03136945143342018
1761391660891179800,5.6131796875,0.2925132215023041,0.24296845495700836,0.09510902315378189
1761391660901245700,5.62324560546875,0.24897007644176483,0.1841975450515747,0.17075732350349426
1761391660911311600,5.6333115234375,0.18796344101428986,0.17520111799240112,0.23652195930480957
1761391660921377500,5.64337744140625,0.15292412042617798,0.21290738880634308,0.22748157382011414
1761391660931443700,5.653443603515625,0.1671651005744934,0.3148510456085205,0.1543453186750412
1761391660941509600,5.663509521484375,0.19763123989105225,0.4085206389427185,0.056539054960012436
1761391660951575800,5.673575927734375,0.20133596658706665,0.4694574773311615,-0.036610059440135956
1761391660961641700,5.683641845703125,0.18466228246688843,0.4955698847770691,-0.09881232678890228
1761391660971708700,5.693708740234375,0.1621314138174057,0.4490761160850525,-0.11745499074459076
1761391660981774800,5.70377490234375,0.14872761070728302,0.3241410255432129,-0.08944690972566605
1761391660991840500,5.713840576171875,0.1390392929315567,0.21199800074100494,-0.04916872829198837
1761391661001906700,5.72390673828125,0.13255652785301208,0.14765754342079163,-0.025516865774989128
1761391661011972600,5.73397265625,0.10175254940986633,0.17795152962207794,0.014714177697896957
1761391661022038800,5.744038818359375,0.045856770128011703,0.276976078748703,0.0955532118678093
1761391661032104700,5.754104736328125,0.017180118709802628,0.47511178255081177,0.17026260495185852
1761391661042171600,5.764171630859375,0.08855392038822174,0.6914361715316772,0.20316797494888306
1761391661052237800,5.77423779296875,0.2317049503326416,0.874954879283905,0.23228831589221954
1761391661062303700,5.7843037109375,0.3693804442882538,0.9649795293807983,0.3088054955005646
1761391661072370000,5.794369873046875,0.45444101095199585,1.0126285552978516,0.49196359515190125
1761391661082435600,5.804435546875,0.5029760003089905,0.9060591459274292,0.6509654521942139
1761391661092501800,5.814501708984375,0.5835208892822266,0.6434112787246704,0.6936045289039612
1761391661102567700,5.824567626953125,0.7644159197807312,0.35872119665145874,0.6078492999076843
1761391661112634600,5.834634521484375,1.08324134349823,-0.03267398476600647,0.4230083227157593
1761391661122700800,5.84470068359375,1.421851634979248,-0.5947414636611938,0.3146614730358124
1761391661132766700,5.8547666015625,1.6327598094940186,-1.2918529510498047,0.3702448606491089
1761391661142832600,5.86483251953125,1.7209742069244385,-1.9323903322219849,0.6232008337974548
1761391661152898800,5.87489892578125,1.7361036539077759,-2.3601529598236084,1.0380222797393799
1761391661162964700,5.88496484375,1.6920783519744873,-2.3978519439697266,1.479575276374817
1761391661173030700,5.89503076171875,1.5898661613464355,-2.133971691131592,1.726207971572876
1761391661183097600,5.90509765625,1.4756708145141602,-1.8776456117630005,1.648385763168335
1761391661193163500,5.91516357421875,1.3225104808807373,-1.7931560277938843,1.340852975845337
1761391661203229700,5.925229736328125,0.8377310037612915,-1.882240653038025,0.8764923214912415
1761391661213295600,5.935295654296875,0.15321199595928192,-2.2468576431274414,0.36310359835624695
1761391661223361800,5.94536181640625,-0.6950769424438477,-2.4075913429260254,0.009841658174991608
1761391661233427700,5.955427734375,-1.5048222541809082,-2.3886539936065674,-0.11172977834939957
1761391661243494000,5.965493896484375,-1.96373450756073,-2.1546871662139893,-0.15104736387729645
1761391661253560800,5.975560791015625,-2.093055486679077,-1.743955373764038,-0.1427278071641922
1761391661263626800,5.985626708984375,-2.0217533111572266,-1.2259089946746826,-0.1399744749069214
1761391661273692700,5.995692626953125,-1.8359712362289429,-0.587425947189331,-0.1652718335390091
1761391661283758600,6.005758544921875,-1.6426286697387695,0.08932232856750488,-0.20649224519729614
1761391661293824800,6.01582470703125,-1.4396926164627075,0.6206402778625488,-0.1965341418981552
1761391661303890700,6.025890625,-1.1717692613601685,0.9106031060218811,-0.0927639976143837
1761391661313956900,6.035956787109375,-0.9242571592330933,1.0353608131408691,0.09367351979017258
1761391661324023800,6.04602392578125,-0.772122323513031,1.1245503425598145,0.28813064098358154
1761391661334089700,6.05608984375,-0.6688987612724304,1.1776602268218994,0.522709846496582
1761391661344156000,6.066156005859375,-0.6119335293769836,1.1932063102722168,0.7145390510559082
1761391661354221800,6.076221923828125,-0.6027208566665649,1.1930726766586304,0.8104610443115234
1761391661364287500,6.08628759765625,-0.5957152247428894,1.2458786964416504,0.7590943574905396
1761391661374353700,6.096353759765625,-0.5659085512161255,1.3865489959716797,0.580713152885437
1761391661384419600,6.106419677734375,-0.5106494426727295,1.5166527032852173,0.31916895508766174
1761391661394485800,6.11648583984375,-0.43651390075683594,1.574523687362671,0.020747357979416847
1761391661404552700,6.126552734375,-0.35960623621940613,1.5016957521438599,-0.23287951946258545
1761391661414618600,6.13661865234375,-0.2803971767425537,1.3132188320159912,-0.40649282932281494
1761391661424684800,6.146684814453125,-0.2118743509054184,1.0518889427185059,-0.4822060167789459
1761391661434750700,6.156750732421875,-0.1463744342327118,0.747284471988678,-0.48047176003456116
1761391661444816600,6.166816650390625,-0.08182571083307266,0.4555373787879944,-0.4236820340156555
1761391661454882600,6.176882568359375,-0.011882050894200802,0.2136877328157425,-0.33526110649108887
1761391661464948700,6.18694873046875,0.068882055580616,0.04120708256959915,-0.2302389144897461
1761391661475015700,6.197015625,0.1505875587463379,-0.09563972055912018,-0.11446837335824966
1761391661485081600,6.20708154296875,0.23600219190120697,-0.2116764634847641,-0.008708375506103039
1761391661495147500,6.2171474609375,0.3141430616378784,-0.28570595383644104,0.06040624529123306
1761391661505213400,6.22721337890625,0.394937127828598,-0.28863152861595154,0.03667275607585907
1761391661515279600,6.237279541015625,0.4691751301288605,-0.22537106275558472,-0.050535649061203
1761391661525345500,6.247345458984375,0.5206350088119507,-0.0927308052778244,-0.09420742839574814
1761391661535411700,6.25741162109375,0.5570127367973328,0.08199545741081238,0.001084731426090002
1761391661545478700,6.267478759765625,0.6272289156913757,0.22100241482257843,0.1690317690372467
1761391661555544600,6.277544677734375,0.7363311648368835,0.28695210814476013,0.30730363726615906
1761391661565610800,6.28761083984375,0.8614233732223511,0.400578111410141,0.41381821036338806
1761391661575676700,6.2976767578125,0.994645893573761,0.61639803647995,0.45231953263282776
1761391661585742600,6.30774267578125,1.123449683189392,0.918944239616394,0.4007662236690521
1761391661595808500,6.31780859375,1.1552698612213135,1.3311653137207031,0.19577977061271667
1761391661605874400,6.32787451171875,1.0090229511260986,1.6537975072860718,-0.36655062437057495
1761391661615941600,6.337941650390625,0.679865300655365,1.7591981887817383,-1.3108646869659424
1761391661626007600,6.348007568359375,0.2097051590681076,1.5572905540466309,-2.3144583702087402
1761391661636073500,6.358073486328125,-0.3270496428012848,1.1025656461715698,-2.9881057739257812
1761391661646139600,6.3681396484375,-0.7569335103034973,0.3066231310367584,-3.1039347648620605
1761391661656205600,6.37820556640625,-0.9135242104530334,-0.5447425842285156,-2.5262022018432617
1761391661666271700,6.388271728515625,-0.7955403923988342,-1.0993807315826416,-1.6275237798690796
1761391661676337400,6.39833740234375,-0.3931942582130432,-1.2019165754318237,-0.7976919412612915
1761391661686404400,6.408404296875,0.19041751325130463,-1.0659492015838623,-0.18430069088935852
1761391661696470500,6.418470458984375,0.7354803085327148,-0.7675058245658875,0.27492812275886536
1761391661706536400,6.428536376953125,1.0602298974990845,-0.4639836847782135,0.701967179775238
1761391661716602600,6.4386025390625,1.0325007438659668,-0.24683541059494019,1.0290899276733398
1761391661726668500,6.44866845703125,0.7730623483657837,-0.14419886469841003,1.1411564350128174
1761391661736734700,6.458734619140625,0.34591931104660034,-0.00640876917168498,0.986451268196106
1761391661746800600,6.468800537109375,-0.17877668142318726,0.2046840339899063,0.6278364062309265
1761391661756867600,6.47886767578125,-0.694489061832428,0.46659794449806213,0.18920578062534332
1761391661766933800,6.488933837890625,-1.1781822443008423,0.6892293691635132,-0.16567257046699524
1761391661776999400,6.49899951171875,-1.609185814857483,0.8101975917816162,-0.3883568048477173
1761391661787065600,6.509065673828125,-1.932996392250061,0.80616295337677,-0.49420660734176636
1761391661797131500,6.519131591796875,-2.1350224018096924,0.6771988272666931,-0.4840192198753357
1761391661807197700,6.52919775390625,-2.206456184387207,0.43313896656036377,-0.31607213616371155
1761391661817263600,6.539263671875,-2.157855749130249,0.04579685628414154,-0.029077908024191856
1761391661827330600,6.54933056640625,-2.013460874557495,-0.4038907587528229,0.2968239486217499
1761391661837396700,6.559396728515625,-1.8079999685287476,-0.6554303169250488,0.5525172352790833
1761391661847462700,6.569462646484375,-1.5558871030807495,-0.5730900168418884,0.6686387062072754
1761391661857528600,6.579528564453125,-1.2631196975708008,-0.30503326654434204,0.6255277395248413
1761391661867594500,6.589594482421875,-0.9765558242797852,0.06168846786022186,0.48964592814445496
1761391661877660400,6.599660400390625,-0.7655429244041443,0.4451676905155182,0.3833887279033661
1761391661887726600,6.6097265625,-0.6652875542640686,0.7458711862564087,0.32018572092056274
1761391661897793500,6.61979345703125,-0.6760901212692261,0.9640315175056458,0.2905980050563812
1761391661907859500,6.629859375,-0.7315758466720581,1.0798287391662598,0.2564312815666199
1761391661917925600,6.639925537109375,-0.8015235066413879,1.1075204610824585,0.2058173567056656
1761391661927991600,6.649991455078125,-0.8357993960380554,1.0869864225387573,0.15380263328552246
1761391661938057700,6.6600576171875,-0.7475957274436951,0.9877614378929138,0.08048581331968307
1761391661948123600,6.67012353515625,-0.5456508994102478,0.8194987177848816,-0.0034457379952073097
1761391661958189600,6.680189453125,-0.26777592301368713,0.6038542985916138,-0.07362616062164307
1761391661968256500,6.690256591796875,0.052982788532972336,0.3622437119483948,-0.10099129378795624
1761391661978322400,6.700322509765625,0.38470613956451416,0.08895009756088257,-0.0781719982624054
1761391661988388600,6.710388671875,0.6967962980270386,-0.20460107922554016,0.02828877791762352
1761391661998454500,6.72045458984375,0.9471241235733032,-0.45998892188072205,0.1894821971654892
1761391662008520700,6.730520751953125,1.1161726713180542,-0.6402656435966492,0.4052553176879883
1761391662018586600,6.740586669921875,1.2066121101379395,-0.7409219145774841,0.5826090574264526
1761391662028652500,6.750652587890625,1.236963152885437,-0.7730821967124939,0.6565819978713989
1761391662038719700,6.7607197265625,1.2057535648345947,-0.7274587750434875,0.6396355032920837
1761391662048785700,6.77078564453125,1.116698145866394,-0.6348100304603577,0.5385447144508362
1761391662058851600,6.7808515625,0.9822669625282288,-0.5115597248077393,0.39686161279678345
1761391662068917500,6.79091748046875,0.8169133067131042,-0.37802088260650635,0.23075386881828308
1761391662078983400,6.8009833984375,0.6422680020332336,-0.2487236112356186,0.0859234556555748
1761391662089049600,6.811049560546875,0.46919459104537964,-0.17664961516857147,-0.033289097249507904
1761391662099115500,6.821115478515625,0.29303687810897827,-0.24860182404518127,-0.11691714823246002
1761391662109182700,6.8311826171875,0.12171021103858948,-0.4131879210472107,-0.1498657763004303
1761391662119248600,6.84124853515625,0.028961362317204475,-0.610357403755188,-0.13563410937786102
1761391662129314600,6.851314453125,0.03291313722729683,-0.7232338190078735,-0.05305614694952965
1761391662139380700,6.861380615234375,0.09380338340997696,-0.7001889944076538,0.05590123310685158
1761391662149446400,6.8714462890625,0.19093167781829834,-0.48688003420829773,0.15783974528312683
1761391662159512600,6.8815126953125,0.2826823592185974,-0.1014452651143074,0.1557622253894806
1761391662169578500,6.89157861328125,0.32706546783447266,0.30885806679725647,-0.11320856958627701
1761391662179645400,6.9016455078125,0.25540006160736084,0.5366150736808777,-0.7003029584884644
1761391662189711600,6.911711669921875,0.006912290584295988,0.4692259430885315,-1.5531009435653687
1761391662199777500,6.921777587890625,-0.40146589279174805,0.20551945269107819,-2.399158239364624
1761391662209843700,6.93184375,-0.8290987014770508,-0.12265647947788239,-2.8779513835906982
1761391662219909600,6.94190966796875,-1.0913020372390747,-0.48625972867012024,-2.7792322635650635
1761391662229975600,6.9519755859375,-1.0349068641662598,-0.8277499079704285,-2.126049757003784
1761391662240041500,6.96204150390625,-0.66545170545578,-0.9526526927947998,-1.1072698831558228
1761391662250108400,6.9721083984375,-0.1953851878643036,-0.8119775652885437,-0.11388456076383591
1761391662260174600,6.982174560546875,0.00931522436439991,-0.5562043786048889,0.5620701909065247
1761391662270240500,6.992240478515625,-0.18171502649784088,-0.3520108163356781,0.9821870923042297
1761391662280306700,7.002306640625,-0.7164586186408997,-0.15351344645023346,1.2110967636108398
1761391662290372600,7.01237255859375,-1.3355745077133179,-0.03555852174758911,1.147956132888794
1761391662300438500,7.0224384765625,-1.9244271516799927,0.16115054488182068,0.7779490947723389
1761391662310504700,7.032504638671875,-2.0417354106903076,0.2861625850200653,0.39090949296951294
1761391662320571600,7.042571533203125,-1.7966203689575195,0.418552041053772,-0.1532568484544754
1761391662330637600,7.052637451171875,-1.6449111700057983,0.6344983577728271,-0.7025954723358154
1761391662340703500,7.062703369140625,-1.6938490867614746,0.610969066619873,-1.0648051500320435
1761391662350769400,7.072769287109375,-1.8423248529434204,0.43110528588294983,-1.2711421251296997
1761391662360835600,7.082835693359375,-2.010068893432617,0.204119011759758,-1.3391789197921753
1761391662370901500,7.092901611328125,-2.141270637512207,0.06379791349172592,-1.2165416479110718
1761391662380967700,7.1029677734375,-2.1667063236236572,0.13300921022891998,-0.9384833574295044
1761391662391034600,7.11303466796875,-2.052156925201416,0.32129672169685364,-0.6088469624519348
1761391662401100500,7.1231005859375,-1.8158446550369263,0.48991158604621887,-0.3488265573978424
1761391662411166700,7.133166748046875,-1.4856491088867188,0.6252669095993042,-0.19845734536647797
1761391662421232400,7.143232421875,-1.1211191415786743,0.7322311401367188,-0.13382668793201447
1761391662431298600,7.153298583984375,-0.772725522518158,0.8364948630332947,-0.15059888362884521
1761391662441364500,7.163364501953125,-0.47765713930130005,0.8999210000038147,-0.18048007786273956
1761391662451430700,7.1734306640625,-0.24389463663101196,0.8728237152099609,-0.18554805219173431
1761391662461498400,7.183498291015625,-0.07718846946954727,0.7377729415893555,-0.16255991160869598
1761391662471564300,7.193564208984375,0.025001445785164833,0.5389697551727295,-0.11747457832098007
1761391662481630200,7.203630126953125,0.06865251809358597,0.3357889652252197,-0.06852275133132935
1761391662491696000,7.213696044921875,0.06443335860967636,0.1755315661430359,-0.016974151134490967
1761391662501762000,7.223761962890625,0.05644147843122482,0.0739346295595169,0.03638387843966484
1761391662511828200,7.233828125,0.0714976117014885,0.05132829397916794,0.07983588427305222
1761391662521894100,7.24389404296875,0.10112154483795166,0.11144515872001648,0.087529756128788
1761391662531961000,7.253961181640625,0.1555645614862442,0.19960831105709076,0.04265762120485306
1761391662542027300,7.26402734375,0.22121977806091309,0.259398877620697,-0.021956881508231163
1761391662552093200,7.27409326171875,0.29885226488113403,0.27567991614341736,-0.06916037946939468
1761391662562159400,7.284159423828125,0.3630608022212982,0.2529812455177307,-0.0645696222782135
1761391662572225000,7.29422509765625,0.3913361132144928,0.196178138256073,0.012710176408290863
1761391662582291200,7.304291259765625,0.37783125042915344,0.11877229809761047,0.13911151885986328
1761391662592357000,7.314357177734375,0.3615592420101166,0.031949233263731,0.26051175594329834
1761391662602424000,7.324424072265625,0.3691961467266083,-0.011502635665237904,0.3153055012226105
1761391662612490200,7.334490234375,0.39079365134239197,-0.037206582725048065,0.2992716133594513
1761391662622556200,7.34455615234375,0.4293655455112457,-0.07211290299892426,0.24694794416427612
1761391662632622300,7.354622314453125,0.4808479845523834,-0.1189921647310257,0.19753898680210114
1761391662642688300,7.364688232421875,0.5271209478378296,-0.19437825679779053,0.22081421315670013
1761391662652754400,7.37475439453125,0.577314555644989,-0.294283926486969,0.31932201981544495
1761391662662820000,7.384820068359375,0.6223688721656799,-0.3977850079536438,0.5033019781112671
1761391662672887000,7.394886962890625,0.6645879745483398,-0.4381585717201233,0.7088134288787842
1761391662682953200,7.404953125,0.6698328256607056,-0.3907119333744049,0.8660269975662231
1761391662693019100,7.41501904296875,0.6379678845405579,-0.2235986888408661,0.9374671578407288
1761391662703085300,7.425085205078125,0.5532878637313843,0.039871297776699066,0.8990656733512878
1761391662713151200,7.435151123046875,0.43807947635650635,0.3761102557182312,0.7458974123001099
1761391662723217200,7.445217041015625,0.31621214747428894,0.7653506994247437,0.4948987662792206
1761391662733283300,7.455283447265625,0.18713268637657166,1.1558797359466553,0.1800607144832611
1761391662743350300,7.465350341796875,0.0564337894320488,1.4984275102615356,-0.12241579592227936
1761391662753416200,7.475416259765625,-0.05429759994149208,1.7558001279830933,-0.3512880802154541
1761391662763482000,7.485482177734375,-0.15950603783130646,1.6646169424057007,-0.6088674068450928
1761391662773548000,7.495548095703125,-0.2998180091381073,1.2522203922271729,-0.8675200343132019
1761391662783614200,7.5056142578125,-0.47991135716438293,0.4946974515914917,-1.0948597192764282
1761391662793680100,7.51568017578125,-0.6292183995246887,-0.4075140655040741,-1.189916729927063
1761391662803746300,7.525746337890625,-0.6940913796424866,-1.1551382541656494,-1.0304791927337646
1761391662813813200,7.535813232421875,-0.6732106804847717,-1.5698257684707642,-0.6700210571289062
1761391662823879200,7.545879150390625,-0.5528680086135864,-1.4816162586212158,-0.1907106339931488
1761391662833945300,7.5559453125,-0.335908442735672,-1.3252983093261719,0.2760944068431854
1761391662844011300,7.56601123046875,-0.05924729257822037,-1.1318542957305908,0.612995982170105
1761391662854077200,7.5760771484375,0.15663956105709076,-0.688522458076477,0.7992385625839233
1761391662864143000,7.58614306640625,0.2205817997455597,-0.19520007073879242,0.8502064347267151
1761391662874209300,7.596209228515625,0.18878787755966187,0.14270812273025513,0.7849118113517761
1761391662884276200,7.606276123046875,0.10156989097595215,0.27996987104415894,0.6296039819717407
1761391662894342100,7.616342041015625,-0.0729755312204361,0.30055665969848633,0.4509228467941284
1761391662904408300,7.626408203125,-0.31153273582458496,0.2788071632385254,0.30530866980552673
1761391662914474200,7.63647412109375,-0.5361843109130859,0.21166227757930756,0.18490689992904663
1761391662924540200,7.6465400390625,-0.7199338674545288,0.11320707201957703,0.09330427646636963
1761391662934606300,7.6566064453125,-0.8193897008895874,0.03248268738389015,0.037922438234090805
1761391662944672000,7.666672119140625,-0.8174917101860046,-0.023341698572039604,0.07008623331785202
1761391662954739200,7.6767392578125,-0.6689127087593079,0.1948021501302719,0.2575036585330963
1761391662964805000,7.68680517578125,-0.4236465394496918,0.1691436618566513,0.5658913254737854
1761391662974871000,7.69687109375,-0.1045072004199028,-0.0004782509058713913,0.9507706165313721
1761391662984937200,7.706937255859375,0.24260734021663666,-0.043953023850917816,1.388932704925537
1761391662995003100,7.717003173828125,0.4240384101867676,0.26531675457954407,1.516079068183899
1761391663005069300,7.7270693359375,0.4686626195907593,0.6153351664543152,1.328259825706482
1761391663015135200,7.73713525390625,0.42676842212677,0.8818960785865784,1.0641398429870605
1761391663025202200,7.7472021484375,0.3275419771671295,0.9995377659797668,0.84617018699646
1761391663035268400,7.757268310546875,0.1940610259771347,0.9518063068389893,0.6916174292564392
1761391663045334000,7.767333984375,0.08177284151315689,0.862226128578186,0.6004193425178528
1761391663055400200,7.777400146484375,-0.002433200366795063,0.6844960451126099,0.5904910564422607
1761391663065466000,7.787466064453125,-0.03727560490369797,0.4584274888038635,0.6798384785652161
1761391663075532300,7.7975322265625,-0.020603369921445847,0.21457204222679138,0.8145493268966675
1761391663085598200,7.80759814453125,0.045782577246427536,0.0032086754217743874,0.989418625831604
1761391663095665200,7.8176650390625,0.15835492312908173,-0.13101933896541595,1.1667824983596802
1761391663105731300,7.8277314453125,0.31936219334602356,-0.17795568704605103,1.2552825212478638
1761391663115797200,7.83779736328125,0.48911961913108826,-0.15633676946163177,1.2359378337860107
1761391663125863400,7.847863525390625,0.5683915019035339,-0.12362489104270935,1.1416352987289429
1761391663135929000,7.85792919921875,0.4758435785770416,-0.17973549664020538,0.9832866787910461
1761391663145995300,7.867995361328125,0.28116437792778015,-0.29358139634132385,0.7806459665298462
1761391663156061200,7.878061279296875,0.015139401890337467,-0.3158394694328308,0.557305634021759
1761391663166128000,7.888128173828125,-0.2531064450740814,-0.17472918331623077,0.3282477557659149
1761391663176194300,7.8981943359375,-0.3640756607055664,-0.04771392047405243,0.03451118618249893
1761391663186260200,7.90826025390625,-0.35938209295272827,0.0028789490461349487,-0.18068526685237885
1761391663196326100,7.918326171875,-0.28282132744789124,-0.05688156932592392,-0.2750520706176758
1761391663206392300,7.928392333984375,-0.20969733595848083,-0.10144530236721039,-0.21477912366390228
1761391663216458200,7.938458251953125,-0.1879333108663559,-0.10469477623701096,-0.03620370477437973
1761391663226524200,7.948524169921875,-0.17741462588310242,-0.03803665190935135,0.10937799513339996
1761391663236591000,7.958591064453125,-0.1293652206659317,-0.028363928198814392,0.15759754180908203
1761391663246657000,7.968656982421875,-0.06717534363269806,-0.030367957428097725,0.20415093004703522
1761391663256723200,7.97872314453125,-0.02357730269432068,-0.0693223625421524,0.2664603292942047
1761391663266789000,7.9887890625,0.0030324694234877825,-0.13778983056545258,0.341154009103775
1761391663276855300,7.998855224609375,0.029750347137451172,-0.21155251562595367,0.4062841236591339
1761391663286921200,8.008921142578124,0.04394712671637535,-0.2875562012195587,0.45402342081069946
1761391663296987400,8.0189873046875,0.03423143923282623,-0.3011075556278229,0.45437490940093994
1761391663307053000,8.029052978515624,0.015542705543339252,-0.2781335413455963,0.40776345133781433
1761391663317119200,8.039119140625,0.016459595412015915,-0.23960700631141663,0.32688108086586
1761391663327185200,8.04918505859375,0.05920785665512085,-0.21252505481243134,0.25459063053131104
1761391663337252000,8.059252197265625,0.1263214647769928,-0.2154443860054016,0.22218790650367737
1761391663347318300,8.069318359375,0.1649032086133957,-0.21061848104000092,0.23417718708515167
1761391663357384200,8.07938427734375,0.17822736501693726,-0.18762588500976562,0.247486874461174
1761391663367450000,8.0894501953125,0.19157859683036804,-0.14178355038166046,0.23551835119724274
1761391663377516300,8.099516357421875,0.18883675336837769,-0.05499226599931717,0.18749397993087769
1761391663387582200,8.109582275390625,0.1697900891304016,0.05243326351046562,0.1281643509864807
1761391663397648100,8.119648193359374,0.14767561852931976,0.15995506942272186,0.07295825332403183
1761391663407715300,8.12971533203125,0.16231714189052582,0.22558282315731049,0.05214112251996994
1761391663417781000,8.139781005859374,0.21463608741760254,0.21164757013320923,0.04938143864274025
1761391663427847200,8.14984716796875,0.2667788863182068,0.14009588956832886,0.059411969035863876
1761391663437913000,8.1599130859375,0.3039957582950592,0.06748060882091522,0.08951251208782196
1761391663447979300,8.169979248046875,0.30975404381752014,-0.010913802310824394,0.152531698346138
1761391663458045200,8.180045166015624,0.2875748574733734,-0.07760841399431229,0.21614311635494232
1761391663468110800,8.19011083984375,0.2516067326068878,-0.10492392629384995,0.22569400072097778
1761391663478177800,8.200177734375,0.23095963895320892,-0.11051559448242188,0.1911836862564087
1761391663488243700,8.21024365234375,0.20125766098499298,-0.10319963097572327,0.15456628799438477
1761391663498310000,8.220309814453126,0.18362648785114288,-0.09007848054170609,0.11916442960500717
1761391663508375800,8.230375732421875,0.18049673736095428,-0.11107058078050613,0.10866279155015945
1761391663518442000,8.24044189453125,0.18884991109371185,-0.13825273513793945,0.11998003721237183
1761391663528508000,8.2505078125,0.20690588653087616,-0.1710604876279831,0.13059300184249878
1761391663538574000,8.260573974609375,0.23649704456329346,-0.21710656583309174,0.12468568980693817
1761391663548641000,8.27064111328125,0.26770421862602234,-0.2527311444282532,0.053694602102041245
1761391663558706700,8.280706787109375,0.29033464193344116,-0.14270955324172974,-0.0071435184217989445
1761391663568772900,8.29077294921875,0.2876080870628357,-0.004470730200409889,-0.06578312814235687
1761391663578838800,8.3008388671875,0.23801285028457642,0.12341506034135818,-0.05449478700757027
1761391663588905000,8.310905029296874,0.16366592049598694,0.2374979555606842,0.022041531279683113
1761391663598971000,8.320970947265625,0.09772524982690811,0.29024213552474976,0.0932115837931633
1761391663609036800,8.331036865234376,0.06962890177965164,0.28030455112457275,0.11075595766305923
1761391663619104000,8.34110400390625,0.08075539022684097,0.24262934923171997,0.06365729868412018
1761391663629170000,8.351169921875,0.10257946699857712,0.23603776097297668,-0.05918793007731438
1761391663639236000,8.361236083984375,0.09926317632198334,0.28698498010635376,-0.20291420817375183
1761391663649301800,8.3713017578125,0.08711995929479599,0.361049085855484,-0.3268108665943146
1761391663659367700,8.38136767578125,0.0726371556520462,0.43772149085998535,-0.38692641258239746
1761391663669433900,8.391433837890625,0.06210260093212128,0.4932663142681122,-0.3903278410434723
1761391663679500800,8.401500732421875,0.03244993835687637,0.5093244910240173,-0.3306066691875458
1761391663689567000,8.41156689453125,-0.0108978021889925,0.48760002851486206,-0.24816133081912994
1761391663699633000,8.4216328125,-0.06472253054380417,0.4045705497264862,-0.19534626603126526
1761391663709698800,8.43169873046875,-0.11389566957950592,0.2849498987197876,-0.1498379111289978
1761391663719765000,8.441764892578124,-0.15347325801849365,0.19868551194667816,-0.1153649166226387
1761391663729831000,8.451830810546875,-0.1896570920944214,0.12871068716049194,-0.08921720832586288
1761391663739897900,8.46189794921875,-0.2093612551689148,0.10731640458106995,-0.08284914493560791
1761391663749963800,8.4719638671875,-0.2028658092021942,0.16556426882743835,-0.08695733547210693
1761391663760029700,8.48202978515625,-0.17799347639083862,0.29491400718688965,-0.08942501991987228
1761391663770095900,8.492095947265625,-0.13089734315872192,0.4128832519054413,-0.0890636295080185
1761391663780161800,8.502161865234376,-0.05848788470029831,0.48067206144332886,-0.06997094303369522
1761391663790228000,8.51222802734375,0.004104658029973507,0.4640856087207794,-0.027057569473981857
1761391663800295000,8.522294921875,0.04801136627793312,0.39482250809669495,0.005436442326754332
1761391663810360800,8.53236083984375,0.06572271883487701,0.2928852140903473,0.013160143047571182
1761391663820427000,8.542427001953126,0.05873937904834747,0.24807779490947723,-0.0056564221158623695
1761391663830493000,8.552492919921875,0.030763771384954453,0.18541687726974487,-0.03305277228355408
1761391663840558800,8.562558837890625,0.018220946192741394,0.15234880149364471,-0.040816593915224075
1761391663850624800,8.572624755859374,0.015140467323362827,0.13365234434604645,-0.03408465534448624
1761391663860691000,8.58269091796875,0.011575596407055855,0.173772931098938,-0.03774484992027283
1761391663870758000,8.5927578125,0.01786678098142147,0.18846186995506287,-0.046807318925857544
1761391663880823800,8.60282373046875,0.023272622376680374,0.17687037587165833,-0.015537481755018234
1761391663890890000,8.612889892578124,0.03135132044553757,0.12181031703948975,0.05651061236858368
1761391663900956000,8.622955810546875,0.023027151823043823,0.011672105640172958,0.14767129719257355
1761391663911021800,8.633021728515626,0.0020126807503402233,-0.0892915278673172,0.20669013261795044
1761391663921088000,8.643087890625,-0.029210569337010384,-0.12243006378412247,0.21591989696025848
1761391663931153700,8.653153564453126,-0.057201456278562546,-0.08529254794120789,0.18034698069095612
1761391663941220900,8.663220947265625,-0.07848811149597168,-0.020891211926937103,0.13152024149894714
1761391663951286800,8.673286865234376,-0.08415132015943527,0.04144779592752457,0.07614833861589432
1761391663961352700,8.683352783203125,-0.07504929602146149,0.09101789444684982,0.025512227788567543
1761391663971419000,8.6934189453125,-0.06776821613311768,0.10490148514509201,0.013063548132777214
1761391663981484800,8.70348486328125,-0.05986752361059189,0.07797804474830627,0.028719928115606308
1761391663991551000,8.713551025390625,-0.05476676672697067,0.024176862090826035,0.05685249716043472
1761391664001617000,8.723616943359374,-0.0415622815489769,-0.0355977863073349,0.07483016699552536
1761391664011683800,8.733683837890625,-0.033246561884880066,-0.06707209348678589,0.07966646552085876
1761391664021750000,8.74375,-0.0431690588593483,-0.05080554634332657,0.07990504056215286
1761391664031815700,8.753815673828125,-0.04564233496785164,-0.02740674838423729,0.0751505047082901
1761391664041881900,8.7638818359375,-0.04546196013689041,-0.020827917382121086,0.07140979170799255
1761391664051947800,8.77394775390625,-0.04925590008497238,-0.02994498237967491,0.08035747706890106
1761391664062014000,8.784013916015626,-0.06969204545021057,-0.037392329424619675,0.08334001153707504
1761391664072081000,8.794080810546875,-0.07814784348011017,-0.062197279185056686,0.08372191339731216
1761391664082146800,8.804146728515626,-0.08294647186994553,-0.08813104033470154,0.07534895092248917
1761391664092213000,8.814212890625,-0.09920214116573334,-0.13612467050552368,0.05388227477669716
1761391664102279000,8.82427880859375,-0.10271213203668594,-0.15212427079677582,0.004526121076196432
1761391664112345000,8.834344970703125,-0.10799531638622284,-0.17024362087249756,-0.06083211302757263
1761391664122410800,8.84441064453125,-0.07975612580776215,-0.2277470976114273,0.1502053439617157
1761391664132477000,8.854476806640625,-0.07655021548271179,-0.3239324986934662,0.20597273111343384
1761391664142544000,8.8645439453125,-0.07207394391298294,-0.04694609344005585,0.14688381552696228
1761391664152609800,8.87460986328125,-0.09348016232252121,0.19098764657974243,-0.102025605738163
1761391664162676000,8.884676025390625,-0.07986778765916824,0.44160112738609314,-0.3505713641643524
1761391664172742000,8.894741943359374,-0.09429599344730377,0.558211088180542,-0.521137535572052
1761391664182807800,8.904807861328125,-0.09084219485521317,0.4957801401615143,-0.4996723532676697
1761391664192874000,8.9148740234375,-0.09819731116294861,0.2480163872241974,-0.4149335026741028
