time,seconds_elapsed,z,y,x
1761391731766848800,0.060848876953125,0.17733341993689536,0.013630009287875144,-0.028780433076061308
1761391731776915000,0.0709150390625,-0.08665595466792583,-0.011923369766771793,0.0513128020754084
1761391731786980900,0.08098095703125,-0.17491759096682072,-0.030254926075413822,-0.03857343975063413
1761391731797046800,0.091046875,0.07406886029541492,-0.0533856810930185,-0.019493403162248433
1761391731807112700,0.10111279296875,-0.12781272544264793,-0.043140784198790784,0.02774257792830467
1761391731817178600,0.1111787109375,-0.04384732503294945,-0.02371600755965337,-0.02062167653981596
1761391731827244800,0.121244873046875,-0.05194119963943958,-0.0037945151784457266,0.028968649124540388
1761391731837310700,0.131310791015625,-0.08664777136147021,0.012945004432089626,0.006879420782811939
1761391731847377000,0.141376953125,-0.057009004423022265,0.015830204479582607,-0.017384375119023025
1761391731857442800,0.15144287109375,-0.07603168480098248,0.00035091406321153043,0.017811039565876124
1761391731867509800,0.161509765625,-0.046397009515762325,-0.011564729054830967,-0.0015863193433731794
1761391731877576000,0.171575927734375,-0.06808569423258304,-0.006166523273102939,-0.01114895132817328
1761391731887641900,0.181641845703125,-0.06823065566122531,-0.01492797667654231,0.008971278495527804
1761391731897707800,0.191707763671875,-0.049667409488558766,-0.016230474109854547,-0.004480542947538197
1761391731907773700,0.201773681640625,-0.07765256400108336,0.002118617855478078,-0.004937456402182579
1761391731917840000,0.21183984375,-0.053550388401746744,0.0032629838513210416,0.01242832361422479
1761391731927905800,0.22190576171875,-0.06836100404262542,0.0030423816368915137,0.01343406659066677
1761391731937971700,0.2319716796875,-0.06177694947719574,0.008717468131240457,0.018389752769283948
1761391731948038000,0.242037841796875,-0.05325052867233753,0.0032292642448097466,0.015138788149319588
1761391731958103800,0.252103759765625,-0.08018880448043346,-0.004826726036705076,0.012367862131260334
1761391731968169700,0.262169677734375,-0.06342530120611191,0.0036198344649747013,-0.0029325097879394886
1761391731978235600,0.272235595703125,-0.06746200937628746,-0.004404116710461676,-0.001470510943979025
1761391731988302600,0.282302490234375,-0.0677566084086895,-0.013873992377892136,0.0036825244376435876
1761391731998368800,0.29236865234375,-0.0628150603532791,-0.01389306240454316,-0.004493073635548353
1761391732008434700,0.3024345703125,-0.06519464896619319,-0.0070211308084428305,-0.014827237982116638
1761391732018500900,0.3125009765625,-0.0725099404156208,0.00045777197116985915,-0.0195404571743682
1761391732028566800,0.32256689453125,-0.08341653435528278,0.005170333576295524,-0.014602233587205408
1761391732038633000,0.332633056640625,-0.07427227391302585,0.0030221790990792212,-0.005446100044064223
1761391732048699000,0.342698974609375,-0.06408171928822994,0.002684033185895532,0.005643010855652391
1761391732058764800,0.352764892578125,-0.05898936458528042,0.0038783027380704877,0.014490955232456325
1761391732068830700,0.362830810546875,-0.05509995593130588,-0.007926189889386296,0.0050691930230706925
1761391732078896600,0.372896728515625,-0.06257657542228698,-0.001292268300242722,-0.0006676335958763957
1761391732088962800,0.382962890625,-0.06811024415194988,0.006216865220852196,0.0026125571185722945
1761391732099028700,0.39302880859375,-0.07065466793775559,0.0051727812617085875,0.015349216029606759
1761391732109096000,0.403095947265625,-0.06975450422763824,-0.002061572172306478,0.011584091342426836
1761391732119161900,0.413161865234375,-0.05763794997632503,-0.011080251739826052,0.002016673584654927
1761391732129227800,0.423227783203125,-0.06137421389520168,-0.02285310712000355,-0.00385894045047462
1761391732139294000,0.4332939453125,-0.0657131198823452,-0.014504307904373853,-0.01568312415909022
1761391732149359600,0.443359619140625,-0.061220484638214105,-0.021174542915914207,-0.012255743526294827
1761391732159425800,0.45342578125,-0.06750292590856552,-0.022888105368148535,-0.012273133052513003
1761391732169491700,0.46349169921875,-0.06749766521155834,-0.013396675456035881,-0.007861052231304348
1761391732179558000,0.473557861328125,-0.0630032764017582,-0.002550944858137518,0.0004330941876396537
1761391732189623800,0.483623779296875,-0.0642050534069538,-0.010797069150581956,0.002700198869407177
1761391732199690000,0.49368994140625,-0.05418167204260826,-0.013498948520421982,-0.003941650297865271
1761391732209756000,0.503755859375,-0.060168929758667944,-0.013700352844037115,-0.004588094975240528
1761391732219821600,0.513821533203125,-0.06645429363846779,-0.005605363992694765,-0.008175013551302254
1761391732229888800,0.523888671875,-0.0755816029459238,-0.003547006690781563,-0.0026222747949883342
1761391732239954700,0.53395458984375,-0.06854162130653858,-0.0034326961287297307,0.0027233240166679024
1761391732250020900,0.544020751953125,-0.07138239769041538,0.006884170023165643,0.012209748960100113
1761391732260086800,0.554086669921875,-0.06404138727784156,0.00762587350225076,0.006832257172837853
1761391732270152700,0.564152587890625,-0.053718146184086796,-0.0021146175337955356,-0.003886851370707154
1761391732280219000,0.574218994140625,-0.05566811120808124,-0.0027465952944010497,-0.003726582775078714
1761391732290284800,0.584284912109375,-0.07332593297362328,0.00881214241106063,0.0031334391875192523
1761391732300351000,0.59435107421875,-0.07108312248289585,0.01252849605306983,-0.014574395732209085
1761391732310416600,0.604416748046875,-0.05985679506957531,0.0017846549270674585,-0.008860621195286512
1761391732320482800,0.61448291015625,-0.05926292082965374,-0.010353855427727102,0.00041855420563369986
1761391732330548700,0.624548828125,-0.05896598370969295,-0.0018054602530784903,0.008522475282102824
1761391732340615000,0.634614990234375,-0.06585223609209061,-0.008728318318817764,0.020770985350012778
1761391732350681900,0.644681884765625,-0.06286883636713028,0.018578279345016924,0.004939283033087849
1761391732360747800,0.654747802734375,-0.07454641467928887,0.006130228117015212,0.002302687451802194
1761391732370814000,0.66481396484375,-0.059440615484118456,-0.013378683141618965,0.007950739808753132
1761391732380880000,0.6748798828125,-0.07021510747671127,-0.010072645599860697,-0.012257935483381152
1761391732390945800,0.68494580078125,-0.07334931384921073,-0.022689020865783095,-0.015767843300476668
1761391732401011700,0.69501171875,-0.04805938977003097,-0.022965682382695377,-0.014482297001965343
1761391732411077600,0.70507763671875,-0.06301847397089004,-0.015629549074638635,-0.0051852936834096905
1761391732421143800,0.715143798828125,-0.06645838529169559,-0.001594173856265843,-0.0002708162980154156
1761391732431209700,0.725209716796875,-0.05538578713536262,0.007829780310206114,0.010189714374579488
1761391732441276000,0.73527587890625,-0.06660451576411723,0.008606993494089693,0.010188143472000956
1761391732451341800,0.745341796875,-0.060467620444297786,-0.00039113647574558853,0.004019391709193587
1761391732461408000,0.755407958984375,-0.06509995642006397,-0.00596285392716527,-0.0018556012714281676
1761391732471475000,0.765474853515625,-0.059707741987705225,-0.006600421178340912,-0.006314955300465226
1761391732481540600,0.77554052734375,-0.07436930454671382,-0.005155757061671465,-0.0017012144273146985
1761391732491606800,0.785606689453125,-0.060601475957036015,0.004929985481780022,-0.01241407589316368
1761391732501672700,0.795672607421875,-0.06688859340250491,0.008252261772286147,-0.0020554346924647688
1761391732511739000,0.80573876953125,-0.06733984430134296,0.01101076670018956,0.0018561127280816434
1761391732521804800,0.8158046875,-0.06061199735105037,0.009853102831356228,-0.003084850805439055
1761391732531871200,0.825871337890625,-0.05641980635821819,-0.009412062799278646,0.007588884226419031
1761391732541937400,0.8359375,-0.07841127341389656,0.0009689911626279353,-0.00028005905039608475
1761391732552003000,0.846003173828125,-0.06554243949055671,-0.002931359010469168,0.0016655951246619225
1761391732562069200,0.8560693359375,-0.06763385881185531,-0.013679711914807557,-0.006386559231951833
1761391732572135200,0.86613525390625,-0.0671767626941204,-0.013443948663864284,-0.0165923479584977
1761391732582201300,0.876201416015625,-0.06672083562016487,-0.008520082395616918,-0.014681582433730363
1761391732592268300,0.886268310546875,-0.063565001937747,-0.009050700407288968,-0.008417590135522186
1761391732602334200,0.896334228515625,-0.05562251850068569,-0.008137713748216629,0.0019763050416484475
1761391732612400400,0.906400390625,-0.0677303049236536,-0.005894099539890885,0.0006915989933535457
1761391732622466300,0.91646630859375,-0.05425064562559127,0.003849606366548687,-0.0016573387529700994
1761391732632532500,0.926532470703125,-0.06531622951924801,-0.000049099838733673096,0.01383614458553493
1761391732642598100,0.93659814453125,-0.07309212421774863,0.001178103868663311,0.006486256746761501
1761391732652664000,0.9466640625,-0.05453530778586864,-0.0018621406100690363,-0.008195471817441284
1761391732662730200,0.956730224609375,-0.05588847596049309,-0.007877619773615152,0.0005626023188233376
1761391732672796200,0.966796142578125,-0.06172960320413112,-0.008733542483206838,-0.00228902425263077
1761391732682862300,0.9768623046875,-0.06951835738420487,-0.004242606005817651,-0.0017477935153990983
1761391732692928300,0.98692822265625,-0.05874561895728111,-0.005788154947385191,-0.0038925869917497036
1761391732702994400,0.996994384765625,-0.0584627103626728,-0.01090781778236851,-0.004378032421134412
1761391732713061400,1.007061279296875,-0.059063598865270614,-0.007008673185668886,-0.005952113337442278
1761391732723127300,1.017127197265625,-0.06146072313487529,0.0010463307151570916,-0.0010115881953388453
1761391732733193200,1.027193115234375,-0.05832359415292739,-0.00028886341135948894,-0.0017320479569956659
1761391732743259100,1.037259033203125,-0.05667874955534934,0.009080072632245719,0.0031747575785964727
1761391732753325300,1.0473251953125,-0.0604191051274538,0.011517857705801725,-0.006749949184246361
1761391732763391200,1.05739111328125,-0.0676128160238266,0.0016676226849667727,-0.0028275881087407467
1761391732773457400,1.06745751953125,-0.057743748438358306,0.004888539226539433,-0.010590623325668274
1761391732783523300,1.0775234375,-0.06134907945394515,-0.016493399362359194,-0.014797317767888308
1761391732793589200,1.08758935546875,-0.06674655458331108,-0.02277958522606641,-0.0026378742229193446
1761391732803655200,1.0976552734375,-0.07004033543169498,-0.01773707928052172,-0.004773753740452229
1761391732813721000,1.10772119140625,-0.06405424675941467,-0.009874346548784524,-0.008464863343350589
1761391732823787300,1.117787353515625,-0.062409986683726305,0.0007832958647981285,0.00007368629071861505
1761391732833854200,1.127854248046875,-0.062119479304552076,-0.0009585063012316822,0.010930486271902918
1761391732843920100,1.137920166015625,-0.05255553214550018,0.014639716053381562,0.017305062805116175
1761391732853986300,1.147986328125,-0.06753215200304985,0.0014543817930854856,0.014411204527132212
1761391732864052200,1.15805224609375,-0.06649053399562835,-0.0027658114515244957,-0.001533018253557384
1761391732874118400,1.168118408203125,-0.07412555891871452,-0.004392755066230893,-0.015213899212144314
1761391732884184300,1.178184326171875,-0.06394084951281548,-0.004670877887867391,-0.006230638017877936
1761391732894250200,1.188250244140625,-0.06842588597238064,-0.0015516681551001965,0.0020548136379569767
1761391732904316200,1.198316162109375,-0.06573065553903579,-0.0016131160187534987,0.013293050684779881
1761391732914382300,1.20838232421875,-0.058097968703508376,0.006603983108606189,0.01762899752985686
1761391732924448300,1.2184482421875,-0.05854220533967018,-0.001151526388991624,0.021660518068261442
1761391732934514200,1.22851416015625,-0.06213233878612518,0.003517342204879969,0.013347740014083682
1761391732944580400,1.238580322265625,-0.07529752530753613,-0.002214095852896571,0.006273454246297478
1761391732954646300,1.248646240234375,-0.06871463978588581,-0.0008517579911276698,0.0001631912050768733
1761391732964713200,1.258713134765625,-0.06662614307403564,0.0022755437165498734,0.00008647270705550908
1761391732974779400,1.268779296875,-0.06632160716950893,0.0007981646403670311,-0.00742901748958975
1761391732984845000,1.278844970703125,-0.06616729339063167,-0.0026294534544460475,-0.008943002249114216
1761391732994911200,1.2889111328125,-0.07543839508295058,-0.010418298966065049,-0.01076112105436623
1761391733004977200,1.29897705078125,-0.07093523844480513,-0.007531071358267217,-0.011210910648480057
1761391733015043300,1.309043212890625,-0.06763853498697281,0.003255312001518905,-0.00027158348299562927
1761391733025109200,1.319109130859375,-0.06553834783732891,-0.006065638448204845,-0.0033599414197728037
1761391733035175400,1.329175537109375,-0.0552168603092432,0.001479443169105798,0.0026706074487417935
1761391733045241300,1.339241455078125,-0.07047697328329086,-0.0015527093347162007,0.001419657539576292
1761391733055307300,1.349307373046875,-0.06599076777994632,-0.009616006139852105,-0.005996573533676565
1761391733065373200,1.359373291015625,-0.06345218921303748,-0.006481872832588851,-0.00014342705868184566
1761391733075439000,1.369439208984375,-0.0559749852001667,-0.008494856622815131,-0.0036726606307551264
1761391733085506300,1.37950634765625,-0.054928106495738024,-0.009548621725756674,-0.007844576020538806
1761391733095572200,1.389572265625,-0.06734861212968826,-0.00831257712477818,-0.006813369809277355
1761391733105638100,1.39963818359375,-0.06420446888506412,-0.0008303316106088459,-0.009988931105472146
1761391733115704300,1.409704345703125,-0.06121171680986881,-0.0002886624819599092,-0.004983487500995397
1761391733125770200,1.419770263671875,-0.06660626932978629,0.004417798175942153,-0.002709770415350795
1761391733135836400,1.42983642578125,-0.053449266114830966,0.0023192915267311034,0.0008023658914491534
1761391733145902000,1.439902099609375,-0.05450315908193588,-0.004298117319028824,-0.0004379530258476734
1761391733155968300,1.44996826171875,0.1449976689994335,-0.0023026143865659834,0.0029802579198032614
1761391733166034200,1.4600341796875,-0.04452712399065494,-0.06786781369820237,-0.008933540301024914
1761391733176100400,1.470100341796875,-0.7314929045855999,0.014636172389425337,0.06007810967005789
1761391733186166300,1.480166259765625,0.6914414647042751,-0.03360547861233353,-0.11592742266394197
1761391733196232200,1.490232177734375,-0.603573796159029,0.035674777433369304,0.0828671568442136
1761391733206298400,1.50029833984375,-0.0033154081583023068,0.013792689036298543,-0.055983058908767994
1761391733216365300,1.510365234375,0.3040098348259926,0.0303320646985434,0.006535539248585701
1761391733226431500,1.520431396484375,-0.41397476888895035,0.004416501267999411,0.045165860285609954
1761391733236497200,1.5304970703125,0.0661135173767805,0.012597780163306743,-0.05942212997935712
1761391733246563000,1.54056298828125,0.009476853397488593,-0.027091840668302027,0.025219343061000106
1761391733256629200,1.550629150390625,-0.1972960115134716,0.01159154399652034,-0.016466018165089188
1761391733266695200,1.560695068359375,0.054235448056459426,0.011695954219065606,-0.047276093905232845
1761391733276761300,1.57076123046875,-0.13837737407684325,-0.0021355324576608835,0.04624580100942403
1761391733286827300,1.5808271484375,-0.06607376988828181,0.01686723764343187,-0.014891864183545113
1761391733296893400,1.5908935546875,-0.0493348165333271,-0.007153963407874107,0.004026588634960353
1761391733306959000,1.600958984375,-0.09781973823904991,-0.02697338365409523,0.020907873070053755
1761391733317025300,1.611025390625,-0.0237415255934,-0.03308945538159459,-0.021656937871687112
1761391733327091200,1.62109130859375,-0.07776771481335162,-0.033832748029567296,0.011912738774903118
1761391733337158100,1.631158203125,-0.03706453302502632,-0.011338446018286048,0.010789031974598766
1761391733347224300,1.641224365234375,-0.05651625247001647,-0.0016686455982737242,0.015164908971264957
1761391733357290200,1.651290283203125,-0.0797118346184492,-0.0001336728496477008,0.017869089896045624
1761391733367356400,1.6613564453125,-0.03540741346776485,0.01082342743454501,0.0008803995637223123
1761391733377422300,1.67142236328125,-0.07865326547622681,-0.0013559994525276123,0.007227978492155671
1761391733387488300,1.68148828125,-0.05261632242202759,-0.008223894194327295,-0.006245799054391682
1761391733397554200,1.69155419921875,-0.05502046095430851,0.0010759586684405804,-0.002841105177439749
1761391733407620000,1.7016201171875,-0.08689502412080764,0.009255210003443062,0.001556472194381058
1761391733417686300,1.711686279296875,-0.05038344880342483,0.027151443634741007,-0.013369111595675349
1761391733427752200,1.721752197265625,-0.07239011342823505,0.011807342171669006,-0.017804536759853364
1761391733437818400,1.731818359375,-0.0590729512155056,0.0006090170101262629,-0.008520283325016498
1761391733447884300,1.74188427734375,-0.05459083736538887,-0.007034319083578884,-0.008323591709136963
1761391733457950500,1.751950439453125,-0.06267652866542339,-0.0099487817581743,-0.02559822284337133
1761391733468017400,1.762017333984375,-0.06417348922491073,-0.013151833849493413,-0.012804025058820842
1761391733478083300,1.772083251953125,-0.07375088038742542,-0.018078202602081,0.0033513927871361374
1761391733488149200,1.782149169921875,-0.06207330207526683,-0.008382336159050464,0.0006378595121204853
1761391733498215200,1.792215087890625,-0.06805588361620903,-0.01636767235714942,0.004633651150017976
1761391733508281300,1.80228125,-0.06806348240077495,-0.0170746698490344,0.014210128997080027
1761391733518347300,1.81234716796875,-0.0659656333386898,0.00254312687786296,-0.012086524439230561
1761391733528413200,1.8224130859375,-0.06267828223109245,-0.005808795876614749,-0.0040371100289747115
1761391733538479900,1.83247998046875,-0.04682721762657165,0.0016582520684227347,0.008116780558042228
1761391733548545800,1.8425458984375,-0.06030103170573711,0.0010953574886545538,0.008721578050777315
1761391733558612000,1.852612060546875,-0.0787146402746439,0.008548760500829667,0.014089388694241643
1761391733568677600,1.862677734375,-0.0646539662182331,0.01661340901283547,-0.003711531336419284
1761391733578743800,1.872743896484375,-0.06944763023555278,0.002302815315965563,-0.014966134996153414
1761391733588809700,1.882809814453125,-0.07139584169387816,-0.004205890724621713,-0.011956395253539085
1761391733598876700,1.892876708984375,-0.06197276431024074,-0.007483195362240075,-0.01573748469483107
1761391733608942800,1.90294287109375,-0.05719312881827354,-0.007054192827828228,-0.005448328533768654
1761391733619008800,1.9130087890625,-0.07051379816234112,-0.005791643812414258,-0.002283434762060642
1761391733629074700,1.92307470703125,-0.06916647520661354,-0.004136423951294273,-0.007389562262035906
1761391733639140900,1.933140869140625,-0.07066460480988025,0.008123027635738253,-0.007631188998185098
1761391733649206500,1.94320654296875,-0.0645277094900608,0.00048027606392279264,-0.004232888329401612
1761391733659272700,1.953272705078125,-0.06243336755931377,-0.0016329532303847373,-0.006566555441357195
1761391733669338600,1.963338623046875,-0.06348258435130119,-0.008120689548179507,-0.007651756862178444
1761391733679404800,1.97340478515625,-0.0651285979926586,-0.022146748948935417,-0.012020071606896818
1761391733689470700,1.983470703125,-0.06348433791697025,-0.017849928537849336,-0.005064589913189411
1761391733699537000,1.993536865234375,-0.06138824242055416,-0.011675897811725735,-0.00527231437973678
1761391733709602800,2.003602783203125,-0.06482756921947003,-0.01100934192808345,0.006704027683287858
1761391733719669800,2.013669677734375,-0.060198155853152274,-0.0040540246311575176,0.005253646211884916
1761391733729736000,2.02373583984375,-0.0628980624616146,-0.0011600019563920796,-0.00012545301057398318
1761391733739801600,2.033801513671875,-0.07083996137678623,0.008543755532149226,0.00036960049737244844
1761391733749867800,2.04386767578125,-0.06710135937035083,-0.001393463652394712,-0.00025262305419892074
1761391733759933700,2.05393359375,-0.07010404831767082,0.006653283876739442,-0.0007919540952891111
1761391733769999600,2.06399951171875,-0.07459609903991223,0.013666998563706874,0.0016972689045593142
1761391733780065800,2.074065673828125,-0.06338029302060603,0.009550594487134367,-0.006381188937090337
1761391733790131700,2.084131591796875,-0.0627893413901329,0.0035585509981028735,0.0007556772055104374
1761391733800198000,2.094197998046875,-0.05785948377251625,0.002196596728824079,0.00041880993396043776
1761391733810263800,2.104263916015625,-0.06685293756723404,0.0029218422634527084,0.000286379193328321
1761391733820329700,2.114329833984375,-0.05893500404953956,0.012786416336894035,-0.000964607248455286
1761391733830395600,2.124395751953125,-0.07615151178836822,0.015017043199483304,-0.005340703440830112
1761391733840461800,2.1344619140625,-0.07182488076090812,0.012949571009352803,-0.007061645481921732
1761391733850528800,2.14452880859375,-0.06180676009356975,0.010142897824477404,-0.01166526681985706
1761391733860594700,2.1545947265625,-0.0694429540604353,-0.008584544200263918,-0.02363229306526482
1761391733870660900,2.164660888671875,-0.07049100180864333,-0.019700689237378537,-0.02777505542580038
1761391733880726800,2.174726806640625,-0.06031272214353084,-0.020387593789305537,-0.01982142954021692
1761391733890793000,2.18479296875,-0.06629647272825241,-0.016513510568626225,-0.010273483667895197
1761391733900858600,2.194858642578125,-0.07272738255858421,0.0024813136880286035,-0.0012392229387536643
1761391733910924800,2.2049248046875,-0.06539630901813506,0.0008462598321028053,0.011824366371706127
1761391733920990700,2.21499072265625,-0.06315174496173859,0.0073545640138909215,0.011919753037579356
1761391733931056600,2.225056640625,-0.05643032775223255,0.008431874389201403,0.020037958367727697
1761391733941122800,2.235122802734375,-0.046565351819992065,-0.0026387692720629273,0.0347440907208249
1761391733951188700,2.245188720703125,-0.05121113179922104,-0.008132288654427975,0.02278521124925464
1761391733961255000,2.2552548828125,-0.05974690495431423,-0.007232271074783057,0.016075521010160444
1761391733971321900,2.26532177734375,-0.06004851824939251,0.002462974313739687,0.012427081505209207
1761391733981387800,2.2753876953125,-0.07411679109036921,0.0040484899395145475,0.007768880435824394
1761391733991453700,2.28545361328125,-0.07008242100775242,-0.001261909694597125,0.011611271610297262
1761391734001519600,2.29551953125,-0.06515022530257701,-0.010083495787438005,0.01730981204546988
1761391734011585800,2.305585693359375,-0.057821489849686616,0.0027436726849526167,0.020431049338541923
1761391734021651700,2.315651611328125,-0.06785539260804653,-0.0009255356133915484,0.012075016664527356
1761391734031718000,2.3257177734375,-0.07264730305969715,-0.0039774887962266805,-0.002715213775448501
1761391734041783800,2.33578369140625,-0.06666355247497559,-0.001280029873177409,-0.005653568782284855
1761391734051849700,2.345849609375,-0.06156652159690856,-0.0011845336094498634,-0.018616839523427187
1761391734061915600,2.35591552734375,-0.06724281366765499,0.004782959960214794,-0.016970131762325764
1761391734071981600,2.365981689453125,-0.060796706268191336,-0.0020436529231257737,-0.018713541363552213
1761391734082047700,2.3760478515625,-0.061386488854885096,-0.0031016923423856494,-0.024037878191471098
1761391734092113700,2.38611376953125,-0.06362053151726722,0.0018792561416514217,-0.02991002162788063
1761391734102180600,2.3961806640625,-0.06136193893551826,0.020644217165187,-0.03411244175378233
1761391734112246800,2.406246826171875,-0.06164543205201625,0.008208367831632495,-0.022878405958041546
1761391734122312700,2.416312744140625,-0.07525660877525805,-0.011259754758886992,0.004339819302596151
1761391734132379000,2.42637890625,-0.05550093794763088,-0.04014934729784727,0.015183175280317663
1761391734142444800,2.43644482421875,-0.055953357890248294,-0.04709611596213653,0.019394107506237924
1761391734152510700,2.4465107421875,-0.05415536855757236,-0.03901073518935591,0.016891513568162916
1761391734162576600,2.45657666015625,-0.05146364525556564,-0.009928816682379693,0.0010264204382896423
1761391734172642800,2.466642822265625,-0.06314063904583454,0.014771361342724412,0.002244965915195644
1761391734182708700,2.476708740234375,-0.0760129801005125,0.024206092631537467,0.0021923589451238513
1761391734192774700,2.486774658203125,-0.07631108626425266,0.018986421754490584,0.006932246948592365
1761391734202840800,2.4968408203125,-0.07107786178588867,-0.0018370427014306186,-0.0059274538202211255
1761391734212906800,2.50690673828125,-0.06734159786701202,-0.0093604422098957,-0.014417013213410972
1761391734222973000,2.516972900390625,-0.07018003616333007,-0.014363748656213282,-0.01419887695070356
1761391734233040000,2.527039794921875,-0.06583645400106906,-0.010884765700343996,-0.011652663066610693
1761391734243105500,2.53710546875,-0.0737561410844326,0.006469470008742064,-0.009880904153734445
1761391734253171700,2.547171630859375,-0.07345277422368526,0.004952964498568326,0.006040120414458215
1761391734263237600,2.557237548828125,-0.06536416031420231,-0.0035985724812373516,0.004338686791434884
1761391734273303800,2.5673037109375,-0.06879997998178004,-0.00390957465916872,0.00027048750445246697
1761391734283369700,2.57736962890625,-0.06265548587739467,0.01534327947916463,-0.005498085959628224
1761391734293436000,2.587435791015625,-0.07730477347671985,0.013390665840357542,-0.002508183428645134
1761391734303501800,2.597501708984375,-0.07294833183288574,0.014411149728205053,-0.003892806187458336
1761391734313567700,2.607567626953125,-0.0615606763780117,0.01008468309752643,-0.00016289894413203001
1761391734323633700,2.617633544921875,-0.07547638900578021,0.013611322853714226,0.004961714060604572
1761391734333699600,2.627699462890625,-0.05945932018458843,-0.004367237032484263,0.0009216083569452166
1761391734343765800,2.637765869140625,-0.05705167452096939,-0.005539623546414077,-0.00908500453568995
1761391734353832700,2.647832763671875,-0.0646808542251587,-0.002505936672631651,0.001592310692742467
1761391734363899000,2.65789892578125,-0.0785877990245819,-0.0006577880552969872,0.013969415576383471
1761391734373964800,2.66796484375,-0.06585866583287715,-0.003354077934566885,0.005003799636662006
1761391734384030700,2.67803076171875,-0.058660863283276556,-0.00846230606008321,-0.002031834621168673
1761391734394097000,2.688096923828125,-0.05640870044231414,-0.003920278716273606,-0.00786525348238647
1761391734404162600,2.69816259765625,-0.05281856699585914,-0.013321253865957259,-0.0014149813644587993
1761391734414228700,2.708228759765625,-0.06402794327437877,-0.00791365920137614,-0.006500248739495873
1761391734424294700,2.718294677734375,-0.06326572673022747,-0.008315773728862405,-0.003972264631837606
1761391734434360800,2.72836083984375,-0.0695429073035717,-0.00005962123274803161,-0.004219626989029348
1761391734444426800,2.7384267578125,-0.08764028953015804,0.011552929019182919,0.006938238297961652
1761391734454493000,2.748492919921875,-0.05740063408911228,0.008825221088342368,-0.00988006390351802
1761391734464558800,2.758558837890625,-0.060543023768067354,0.008353055265638976,-0.010741722234152257
1761391734474624800,2.768624755859375,-0.0801473034262657,0.015560465893801301,-0.00709025052189827
1761391734484692000,2.77869189453125,-0.056661798420548436,0.015350111078750341,0.0009902166137471795
1761391734494757600,2.788757568359375,-0.06624678836762905,0.038205665884166955,0.01131097348947078
1761391734504823800,2.79882373046875,-0.050559389892220495,0.047771677136141805,0.006989968485198915
1761391734514889700,2.8088896484375,-0.05986614741981029,0.03397613855563104,0.013460041282139719
1761391734524955600,2.81895556640625,-0.06243161399364471,0.026293529897462576,-0.004220284576155245
1761391734535021000,2.82902099609375,-0.06559387741684913,0.015450520979613065,-0.009361739117838441
1761391734545087000,2.8390869140625,-0.09314239407777786,-0.01565758785903454,-0.013689064265042543
1761391734555153200,2.849153076171875,-0.08147416811585426,-0.030197642930224537,-0.018197335469722745
1761391734565219000,2.859218994140625,-0.08774842607975006,-0.043250254188943654,-0.018313655325770378
1761391734575285200,2.86928515625,-0.08354337560534476,-0.059470480899419635,-0.024690679544396698
1761391734585351200,2.87935107421875,-0.06645896981358528,-0.08539866634951904,-0.01974040019325912
1761391734595417000,2.8894169921875,-0.06477028607428073,-0.09381532490327954,-0.013213117316365241
1761391734605483000,2.89948291015625,-0.06277355929911137,-0.06992527595097199,-0.00890267023872584
1761391734615550000,2.909550048828125,-0.07348784553706646,-0.04045039433734491,-0.004612791025079786
1761391734625616100,2.9196162109375,-0.06116203244924545,-0.025557415908947584,0.013193499300442635
1761391734635682000,2.92968212890625,-0.048398996987938876,0.008113090763613582,0.0263662846064195
1761391734645748200,2.939748291015625,-0.0416273108959198,-0.025324155142344533,0.03737984605189413
1761391734655814100,2.949814208984375,-0.03067746233642101,0.02167763359984383,0.04746288518160581
1761391734665880300,2.95988037109375,-0.04906126028895378,0.04008724184706807,0.043487844070792196
1761391734675946200,2.9699462890625,-0.04306289665699005,-0.007061992541793734,0.014179879989288746
1761391734686012000,2.980011962890625,-0.05891103865206241,-0.01553014382077381,-0.0072767860699445
1761391734696078000,2.990078125,-0.07685176901221275,-0.015920494845230133,-0.02565236418340355
1761391734706144000,3.00014404296875,-0.07278408118188381,-0.010285393301397562,-0.05699753318093717
1761391734716210200,3.010210205078125,-0.07231178749501704,-0.0019736929594539104,-0.050030251451581714
1761391734726276000,3.020276123046875,-0.06645254007279873,0.02625332575123757,-0.0367883098995313
1761391734736342300,3.03034228515625,-0.05551087481975555,0.045879397116135805,-0.00907170666269958
1761391734746409200,3.0404091796875,-0.04787409633100032,0.0621277356762439,-0.0025815774584189055
1761391734756475100,3.05047509765625,-0.05131985287070274,0.0443550370930694,0.009058518387563526
1761391734766541300,3.060541259765625,-0.052229953452944754,0.03885070405574515,-0.002242043305747211
1761391734776607000,3.07060693359375,-0.06541092206537723,0.03760170864164829,-0.020933445902727544
1761391734786673200,3.080673095703125,-0.0782920309484005,0.032718631041515615,-0.052913551802933216
1761391734796739000,3.090739013671875,-0.06767828247547149,0.04674861769871786,-0.06690032037291675
1761391734806805200,3.10080517578125,-0.08489537473618984,0.04044235716136172,-0.04142265516929328
1761391734816871200,3.11087109375,-0.0682926149815321,0.029786358715593812,-0.025561945953592655
1761391734826937000,3.12093701171875,-0.06291676716208458,-0.0016645904776640234,-0.0013761106587946415
1761391734837003300,3.131003173828125,-0.062324646487832064,-0.02759473042283207,0.00848539467472583
1761391734847069000,3.14106884765625,-0.04841302551329136,-0.030739330325182525,0.008798260016180575
1761391734857135000,3.151135009765625,-0.06202946293354034,-0.01597158571165055,0.0033212168445810675
1761391734867202000,3.1612021484375,-0.04857143094539642,-0.00560297110620886,0.009129610862396657
1761391734877268000,3.17126806640625,-0.061299395093321794,-0.004453746272157878,0.016042166729830203
1761391734887334100,3.181334228515625,-0.07193243278861046,-0.0018916589654982088,0.021684848791919648
1761391734897400000,3.191400146484375,-0.0610159019768238,-0.010553652316145598,0.02203125107679516
1761391734907466200,3.20146630859375,-0.05294774633347988,-0.02702582622738555,0.0146467303160578
1761391734917532200,3.2115322265625,-0.06596738690435885,-0.027569248921703544,0.010587700716219842
1761391734927598300,3.221598388671875,-0.03963467577397823,-0.021626213939860462,0.021976671345345675
1761391734937664000,3.2316640625,-0.05311199698448181,-0.015307075654622167,0.031361827871389684
1761391734947730200,3.241730224609375,-0.0573211391121149,0.00967774626445025,0.045115481805242594
1761391734957796000,3.251796142578125,-0.06227028595209121,0.00742854256555438,0.036630890848115084
1761391734967862000,3.261862060546875,-0.07574176194369793,0.00039215938905254,-0.00008420768473297357
1761391734977928200,3.27192822265625,-0.08367547755241393,0.012140830176044256,-0.026088563643582165
1761391734987994000,3.281994140625,-0.08382336159050464,-0.0023492848061956464,-0.011655256882496178
1761391734998061000,3.29206103515625,-0.07439093185663223,0.005472348730172961,0.00878149154447019
1761391735008127200,3.302127197265625,-0.06974573639929295,0.004169157177116722,0.016179492841288445
1761391735018193200,3.312193115234375,-0.0805097069978714,0.009747852358594536,-0.001987630153261125
1761391735028259000,3.322259033203125,-0.06313537834882736,-0.004606142088584602,-0.019250278588756917
1761391735038325000,3.332324951171875,-0.06850888808071613,-0.018712408852390942,-0.029490444508939978
1761391735048391200,3.34239111328125,-0.06834697551727295,-0.009735979257710277,-0.02268602519109845
1761391735058457000,3.35245703125,-0.0605541296839714,-0.007576938060298561,0.006673413349315524
1761391735068523300,3.362523193359375,-0.063085693988204,0.009361866982001811,0.01091254875641316
1761391735078589200,3.372589111328125,-0.05829261449277401,0.0012613799716345965,0.008396730010583997
1761391735088655400,3.3826552734375,-0.05813946975767612,-0.010898008774407207,0.011455204265750944
1761391735098721000,3.392720947265625,-0.050205169627070424,-0.01582273355918005,0.004292363431677222
1761391735108787000,3.402786865234375,-0.05170271470844745,-0.0088240885771811,0.0030166444074362516
1761391735118853000,3.41285302734375,-0.05650047037899494,-0.01777171220248565,-0.0045003436265513294
1761391735128920000,3.422920166015625,-0.06757949827611447,-0.01063210611352697,0.0036547596478834748
1761391735138986000,3.432986083984375,-0.07371288646459578,-0.004142871958389878,-0.008114113676920533
1761391735149052200,3.44305224609375,-0.07864625121355057,0.018126699652615933,-0.019758995295874774
1761391735159118000,3.4531181640625,-0.06412146677672863,0.009392737044300884,-0.02104837751928717
1761391735169184300,3.463184326171875,-0.06591302636861801,-0.0021138868814334273,-0.014299158987402916
1761391735179250200,3.473250244140625,-0.045265375137329096,-0.006417995549831539,0.004748582766577601
1761391735189316000,3.483316162109375,-0.04571253438293934,-0.007491342136077582,0.0026302023731172085
1761391735199382000,3.493382080078125,-0.06801379804015159,0.009411112951207905,0.002196706326678395
1761391735209448200,3.5034482421875,-0.06861877819597721,0.02734926776178181,-0.001917779787443578
1761391735219514000,3.51351416015625,-0.07939327018857002,0.008294858804997056,-0.012778561824001371
1761391735229580300,3.523580322265625,-0.0832850169301033,0.00980255995420739,-0.02083754778020084
1761391735239646200,3.533646240234375,-0.07055646826028823,0.014828388759586959,-0.028839762047864495
1761391735249712000,3.543712158203125,-0.07907236767113208,-0.011341533024515956,-0.018642047029919923
1761391735259779300,3.553779296875,-0.05183890830874443,-0.002267049882840365,-0.006612476942315698
1761391735269845200,3.56384521484375,-0.06290916837751866,-0.008150938555970787,0.006060176821798086
1761391735279911200,3.5739111328125,-0.06276128433942794,0.006505399838648736,0.004174582270905375
1761391735289977000,3.58397705078125,-0.06709960580468177,-0.0022304624658077954,0.011685396292433143
1761391735300043000,3.59404296875,-0.06186170515120029,0.007696308389957994,0.015653203944861888
1761391735310109200,3.604109130859375,-0.061416299471259116,-0.01581955522140488,-0.0014336495323106645
1761391735320175000,3.614175048828125,-0.07398176653385162,-0.009232103122491389,-0.016218546210043133
1761391735330241300,3.6242412109375,-0.07815992900133133,-0.011584109608735889,-0.02576842831112444
1761391735340307200,3.63430712890625,-0.06902560543119907,-0.008347264845669269,-0.010037848281115293
1761391735350373000,3.644373046875,-0.054955579024553294,0.0062895651308819646,0.003350296808592975
1761391735360439000,3.65443896484375,-0.058985857453942296,0.00881334798745811,0.02267002390436828
1761391735370505200,3.664505126953125,-0.05374503419101238,0.021742405931744722,0.006214782861620188
1761391735380572200,3.674572265625,-0.0630243191897869,-0.008198796285688877,-0.002705276903323829
1761391735390638000,3.68463818359375,-0.07304477794468403,0.0024010515260510143,-0.010168013999424875
1761391735400704300,3.694704345703125,-0.07215045945346354,0.000640179333370179,-0.012934044646658002
1761391735410770200,3.704770263671875,-0.0884568666100502,0.005013809574022889,0.002461165949143469
1761391735420836000,3.714836181640625,-0.057035307908058164,0.011427384677063673,-0.0007181582067161798
1761391735430902300,3.72490234375,-0.07094809792637824,0.000939710269216448,-0.005900894606858492
1761391735440968000,3.734968017578125,-0.07303308750689029,0.0008874138263985515,-0.006749364662356675
1761391735451034000,3.7450341796875,-0.05567278738319874,0.004344312814623118,-0.0050503421921283004
1761391735461100000,3.75510009765625,-0.04998188226521015,-0.0014897819000296293,0.004084602432511747
1761391735471166200,3.765166259765625,-0.06598375351727008,0.004189944236818701,0.012329502882249653
1761391735481232100,3.775232177734375,-0.06553308714032173,0.005166205390449613,0.011744031144492328
1761391735491298300,3.78529833984375,-0.06298807883262635,0.02146229208242148,-0.003985160646028816
1761391735501364200,3.7953642578125,-0.07136603107750415,0.013826043316628784,-0.015120083448849618
1761391735511431200,3.80543115234375,-0.07330722827315331,-0.0005159866981208324,-0.015258176745288073
1761391735521497000,3.8154970703125,-0.05819207672774791,-0.012234408477321266,-0.01630940283127129
1761391735531563000,3.82556298828125,-0.0447206007361412,-0.02457362903598696,0.005178535149060189
1761391735541629400,3.83562939453125,-0.05639584096074104,-0.013759919277857989,0.014059906871430576
1761391735551695400,3.8456953125,-0.058791211664676664,-0.005071841637883335,0.0052445495899766685
1761391735561761000,3.855760986328125,-0.05235211852788925,0.010029902436677366,-0.0007396393861621618
1761391735571827200,3.8658271484375,-0.08167816625535487,0.013650211825687437,-0.004893982586637139
1761391735581893000,3.87589306640625,-0.06431786613166332,0.02412692644810304,-0.008567191206663846
1761391735591959300,3.885959228515625,-0.06371697762906552,0.009864227013569324,-0.016811689797602593
1761391735602025200,3.896025146484375,-0.06940788274705409,-0.006593205986265093,-0.012018756432645022
1761391735612091400,3.90609130859375,-0.06910860753953456,-0.020527093591541052,-0.01573375836778432
1761391735622157300,3.9161572265625,-0.06596738690435885,-0.015580631898995488,-0.02571439656894654
1761391735632223500,3.926223388671875,-0.06163783326745033,-0.00340332390377298,-0.008690306129679084
1761391735642290400,3.93629052734375,-0.05924129351973533,0.007202679654117673,0.008614793208055197
1761391735652356000,3.946356201171875,-0.07046411380171776,0.00584370279321447,0.014295359595119952
1761391735662422300,3.95642236328125,-0.06058452482223511,0.0016275829355232416,0.0026844533110037443
1761391735672488200,3.96648828125,-0.0688064097225666,-0.011752433646656572,0.010560264720022678
1761391735682554400,3.976554443359375,-0.07314765379726887,-0.00664625134775415,-0.009753514914400876
1761391735692620300,3.986620361328125,-0.06207622468471527,0.00192859344240278,-0.01946538264416158
1761391735702686200,3.996686279296875,-0.0709025052189827,0.0029942864451557396,-0.008034216841123997
1761391735712752400,4.00675244140625,-0.05683890855312347,-0.0062827152649872,0.001165317452326417
1761391735722818000,4.016818115234375,-0.04890636198818683,-0.00461754026543349,0.0006453121662139892
1761391735732884200,4.02688427734375,-0.062220601591467854,0.01185982127757743,0.006050093819200992
1761391735742950100,4.0369501953125,-0.06970481986701488,0.017318945199996234,-0.004864208502881229
1761391735753016300,4.047016357421875,-0.06162380474209785,0.019284436586685477,0.005404343261569738
1761391735763082200,4.057082275390625,-0.06597498568892479,0.007507361689116805,0.016493782954849302
1761391735773149200,4.067149169921875,-0.06569032352864741,0.002689257350284606,0.010103972319886087
1761391735783215400,4.07721533203125,-0.06271452258825302,-0.009687372609321027,0.00222063519153744
1761391735793281300,4.08728125,-0.06736088708937167,-0.020246705747582017,-0.01555971697513014
1761391735803347500,4.097347412109375,-0.06960194401443004,-0.009357884926628321,-0.022222755060903727
1761391735813413000,4.1074130859375,-0.07872457714676856,0.008418521717283875,-0.018313984119333326
1761391735823479300,4.117479248046875,-0.0628588994950056,0.012027725190389901,-0.012633636927977204
1761391735833545200,4.127545166015625,-0.0757253953307867,0.017029131940566003,-0.006481580571644008
1761391735843611100,4.137611083984375,-0.07242050856649875,0.01799140110146254,0.002928089341148734
1761391735853677300,4.14767724609375,-0.05625204857587814,0.013981380008812994,0.0008661153100430965
1761391735863743200,4.1577431640625,-0.06059679978191852,-0.0035304391484707594,0.01226885873619467
1761391735873809400,4.167809326171875,-0.05445698185265064,0.0017472089935094118,0.020752536377869547
1761391735883875300,4.177875244140625,-0.057146951588988304,-0.012365487511083482,0.01740019374266267
1761391735893941200,4.187941162109375,-0.08349252220094204,-0.018915402344893664,0.03813950531277805
1761391735904008200,4.19800830078125,-0.07466974879801273,0.03056570905763656,0.003955678823217749
1761391735914074000,4.20807421875,-0.09052432053387165,0.023148546402622015,-0.0453915953328833
1761391735924140300,4.218140380859375,-0.032171500286459924,0.009374708197265862,-0.04445760241840035
1761391735934206200,4.228206298828125,-0.07016776120364665,-0.015665972094889728,-0.009739997845701873
1761391735944272400,4.2382724609375,-0.07855448127686977,0.01851020081117749,0.007175554185174405
1761391735954338300,4.24833837890625,-0.03366027753949165,-0.024351218456961213,0.02570730924103409
1761391735964404200,4.258404296875,-0.0797685332417488,-0.000037701661884784696,0.000052497372217476366
1761391735974470100,4.26847021484375,-0.07033785707354545,0.0008402867490425706,-0.019771233722940085
1761391735984536000,4.2785361328125,-0.0719867933243513,0.005004292827006429,-0.014712927420064806
1761391735994602200,4.288602294921875,-0.05762333692908287,-0.0037569413807243108,-0.0005069996740669012
1761391736004668200,4.298668212890625,-0.08485212011635303,0.001726768993679434,0.00434676050003618
1761391736014734300,4.308734375,-0.052691141223907466,-0.01984660051409155,0.01159742574803531
1761391736024800300,4.31880029296875,-0.06482230852246285,-0.011974405834265053,0.001968304398283362
1761391736034867200,4.3288671875,-0.07245557987987995,0.005976297930628061,-0.010690613101422787
1761391736044933400,4.338933349609375,-0.056897945263981814,0.018735972391068934,-0.004885616617091
1761391736054999300,4.348999267578125,-0.06079787531197071,0.012590729368012398,0.011564254130795598
1761391736065065200,4.359065185546875,-0.07382394562363624,0.014617394623719155,0.01666760515179485
1761391736075131100,4.369131103515625,-0.05572714791893959,0.01081911658560857,0.0017472820587456225
1761391736085197300,4.379197265625,-0.05542728818953037,-0.013448807502072304,-0.010957045485265552
1761391736095263200,4.38926318359375,-0.0641138679921627,-0.017699688145890832,-0.012896379517391324
1761391736105329200,4.3993291015625,-0.06651976009011268,-0.004266662734840065,-0.002318944466859102
1761391736115395300,4.409395263671875,-0.058143561410903925,0.005481810678262263,-0.011057729380764067
1761391736125461200,4.419461181640625,-0.07819500031471252,0.0006644187254831195,-0.0014557152336463332
1761391736135527400,4.42952734375,-0.0708498982489109,0.0012127915895543992,-0.006897723624482751
1761391736145593000,4.439593017578125,-0.07876432463526725,0.001990461431164294,-0.017298706129565834
1761391736155659300,4.4496591796875,-0.06304477745592593,-0.0035344577364623546,0.003986366222426295
1761391736165726200,4.459726318359375,-0.04986731597483158,-0.0029977570438757535,0.005841127243638038
1761391736175792000,4.469792236328125,-0.057197804993391034,0.004519322321657091,0.008144362684711814
1761391736185858300,4.4798583984375,-0.06064414605498313,0.008349913460481912,0.014775105936080217
1761391736195924200,4.48992431640625,-0.07232172436714172,0.012115586136933415,0.007445932091772556
1761391736205990400,4.499990478515625,-0.06574176145493983,0.003468918219581246,-0.003063844550028443
1761391736216056300,4.510056396484375,-0.05108312150537967,0.009964965707994997,0.0070693538643419734
1761391736226122200,4.520122314453125,-0.06231178700625896,0.007411408767662942,0.006958038976974785
1761391736236188200,4.530188232421875,-0.0711374830186367,-0.0007280585462227464,-0.00834510942120105
1761391736246254000,4.540254150390625,-0.07757657615542411,0.006857409880403429,-0.005600888746976852
1761391736256320300,4.5503203125,-0.07203706220686436,0.020639467924833295,-0.019317571671307085
1761391736266386200,4.56038623046875,-0.06575988163352012,0.0054912726263515645,-0.00303337634652853
1761391736276452400,4.570452392578125,-0.07443184838891029,-0.003963862129673362,0.010247326313331723
1761391736286518300,4.580518310546875,-0.0451128149241209,-0.01799625993967056,0.011878142385557294
1761391736296585200,4.590585205078125,-0.06636077013611794,-0.008578899910766631,0.006340710796229541
1761391736306651400,4.6006513671875,-0.06306582024395466,-0.004889781335555017,-0.014213489997945725
1761391736316717000,4.610717041015625,-0.07010580188333988,0.0158298208870925,0.0025466888081282376
1761391736326783200,4.620783203125,-0.07099895133078098,0.025146478754188864,0.009101151952892541
1761391736336849200,4.63084912109375,-0.06516133121848106,0.007370108642894774,0.0030265812795609234
1761391736346915300,4.640915283203125,-0.07369009011089801,0.005730890068504959,-0.011505765409208833
1761391736356981200,4.650981201171875,-0.06980360406637191,0.008503003396652638,0.004108092905953526
1761391736367047400,4.66104736328125,-0.06800386116802692,-0.01327905869204551,0.026077896119095383
1761391736377113300,4.67111328125,-0.05471007983088493,0.0013470672274008392,0.029818543952144682
1761391736387179300,4.68117919921875,-0.0892494782924652,0.018232991304993628,-0.04695398581139743
1761391736397245200,4.6912451171875,-0.025525486400723454,0.01655345898652449,-0.029679172014072535
1761391736407311000,4.70131103515625,-0.07876958533227443,-0.048965526563208545,0.0036073403095826504
1761391736417377300,4.711377197265625,-0.0690548315256834,0.09998637822102754,-0.030512955957092344
1761391736427444200,4.7214443359375,-0.0638046559125185,-0.054695886908750976,0.04953950879257172
1761391736437510100,4.73151025390625,-0.07668459575176238,0.08653536049555986,-0.037315439046174285
1761391736447576300,4.741576416015625,-0.06845218945741653,-0.05264375841822475,0.02730031405352056
1761391736457642200,4.751642333984375,-0.04945288995504379,0.05106151246177032,-0.009380443818308413
1761391736467708400,4.76170849609375,-0.043321839854121205,-0.03454401983777061,0.00812711928896606
1761391736477774000,4.771774169921875,-0.09000409605205059,0.01105626807603985,-0.004856646250933409
1761391736487840300,4.78184033203125,-0.03718786714375019,-0.03110768871353939,-0.004850070379674434
1761391736497906200,4.79190625,-0.07938333331644534,-0.0063876186778768895,-0.0076413085334002965
1761391736507972400,4.801972412109375,-0.07085983512103557,-0.015584668753296137,-0.0183097463356331
1761391736518038300,4.812038330078125,-0.06561784281432628,-0.004364241357799619,-0.023088614642620086
1761391736528104200,4.822104248046875,-0.07339490655660628,0.0027631080377846953,-0.029430348352156577
1761391736538170000,4.832170166015625,-0.06291267550885676,-0.00250073077455163,0.000003872457519173622
1761391736548235800,4.84223583984375,-0.07114975797832011,0.013075407612416892,0.003343574806861579
1761391736558303200,4.85230322265625,-0.0678565616518259,0.012553593961708246,0.006528342322818934
1761391736568369000,4.862368896484375,-0.06486556314229965,0.013765837561991064,0.00013904314450919627
1761391736578435000,4.87243505859375,-0.06068097093403339,-0.0038198870817199347,0.007422770411893725
1761391736588501000,4.8825009765625,-0.056637833023071286,0.0016667824347503483,-0.0008643617443740367
1761391736598567000,4.89256689453125,-0.06546586712300777,0.006661759444139897,0.0028080066254362462
1761391736608633000,4.902633056640625,-0.061129299223423,0.0010935673903673887,-0.003962291227094829
1761391736618699000,4.912698974609375,-0.0629284575998783,-0.010877897568140178,-0.005804777288623154
1761391736628765200,4.92276513671875,-0.07594225295186043,-0.0011282916438765823,-0.005667122383601963
1761391736638830800,4.932830810546875,-0.06277239025533199,0.00442041025813669,0.0022006153168156743
1761391736648897000,4.94289697265625,-0.0669587360292673,0.013033285503741353,0.008293708027526736
1761391736658963000,4.952962890625,-0.0500537784576416,0.012582144202757627,0.015299714332073926
1761391736669029000,4.963029052734375,-0.05364449642598629,0.008162592461146414,0.014314904545806348
1761391736679095000,4.973094970703125,-0.06397533630430698,0.004526446182187646,0.00271291222050786
1761391736689162000,4.983161865234375,-0.06816226660013198,0.006764909291360527,-0.013394465232640504
1761391736699228200,4.993228271484375,-0.07159808626770973,-0.003750676036719233,-0.016078005228191614
1761391736709294000,5.003294189453125,-0.0632166268914938,0.0015809125158935784,-0.009645707158371805
1761391736719360000,5.013360107421875,-0.06905015535056591,0.006312781609687954,0.008444733870774507
1761391736729426000,5.023426025390625,-0.054826984208822246,0.002725461174827069,0.0165842377172783
1761391736739491800,5.033491943359375,-0.06080722766220569,0.007760295270569622,0.019773133419081566
1761391736749558000,5.04355810546875,-0.06320084480047225,0.00007772314501926302,-0.006241561270691454
1761391736759624000,5.0536240234375,-0.06126373925805091,0.004147895193379372,-0.011405958296544848
1761391736769690000,5.063690185546875,-0.05901449902653694,0.007258994684927165,-0.01917472913451493
1761391736779756000,5.073756103515625,-0.07562836469709873,0.01635726056098938,-0.006734751615114509
1761391736789822200,5.083822265625,-0.06829495306909084,0.020685499023646116,-0.010805033261328935
1761391736799888000,5.093887939453125,-0.06470131249129772,0.014528492497559636,0.0027647885382175445
1761391736809954000,5.1039541015625,-0.06769231100082397,0.007719999792799353,0.0022053645571693775
1761391736820021000,5.11402099609375,-0.06753916626572609,0.01055062010884285,-0.0043246217334643
1761391736830087000,5.1240869140625,-0.06380699400007725,0.006585278408136218,-0.004435352098941803
1761391736840153000,5.134153076171875,-0.06530979977846145,0.0022129998743534085,0.007168466857261955
1761391736850219000,5.144218994140625,-0.06845452754497527,-0.004048252477496862,0.010367372496426105
1761391736860285000,5.154284912109375,-0.06620587183535098,-0.013398885679431259,0.006105111942067742
1761391736870351000,5.16435107421875,-0.057982817891240115,-0.010621073262859135,0.00579557106886059
1761391736880417000,5.1744169921875,-0.06680792938172816,0.003134736095461994,-0.006588767273165285
1761391736890483000,5.18448291015625,-0.06965805811583996,0.01226082156021148,-0.009802651285752653
1761391736900548900,5.194548828125,-0.06770633952617645,0.0108196463085711,-0.006614668899402022
1761391736910615000,5.204614990234375,-0.05977087035179138,0.0019327581608667968,-0.0002651902748271823
1761391736920681000,5.214680908203125,-0.06261164673566817,-0.0012539821164682507,0.00029996932726353406
1761391736930747100,5.2247470703125,-0.0662006111383438,-0.003963259341474622,0.007727963903546333
1761391736940814000,5.23481396484375,-0.04465805689394474,-0.006895732596796006,-0.0027929186541587113
1761391736950880000,5.2448798828125,-0.06650222443342209,0.0007117101996205747,0.009401669269427657
1761391736960946200,5.2549462890625,-0.05348842908143997,0.005038030699826777,0.008510492583364247
1761391736971012000,5.26501220703125,-0.0714507867515087,0.005922795911412686,0.005557013072632253
1761391736981078000,5.275078125,-0.06531856760680675,0.00795605530468747,0.007055909860879182
1761391736991144000,5.28514404296875,-0.05574702166318893,0.004595931221824139,-0.005593984082154929
1761391737001209900,5.2952099609375,-0.06427578055560589,0.0007664360615424812,-0.00837568722255528
1761391737011276000,5.305276123046875,-0.06667290482521057,-0.006128054426237941,-0.01112418221309781
1761391737021342000,5.315342041015625,-0.06487374644875527,0.004943758278805762,-0.013339227914065123
1761391737031408000,5.325408203125,-0.061278936827182766,0.007177326017152518,-0.0020662483474239704
1761391737041474000,5.33547412109375,-0.0638175153940916,0.015176727273222059,-0.00349587929174304
1761391737051540000,5.3455400390625,-0.05842939261496067,0.005685808817762881,0.006277692029997706
1761391737061606000,5.35560595703125,-0.05409574732482433,0.004597191597148776,0.003645991819538176
1761391737071672800,5.3656728515625,-0.060981415185332295,-0.001850066579785198,-0.0055489758966490626
1761391737081739000,5.375739013671875,-0.05918985559344291,0.007249532736837864,-0.011521547500230371
1761391737091805000,5.385804931640625,-0.0627852497369051,-0.005101159063912928,0.0022967691676691175
1761391737101871000,5.39587109375,-0.07012099945247173,0.008537179660890251,0.006415675728581845
1761391737111937000,5.40593701171875,-0.05351531708836555,0.0040579153549857435,0.007756532410904765
1761391737122003200,5.416003173828125,-0.053225394231081004,-0.015992847695387898,0.00936645182557404
1761391737132069000,5.426069091796875,-0.0593693038135767,-0.003938581557944416,0.00026603052504360674
1761391737142134800,5.436134765625,-0.06700549778044224,0.015209734493680297,-0.0009242387054488062
1761391737152201000,5.446200927734375,-0.06566343552172184,0.014643405847810207,-0.002598492060601711
1761391737162267000,5.456266845703125,-0.0824222626209259,0.0150342317963019,-0.0031307357737794515
1761391737172333000,5.4663330078125,-0.08481120358407497,0.01177632597889751,-0.005877477198652923
1761391737182399000,5.47639892578125,-0.06819499982595444,0.007240545712783932,-0.007961955322511493
1761391737192465200,5.486465087890625,-0.06340192033052444,0.004481492795608937,-0.00024173633400350808
1761391737202532000,5.496531982421875,-0.06055646777153015,-0.0003826791746541857,-0.011902326978743076
1761391737212598000,5.506597900390625,-0.06250526375174523,0.004166398964449763,-0.011093787074834108
1761391737222663000,5.516662841796875,-0.07088672312796115,0.015747019708156586,-0.008863141945935786
1761391737232729900,5.526729736328125,-0.06385317122936249,0.0116648649610579,-0.002699577814899385
1761391737242796000,5.536796142578125,-0.0650596244096756,0.018222506443597377,0.01556727922707796
1761391737252862000,5.546862060546875,-0.05086334127485752,-0.0061098977150395506,0.025690869562886656
1761391737262928100,5.55692822265625,-0.04998129774332046,-0.02581836840007454,0.012342289298586547
1761391737272994000,5.566994140625,-0.06630407151281834,-0.027041169926989822,-0.0029541370978578923
1761391737283060000,5.57706005859375,-0.0645189416617155,-0.02908646681793034,-0.0082252824338153
1761391737293126100,5.587126220703125,-0.06961188088655472,-0.013231365359108894,-0.012098032213933765
1761391737303191800,5.59719189453125,-0.08501987789869309,-0.006433741108234971,-0.0063441083297133445
1761391737313258000,5.607258056640625,-0.06690788262486458,-0.0025611557248979805,0.013985855254530905
1761391737323324000,5.617323974609375,-0.06181552792191505,-0.006065108725242316,0.0010330328421667217
1761391737333390000,5.62739013671875,-0.05089548997879028,-0.017153817766159773,0.008916004644334315
1761391737343456000,5.6374560546875,-0.055385202613472934,-0.00006869958834722638,0.010091806958056986
1761391737353522200,5.647522216796875,-0.06136778415441513,0.008064356251060962,-0.002784041227959096
1761391737363589000,5.657589111328125,-0.06899170316159725,0.0247710147716105,0.000003872457519173622
1761391737373655000,5.667655029296875,-0.06854746652543545,0.030252679319400337,0.007703012125380337
1761391737383721200,5.67772119140625,-0.06392506742179394,0.028955259920004753,0.008159633319079875
1761391737393787000,5.687786865234375,-0.05181202030181885,0.015802037831023335,0.002973280189745128
1761391737403853000,5.69785302734375,-0.056314592418074606,0.003239036720152944,0.009951448639295995
1761391737413919000,5.7079189453125,-0.0632119507163763,-0.005364486175216734,0.001781951513327658
1761391737423985000,5.71798486328125,-0.0552910945892334,-0.004341079677920788,-0.006270641234703361
1761391737434051000,5.728051025390625,-0.06891396175026893,0.00620413360344246,-0.021877156493626534
1761391737444117000,5.738116943359375,-0.06981880163550376,0.023944299890194087,-0.01904445381835103
1761391737454183200,5.74818310546875,-0.06577975537776946,0.025334840933140364,-0.015315752151422201
1761391737464248800,5.758248779296875,-0.05485562578141689,0.0160728723953478,0.0006746113259345292
1761391737474315000,5.76831494140625,-0.06474047545790672,-0.0010210684097371994,0.003232917506620288
1761391737484382000,5.7783818359375,-0.06145370887219905,-0.01653217873647809,0.003631744098477065
1761391737494447900,5.78844775390625,-0.06864449715912342,-0.020355810411553828,-0.011467223497107625
1761391737504514000,5.79851416015625,-0.07508242125213145,-0.0045671069861389696,-0.022946758486516772
1761391737514580000,5.808580078125,-0.07164367897510528,0.006138721950724721,-0.015160232796147465
1761391737524646100,5.818646240234375,-0.07270049455165863,0.012545976910833269,-0.004962956169620156
1761391737534712000,5.828712158203125,-0.05069967514574528,0.009184080995991826,0.002764569342508912
1761391737544778500,5.838778564453125,-0.058332361981272694,0.0029604024418629703,-0.002351714225299656
1761391737554844700,5.8488447265625,-0.059230772125720976,-0.006055610244534909,0.00667615329567343
1761391737564910600,5.85891064453125,-0.06522212149500846,-0.0018806078485213219,0.0037307109609246254
1761391737574976800,5.868976806640625,-0.061035191199183464,0.006418653136957437,-0.000584485357068479
1761391737585042700,5.879042724609375,-0.07659984007775783,0.010791370062157512,0.005148468804359436
1761391737595108900,5.88910888671875,-0.06493102959394455,0.0063119230931624765,-0.0001528159415349364
1761391737605174500,5.899174560546875,-0.0520621956706047,-0.003497870319429785,-0.008903400891087949
1761391737615241500,5.909241455078125,-0.05176408950686454,-0.004493676423747092,-0.00742456051018089
1761391737625307600,5.9193076171875,-0.04309095370769501,-0.009938552625104784,-0.004806706161983311
1761391737635373600,5.92937353515625,-0.05176759663820266,0.001559212140738964,0.008299589779041707
1761391737645439700,5.939439697265625,-0.0694382778853178,0.027160065332613885,0.0018182649357244372
1761391737655505700,5.949505615234375,-0.07318155606687068,0.03484457368692383,0.0028658742925152182
1761391737665571600,5.959571533203125,-0.07124503504633903,0.020011271290201693,0.008970401712693274
1761391737675637800,5.9696376953125,-0.07050970650911331,0.01343980221170932,-0.005460713091306388
1761391737685703400,5.979703369140625,-0.06527472846508026,0.004237034781556576,-0.006517528667859733
1761391737695769600,5.98976953125,-0.06782324390411376,-0.0032208617426455017,-0.012241605403088033
1761391737705835500,5.99983544921875,-0.059742228779196736,-0.008518968150764703,-0.0025956059837713838
1761391737715901700,6.009901611328125,-0.06572831745147704,-0.0015100757693871855,-0.016161372662708163
1761391737725967600,6.019967529296875,-0.0703618224710226,0.008658833279181271,-0.0003245923118665814
1761391737736034600,6.03003466796875,-0.0660135641336441,0.008339355533849447,-0.005054251182265579
1761391737746100700,6.040100830078125,-0.060170098802447315,0.00301717413039878,-0.012679485363699495
1761391737756166700,6.050166748046875,-0.05956453412473201,0.0066014075590297575,-0.0054057315010577435
1761391737766232800,6.06023291015625,-0.06449556078612804,-0.005127426016330719,0.0026777313092723487
1761391737776298500,6.070298583984375,-0.05521452222168445,0.0015306801659986376,0.009978044385276734
1761391737786364700,6.08036474609375,-0.05909633209109306,0.009313041137903929,0.012376958753168582
1761391737796430600,6.0904306640625,-0.055662850511074065,0.012931487363390623,0.013050510633178055
1761391737806496500,6.10049658203125,-0.07107493917644024,0.008157076035812496,0.0076260744316503405
1761391737816562700,6.110562744140625,-0.0610550649434328,0.0028352416922338307,-0.0007918444974347948
1761391737826628600,6.120628662109375,-0.06120879420042038,0.004491155673097819,0.0018582681525498627
1761391737836694800,6.13069482421875,-0.07018295877277851,0.0025536665381863713,0.00008818974010646343
1761391737846760400,6.140760498046875,-0.06389233419597148,-0.0013538622943684458,-0.0012803951993584633
1761391737856826600,6.15082666015625,-0.0638911651521921,0.00043366044322028756,-0.002494410631619394
1761391737866893600,6.1608935546875,-0.06314297713339329,-0.0025479491834528743,-0.010897460785135626
1761391737876959500,6.17095947265625,-0.05925532204508781,-0.005438756987825036,-0.012085684189014135
1761391737887025700,6.181025634765625,-0.063604164904356,0.002111731456965208,-0.0069258172078058115
1761391737897091600,6.191091552734375,-0.06900047098994255,-0.0020522928873077033,-0.0005284443208947777
1761391737907157800,6.20115771484375,-0.06555822158157826,-0.010062580863572656,-0.010778035656549036
1761391737917223700,6.2112236328125,-0.05927285770177841,0.002442680444382131,-0.01072060638088733
1761391737927289600,6.22128955078125,-0.060925885605812066,0.006846139567717909,-0.015206629221141337
1761391737937355500,6.23135546875,-0.05913081888258457,0.006573295709397644,-0.015817418063245714
1761391737947421400,6.24142138671875,-0.056739539831876754,0.010291567313857376,-0.010455416106060147
1761391737957487600,6.251487548828125,-0.05853519107699394,0.014341354161314665,0.00644987025912851
1761391737967553500,6.261553466796875,-0.06213000069856643,0.01592102456819266,0.003011091449484229
1761391737977619700,6.27161962890625,-0.067673606300354,0.011212371953204273,-0.002845708287321031
1761391737987686700,6.281686767578125,-0.06811784293651581,0.0019789901890791954,-0.00929272900223732
1761391737997752600,6.291752685546875,-0.0724532417923212,0.013673556168656795,-0.013326222302019596
1761391738007818800,6.30181884765625,-0.06692015758454799,0.012071746995206922,0.0039327363390475505
1761391738017884700,6.311884765625,-0.07185352233350277,0.0055685939125716686,0.00774900669157505
1761391738027950600,6.32195068359375,-0.05942600243687629,0.003214139740914106,-0.0035913755554705857
1761391738038016500,6.3320166015625,-0.05597556972205638,-0.011161153222620486,-0.0031169264441356062
1761391738048082700,6.342082763671875,-0.07347557057738303,0.001967829474247992,-0.00032572482302784916
1761391738058148600,6.352148681640625,-0.05924830778241157,0.00984205171437934,-0.003027786855958402
1761391738068214500,6.362214599609375,-0.062089084166288375,0.0104399080096744,0.002437164019048214
1761391738078280700,6.37228076171875,-0.0656821402221918,0.01247780704544857,0.002389488952420652
1761391738088346600,6.3823466796875,-0.06223287655115127,-0.0019693273115903138,0.008529416479542851
1761391738098412500,6.39241259765625,-0.056390580263733864,-0.004925839029625058,-0.005752681775204837
1761391738108479700,6.402479736328125,-0.0686538495093584,-0.0014693966991268098,-0.007643025566451251
1761391738118545400,6.41254541015625,-0.05936871929168701,0.0037780937666073437,-0.013269633276574313
1761391738128611600,6.422611572265625,-0.05951309619843959,0.005401384119503199,-0.005628397808410227
1761391738138677500,6.432677490234375,-0.06385667836070061,0.010623831475526094,-0.014623897429741918
1761391738148743700,6.44274365234375,-0.0560708467900753,0.02028818853544071,-0.009616261868178844
1761391738158809600,6.4528095703125,-0.06444587642550469,0.01260707771461457,-0.014343180792219936
1761391738168875800,6.462875732421875,-0.06069558398127556,0.0081047795929946,-0.008497925362735987
1761391738178941700,6.472941650390625,-0.06966799498796462,0.004815693186037242,-0.011522899207100272
1761391738189007600,6.483007568359375,-0.062324646487832064,0.009166983730718493,0.00848484668545425
1761391738199073500,6.493073486328125,-0.06905541604757308,-0.004899206751026213,0.000609692863561213
1761391738209139700,6.5031396484375,-0.06785948426127433,-0.007696436254121363,0.010033391301706433
1761391738219205600,6.51320556640625,-0.06366437065899372,-0.0015237207022495568,0.01119918367806822
1761391738229271600,6.523271484375,-0.05558452457785606,-0.0012966887470334768,0.005289521242864429
1761391738239338800,6.5333388671875,-0.06141863755881786,-0.006596238193567842,0.007668890660069883
1761391738249404700,6.54340478515625,-0.07308920160830021,-0.005203212932590395,-0.0007985299665480851
1761391738259470600,6.553470703125,-0.06636135465800762,-0.00647356166196987,0.01263151803612709
1761391738269536800,6.563536865234375,-0.06921382147967815,0.023495460144151,0.0077762600246816865
1761391738279602400,6.5736025390625,-0.07638473602235317,0.016383472714480013,-0.03723506728634238
1761391738289668600,6.583668701171875,-0.042565468528866765,-0.0039022681355476378,-0.030136925718933342
1761391738299734500,6.593734619140625,-0.05258475823998451,0.023082860755268483,-0.034106669600121674
1761391738309800700,6.60380078125,-0.07667758148908614,-0.011309055527020245,0.019488434726186096
1761391738319866600,6.61386669921875,-0.056634325891733166,0.020011070360802113,0.019696487986296415
1761391738329932800,6.623932861328125,-0.052443303942680354,-0.018906214391440152,-0.0012620558250695465
1761391738339998700,6.633998779296875,-0.07369418176412582,0.01509072949020192,-0.0018180092073976993
1761391738350064600,6.644064697265625,-0.0552910945892334,0.011081201587896793,-0.013446341550350188
1761391738360131800,6.6541318359375,-0.06936053647398949,0.0029704123792238532,0.0012064531803131103
1761391738370197500,6.664197509765625,-0.05935118363499641,-0.0076291797041893004,0.014109518166817724
1761391738380263700,6.674263671875,-0.04992109198868274,-0.004427698515448719,0.0007859992785379291
1761391738390329600,6.68432958984375,-0.08045885359346866,-0.009138689217995852,-0.005058488965965807
1761391738400395500,6.6943955078125,-0.07582710213959216,-0.0050631651410833,-0.010248751085437834
1761391738410461700,6.704461669921875,-0.06954466086924076,0.011185246484261006,-0.01714475767686963
1761391738420527600,6.714527587890625,-0.07522562911510466,0.011617116829194129,-0.005614223152585327
1761391738430593800,6.72459375,-0.05951368072032928,0.007687869355175644,0.0011578282656148076
1761391738440659500,6.734659423828125,-0.06564706890881061,-0.004487612009141594,0.006547229686379432
1761391738450725600,6.7447255859375,-0.05187339510023593,-0.005662574072647839,-0.0013246361998841165
1761391738460791600,6.75479150390625,-0.04125438593029976,-0.013991389946173875,0.006712357120215892
1761391738470857700,6.764857666015625,-0.05772153660655022,-0.0060973122281022364,-0.0006843290023505688
1761391738480923600,6.774923583984375,-0.07373977447152137,0.010433825328759848,-0.000524827591702342
1761391738490990600,6.784990478515625,-0.06716156512498855,0.014698478769604116,0.002430332419462502
1761391738501056800,6.795056884765625,-0.0668628744393587,0.024774101777840403,0.005704422186687588
1761391738511122700,6.805122802734375,-0.06731237177252769,0.01286443174285814,0.015826003228500484
1761391738521188600,6.815188720703125,-0.05713643019497394,0.005885678771417588,0.00421896940190345
1761391738531254500,6.825254638671875,-0.0674555796355009,-0.003159085085429251,-0.01415094615574926
1761391738541320400,6.835320556640625,-0.05383797317147255,-0.00593315290864557,-0.010628215389698744
1761391738551386600,6.84538671875,-0.05488368283212185,-0.004910367465857416,-0.0004867606036365032
1761391738561452500,6.85545263671875,-0.07269114220142364,0.005192691538576036,-0.0026414178868755696
1761391738571518700,6.865518798828125,-0.07074585335254668,0.020460622492898255,-0.005188070162385702
1761391738581584600,6.875584716796875,-0.076731942024827,0.01316376174930483,-0.0017607625948265193
1761391738591650800,6.88565087890625,-0.07074702239632606,-0.0031677433159202333,-0.0027636560270562767
1761391738601716700,6.895716796875,-0.05951192715466022,-0.008453519965428858,-0.00818538881484419
1761391738611783000,6.905782958984375,-0.058012628507614135,-0.005056735400296748,0.00029397797789424654
1761391738621849900,6.915849853515625,-0.0637000264942646,0.010726597730256617,0.00669040101673454
1761391738631915500,6.92591552734375,-0.0665402183562517,0.017442315851338208,0.0015442337673157453
1761391738641981700,6.935981689453125,-0.0684884298145771,0.02695204860512167,-0.002021897749044001
1761391738652047600,6.946047607421875,-0.06668751787245274,0.004493219766020774,-0.000831628518551588
1761391738662113800,6.95611376953125,-0.061308747443556785,-0.009734207425732165,-0.006833499281853437
1761391738672179700,6.9661796875,-0.06281389130949974,-0.020969777591433376,-0.00431355235017836
1761391738682245600,6.97624560546875,-0.05742401496469974,-0.008393971797917038,-0.006658325378037989
1761391738692311800,6.986311767578125,-0.06820201408863068,-0.002094488061219454,-0.006102481593564153
1761391738702377500,6.99637744140625,-0.07328793905079364,0.011537968912068753,0.0028060703966766593
1761391738712443600,7.006443603515625,-0.06475801111459732,0.013120835923030972,-0.008363485328108072
1761391738722509600,7.016509521484375,-0.06550035391449928,-0.0008645992063917219,-0.01265643328167498
1761391738732575700,7.02657568359375,-0.07088380051851272,-0.004946224230527877,-0.014060272197611629
1761391738742642700,7.036642578125,-0.05562777919769287,-0.0098606833496131,-0.016861447223462164
1761391738752708600,7.04670849609375,-0.05937397998869419,0.007846530515607446,-0.0023725012850016355
1761391738762774800,7.05677490234375,-0.06715279729664325,0.011870178274810314,0.0011673632789403199
1761391738772840700,7.0668408203125,-0.06745265702605246,0.015347316333465278,-0.003932297947630286
1761391738782907000,7.076906982421875,-0.060413844430446624,0.014874620787799357,-0.002592866037413478
1761391738792972500,7.08697265625,-0.06698796212375163,0.009204922854620963,-0.016521292016282677
1761391738803038700,7.097038818359375,-0.0677303049236536,0.00011644772021099924,-0.011656243263185024
1761391738813104600,7.107104736328125,-0.060245502126216884,-0.007132884087227284,-0.005260806605033576
1761391738823170600,7.117170654296875,-0.056501054900884626,0.0037817835610359906,0.004368314744718373
1761391738833236700,7.12723681640625,-0.061140989661216734,0.01734817129448056,0.004164280072599649
1761391738843302700,7.137302734375,-0.06532675091326236,0.01334056135462597,0.0026405776366591454
1761391738853368800,7.147368896484375,-0.07056406704485416,0.00269205209556967,-0.00046896921861916776
1761391738863434500,7.1574345703125,-0.06608078415095806,0.0008004479289986193,-0.0007784370265901088
1761391738873501700,7.167501708984375,-0.05410276158750057,-0.007592647086083888,-0.0031112638883292673
1761391738883567600,7.177567626953125,-0.05589724378883838,-0.010661387006938456,-0.008887107343412935
1761391738893633500,7.187633544921875,-0.05259937128722667,-0.009253200709447264,-0.016624679325520992
1761391738903699700,7.19769970703125,-0.0648632250547409,-0.002445182928722352,-0.007620850267261266
1761391738913765600,7.207765625,-0.08087386413514613,0.01469769331831485,-0.008454634210281073
1761391738923831800,7.217831787109375,-0.05948328558206558,0.014968381752166896,0.004686915707215666
1761391738933897700,7.227897705078125,-0.06501812335550784,0.008436075640283525,0.00008417115211486816
1761391738943963600,7.237963623046875,-0.0786316381663084,0.0069462206750176845,-0.002272401911392808
1761391738954029600,7.248029541015625,-0.06277239025533199,0.004134743450861424,-0.01105992133785039
1761391738964095500,7.258095458984375,-0.06696984194517135,0.00951172378147021,-0.0016834595749154685
1761391738974161700,7.26816162109375,-0.06996025593280791,0.005385912555735558,-0.00003634995501488447
1761391738984227600,7.2782275390625,-0.06516893000304698,0.012562069529108702,0.001978862324915826
1761391738994293800,7.288293701171875,-0.0684627108514309,0.008014982417691498,-0.005847849245369434
1761391739004360700,7.298360595703125,-0.0725011725872755,0.013436039352044462,-0.00039605011288076637
1761391739014426600,7.308426513671875,-0.06247896026670932,0.01419239241098985,-0.006860204625688493
1761391739024492800,7.318492919921875,-0.05724047509133815,0.011000336637720464,0.002877126338891685
1761391739034558700,7.328558837890625,-0.06397241369485855,0.002771400942094624,0.005979184007458388
1761391739044624600,7.338624755859375,-0.0665144993931055,-0.001280596128758043,0.007272877079807221
1761391739054690600,7.348690673828125,-0.06577215659320354,0.010097889638971536,-0.001695844132453203
1761391739064756700,7.3587568359375,-0.06727437784969806,0.0002710720263421535,0.002474609952606261
1761391739074822700,7.36882275390625,-0.06802431943416595,-0.008643927970994263,0.001408661221526563
1761391739084888600,7.378888671875,-0.06906418387591838,-0.00031542262472212314,-0.005199943263269961
1761391739094954800,7.388954833984375,-0.07489946590065956,-0.004268398034200072,-0.0033774040112271903
1761391739105020700,7.399020751953125,-0.06307751068174838,0.004675974188093096,0.002785319869592786
1761391739115086600,7.409086669921875,-0.06695756698548794,0.009379165176674724,0.002370601588860154
1761391739125153800,7.41915380859375,-0.06620704087913036,0.009251100083906203,-0.0004100786382332444
1761391739135219500,7.429219482421875,-0.06815408329367638,0.000525320782046765,-0.010014759666472672
1761391739145285600,7.43928564453125,-0.06470949579775333,-0.004931556384358555,0.002688033507578075
1761391739155351600,7.4493515625,-0.06216156488060951,0.00523868610477075,-0.0010290873194113374
1761391739165417700,7.459417724609375,-0.05707154826521873,0.01076307554943487,0.001467697932384908
1761391739175483600,7.469483642578125,-0.0609679711818695,0.010617365202121436,-0.0061503027906641364
1761391739185549800,7.4795498046875,-0.06679857703149318,0.005690302329789847,-0.004228102556429803
1761391739195615700,7.48961572265625,-0.06709960580468177,0.01079420134006068,-0.006292926131747663
1761391739205681700,7.499681640625,-0.06156126089990139,0.0014994082449004053,0.0005510214788839221
1761391739215747600,7.50974755859375,-0.055579848402738566,0.005045483353920281,-0.004954955526255071
1761391739225813500,7.5198134765625,-0.05588263074159622,0.002362052956223488,-0.007403371591679752
1761391739235879700,7.529879638671875,-0.06500935552716255,0.0019944069539196787,-0.004388517282530665
1761391739245945600,7.539945556640625,-0.07204056933820248,0.017145944986958057,-0.009265183408185839
1761391739256012800,7.5500126953125,-0.06724690532088279,0.00828280304102227,-0.01195690671019256
1761391739266078700,7.56007861328125,-0.0675426733970642,0.009105608932301402,-0.0103207568757236
1761391739276144600,7.57014453125,-0.06349661287665367,-0.0016075447944924235,-0.0053417994193732735
1761391739286210800,7.5802109375,-0.05421674335598945,-0.0007990414232015609,-0.0007058832470327616
1761391739296276500,7.5902763671875,-0.0449339512258768,0.0020311770340427754,-0.008938435671851038
1761391739306342700,7.6003427734375,-0.06289630889594555,0.0010106931461952627,-0.003084777740202844
1761391739316408600,7.61040869140625,-0.07262275314033032,0.0049130708795972165,0.00229300630800426
1761391739326474800,7.620474853515625,-0.07202244915962219,0.01340772657301277,-0.0008738236924633383
1761391739336540700,7.630540771484375,-0.06948094798326492,0.016050021242722867,-0.0016361133018508553
1761391739346606800,7.64060693359375,-0.06274491772651672,0.016153024959471077,-0.0007749664278700947
1761391739356672800,7.6506728515625,-0.06468962205350398,0.0004091470564715564,0.0037384924085810778
1761391739366738400,7.660738525390625,-0.062144029223918915,-0.0012782580411992966,0.013172091186232865
1761391739376804600,7.6708046875,-0.05376549245715141,-0.008772614118270575,-0.0018929376071318983
1761391739386871600,7.68087158203125,-0.060498600104451176,-0.0006960011738352478,-0.0022120865589007736
1761391739396937700,7.690937744140625,-0.059598436394333834,0.004655917780753225,-0.0035834845099598166
1761391739407003600,7.701003662109375,-0.07560498382151126,0.01710709254760295,-0.0018163287069648502
1761391739417069600,7.711069580078125,-0.0709632954955101,-0.00005914630871266126,-0.008984795564226806
1761391739427135700,7.7211357421875,-0.06018120471835136,-0.001502970175165683,-0.002252783895470202
1761391739437201700,7.73120166015625,-0.06332067178785801,-0.0010573452995158732,0.0018478563563898204
1761391739447267800,7.741267822265625,-0.06824936036169528,0.0039241146411746735,-0.006584054565429687
1761391739457333500,7.75133349609375,-0.061818450531363485,0.0009879881240427494,-0.004733969719335437
1761391739467399700,7.761399658203125,-0.06106792442500591,0.005555570034217089,0.00004321808721870184
1761391739477465600,7.771465576171875,-0.058223056387901304,0.001992361127305776,-0.001235204350762069
1761391739487531800,7.78153173828125,-0.05912555818557739,0.009459628268051893,0.001464665725082159
1761391739497597700,7.79159765625,-0.05823825395703315,-0.00034311434924602505,-0.0036415348401293156
1761391739507664600,7.80166455078125,-0.05944587618112564,0.0038314679216593503,0.00013571867626160382
1761391739517730800,7.811730712890625,-0.06842530145049094,0.0033703897485509514,-0.006698913116753101
1761391739527796700,7.821796630859375,-0.06229015969634056,0.015572028467431663,-0.006640351329930127
1761391739537862700,7.831862548828125,-0.06170037710964679,-0.002274429471697658,-0.0076621321257203815
1761391739547928800,7.8419287109375,-0.06215045896470547,0.00042123935306444764,-0.0028444661783054467
1761391739557994800,7.851994873046875,-0.06021686055362224,0.0004761478780768811,-0.006725947254151106
1761391739568060700,7.862060791015625,-0.06396189230084419,0.007653948819264769,0.00613649346102029
1761391739578126600,7.872126708984375,-0.06800619925558567,0.01215443857628852,-0.00045658466108143325
1761391739588192800,7.88219287109375,-0.06980068145692347,0.017752039387635886,0.000039089901372790336
1761391739598258700,7.8922587890625,-0.07279051092267036,0.019675901855994014,0.00281856455206871
1761391739608324900,7.902324951171875,-0.07279109544456004,0.009299852862767875,0.0052986543973907825
1761391739618390800,7.912390869140625,-0.06784954738914967,0.01162212179787457,-0.010606953405961394
1761391739628456700,7.922456787109375,-0.07128419801294804,0.008579612296819687,-0.007772716360725462
1761391739638524000,7.93252392578125,-0.07233341480493545,0.01270672043049708,-0.01110061867441982
1761391739648589800,7.94258984375,-0.07187631868720054,0.01145611758120358,-0.00006597790829837322
1761391739658655700,7.95265576171875,-0.07426467512845993,0.016240374449361116,0.001558591086231172
1761391739668721700,7.9627216796875,-0.06618307548165321,0.01873480334728956,0.0020160159975290298
1761391739678787600,7.97278759765625,-0.056153848898410796,0.009795892751403152,-0.003058766516111791
1761391739688853800,7.982853759765625,-0.06543664102852344,0.00687463500984013,0.000312390417419374
1761391739698919700,7.992919677734375,-0.06872574570178985,-0.0023194376572035253,-0.006136128134839236
1761391739708985900,8.00298583984375,-0.07021861460804939,-0.006866652632784098,-0.0038042511211708184
1761391739719051800,8.0130517578125,-0.06453063209950924,0.0012698372727259993,-0.006308160233497619
1761391739729118000,8.023117919921875,-0.0678173986852169,-0.0027259726314805446,-0.005442994771525263
1761391739739183600,8.03318359375,-0.0624275223404169,0.0029424101274460553,-0.00013798369858413934
1761391739749249800,8.043249755859375,-0.05224690458774566,-0.0012789521609432994,0.0006289090206846595
1761391739759316700,8.053316650390625,-0.05896890631914138,-0.008991974223684519,-0.008341419626772404
1761391739769382700,8.063382568359375,-0.06045885261595249,-0.011167327235080302,-0.0015739713184535502
1761391739779448800,8.07344873046875,-0.06898118176758289,-0.004689418191555887,0.005032441209256649
1761391739789514800,8.0835146484375,-0.061492287316918366,0.003906085794139653,0.00743427818659693
1761391739799581000,8.093580810546875,-0.060438978871703145,0.008635087077412755,-0.0027098434805870055
1761391739809646800,8.103646728515624,-0.06401859092414379,0.005810311980266124,0.001105951947905123
1761391739819712500,8.11371240234375,-0.06072364103198051,-0.0019898951755836607,-0.00913205854780972
1761391739829778700,8.12377880859375,-0.057877603951096535,0.001221121026482433,-0.007511288945563137
1761391739839844600,8.1338447265625,-0.06028291152715683,-0.0028564671433530748,-0.001441504045203328
1761391739849910800,8.143910888671876,-0.06432429587244987,-0.009644684245064854,-0.0022596154950559138
1761391739859976700,8.153976806640625,-0.05251753822267055,0.007441602976527064,0.008481997141242027
1761391739870043000,8.16404296875,-0.06015607027709484,-0.0006120674837380647,0.01076199783720076
1761391739880108800,8.17410888671875,-0.06346212608516216,-0.021013068743888287,0.03395575335472822
1761391739890175700,8.18417578125,-0.06349310574531555,0.053355011960119006,-0.021367015014402566
1761391739900242000,8.194241943359375,-0.0946177273273468,-0.019829229254182425,-0.04813548721354455
1761391739910307600,8.2043076171875,-0.0235673380702734,0.01534119711993262,-0.04656801870111376
1761391739920373800,8.214373779296874,-0.10226152007877826,-0.014358688888605683,-0.012805413298308848
1761391739930439700,8.224439697265625,-0.04152560408711433,0.04307235860507935,-0.002684234115295112
1761391739940505900,8.234505859375,-0.05350538021624088,-0.006038622577115893,0.04818791152052581
1761391739950571800,8.24457177734375,-0.08538228147029876,0.014492727064434437,-0.0061652446314692496
1761391739960637700,8.2546376953125,-0.052777065941691396,0.0007065408341586589,0.002098689312301576
1761391739970704000,8.264703857421875,-0.06850070477426051,0.005983001666050404,-0.0014847951976582408
1761391739980769800,8.274769775390626,-0.0566939471244812,-0.00049868850344792,0.014719941682741045
1761391739990835700,8.284835693359375,-0.07287702016234397,0.020473463708162307,0.013420038065314293
1761391740000901600,8.294901611328125,-0.06570727466344833,0.015422226466890423,-0.007165873041376471
1761391740010968600,8.304968505859375,-0.08022270675003527,0.004458915637619793,-0.034946262229420245
1761391740021034800,8.31503466796875,-0.06571896510124206,-0.017151552743837235,-0.019293752404302356
1761391740031100700,8.3251005859375,-0.08173778748810291,0.00939162279944867,-0.02659457693696022
1761391740041166800,8.335166748046875,-0.08742343190908432,0.02268958712136373,-0.026005780730955302
1761391740051232800,8.345232666015624,-0.07664718635082245,0.02910665108943358,-0.014826580394990742
1761391740061299000,8.355298828125,-0.08770867859125137,0.02580919871293008,-0.011879567157663404
1761391740071364600,8.365364501953126,-0.07198796236813068,0.017864852112345397,0.0067355553327128285
1761391740081430800,8.3754306640625,-0.0558224249869585,0.0030966508410871026,0.02644282044135034
1761391740091496700,8.38549658203125,-0.04893441903889179,-0.013909063691273331,0.023837862107343972
1761391740101562600,8.395562744140625,-0.07541092255413531,-0.006919844124745577,0.007585705888643861
1761391740111628800,8.40562890625,-0.061033437633514404,-0.004242880000453442,-0.011328070754744112
1761391740121694700,8.41569482421875,-0.06267477509975433,0.01978772820001468,0.006099412853643298
1761391740131761700,8.42576171875,-0.0647673634648323,0.030993834809213874,0.01981006789598614
1761391740141827800,8.435827880859375,-0.05728782136440277,0.02912941091051325,0.029662293944507836
1761391740151893800,8.445893798828125,-0.060442486003041265,0.008225227634888142,0.012175554429553448
1761391740161959700,8.455959716796874,-0.053559156230092046,-0.004534702553879469,-0.005292516917549074
1761391740172025600,8.466025634765625,-0.06943593979775906,-0.004428337836265564,0.006009177286922932
1761391740182091800,8.476091796875,-0.04357084617912769,0.009766630124300717,0.008200074927322566
1761391740192157700,8.48615771484375,-0.03866553848087787,0.011423439154308289,0.021930421050824225
1761391740202223900,8.496223876953126,-0.046481180667877195,0.009705766782537102,0.028265323160775003
1761391740212289800,8.506289794921875,-0.05011106160283088,0.006162121092621237,0.014999014352448284
1761391740222356000,8.51635595703125,-0.06406535267531871,0.005382862082123756,-0.0029760932013392447
1761391740232421600,8.526421630859375,-0.06963467724025249,-0.007906480541918426,-0.0404763142298907
1761391740242487600,8.536487548828125,-0.0846270791888237,-0.022261406570859253,-0.06251078017707913
1761391740252553700,8.5465537109375,-0.07851122665703296,-0.017969079671800135,-0.05784782986734062
1761391740262620700,8.55662060546875,-0.07028641914725303,-0.01271165233394131,-0.06190057585686445
1761391740272686600,8.5666865234375,-0.08016776169240475,-0.020870226207096127,-0.05283456828258931
1761391740282752800,8.576752685546875,-0.06296002178192138,-0.030658173114061354,-0.04901435240730643
1761391740292818700,8.586818603515624,-0.051448447686433786,-0.04291263799872249,-0.018492190230451525
1761391740302884900,8.596884765625,-0.03799216926395893,-0.0390991075925529,-0.0025213717037811875
1761391740312950800,8.60695068359375,-0.05146715238690376,-0.02587784350235015,0.008713723537884651
1761391740323016700,8.6170166015625,-0.05926818152666091,-0.016984068956132976,-0.013067096441797911
1761391740333082600,8.62708251953125,-0.0679524232417345,0.0008397204934619366,-0.017887027411535382
1761391740343148800,8.637148681640625,-0.0720002373278141,0.009077332685887812,-0.014074410320818423
1761391740353214700,8.647214599609375,-0.07844108403027057,0.018817641058843582,-0.008360599251277745
1761391740363281000,8.657281005859375,-0.06855798791944981,0.010428308903425932,-0.013366115920990705
1761391740373346800,8.667346923828125,-0.07318155606687068,0.020405896630976347,-0.009313442996703088
1761391740383412700,8.677412841796874,-0.08467734807133674,0.013452113704010843,-0.016328472857922313
1761391740393480000,8.68747998046875,-0.08374211304783821,0.01697652497049421,-0.02082249634154141
1761391740403545900,8.6975458984375,-0.0887964738279581,0.022156521424278614,-0.006487389257922768
1761391740413611800,8.70761181640625,-0.08546060740351677,0.029743122362066058,0.02768167805392295
1761391740423677700,8.717677734375,-0.08017302238941192,0.02955302488375455,0.041911315469071266
1761391740433743600,8.72774365234375,-0.0693511841237545,0.018978731638379393,0.039342159100808204
1761391740443809800,8.737809814453126,-0.06556582036614418,0.015608013096265494,0.04043484970834106
1761391740453875700,8.747875732421875,-0.050420858204364774,0.012921714888047426,0.04785809504427015
1761391740463942000,8.75794189453125,-0.0448556252926588,0.012518833175580947,0.058455732632614665
1761391740474007800,8.7680078125,-0.05140928471982479,0.016408534090500325,0.04374751792028546
1761391740484073700,8.77807373046875,-0.04913783265650272,0.02793415497764945,0.03199285578392446
1761391740494139600,8.7881396484375,-0.061544309765100474,0.02618561254357919,0.019422383752651512
1761391740504205800,8.798205810546875,-0.060329673278331754,0.009705602385755628,0.0018440569641068577
1761391740514272800,8.808272705078124,-0.05942307982742786,-0.00006121040163561701,-0.009155914347432553
1761391740524338700,8.818338623046875,-0.0511865818798542,0.007007942533306777,-0.011033142928779124
1761391740534404900,8.82840478515625,-0.04759235678017139,0.0035683052071370184,-0.01934818600527942
1761391740544470000,8.838469970703125,-0.0653951399743557,0.006401793333701789,-0.01886800127290189
1761391740554536200,8.8485361328125,-0.05836041903197765,0.0018046017365530133,-0.02732698286473751
1761391740564602000,8.85860205078125,-0.06585165157020091,0.005583645351231098,-0.03949022580198944
1761391740574668000,8.86866796875,-0.061816696965694425,0.002914371343050152,-0.040994602482952176
1761391740584734000,8.87873388671875,-0.051796238210797305,0.0009657397596165538,-0.03617755759004503
1761391740594799900,8.8887998046875,-0.04821662615835667,-0.008991280103940517,-0.035138350735418496
1761391740604866000,8.898865966796874,-0.05870119529366493,-0.019807273150701073,-0.049161359662562604
1761391740614932000,8.908931884765625,-0.06169803902208805,-0.018285963601246475,-0.0450189626282081
1761391740624998100,8.918998046875,-0.07233049219548701,-0.022426625336240975,-0.05199625429492444
1761391740635065000,8.929065185546875,-0.06918576442897319,-0.022815551588591186,-0.048372510839812456
1761391740645131000,8.939131103515624,-0.07022621339261531,-0.02441383536439389,-0.04205715368054807
1761391740655197200,8.949197265625,-0.07873977471590042,-0.021128073425684124,-0.03147102386690676
1761391740665262800,8.959262939453126,-0.07124445052444935,-0.019171696927212177,-0.019931429253332317
1761391740675329000,8.9693291015625,-0.06434007796347141,-0.006210033621266484,-0.015437990291602909
1761391740685395000,8.97939501953125,-0.06612286972701549,0.00029609686974436044,-0.0010801233869045972
1761391740695461000,8.989461181640625,-0.06505611727833747,0.0026223113276064394,0.019638291525654494
1761391740705527000,8.999527099609375,-0.07012099945247173,0.011264613597095012,0.02045337076820433
1761391740715593200,9.00959326171875,-0.06472995406389236,0.014771671869978308,0.010983714296482502
1761391740725659100,9.0196591796875,-0.06592004063129425,0.012835552708245813,0.017785832059383392
1761391740735725000,9.02972509765625,-0.06172960320413112,0.011149590648990123,0.02124470380898565
1761391740745791000,9.039791015625,-0.06352233183979988,0.010458137786109,0.011509162942692637
1761391740755858000,9.04985791015625,-0.07339958273172378,0.00802667285548523,0.016064707355201244
1761391740765924000,9.059924072265625,-0.05827332527041435,0.015227726808097213,0.026270861407928166
1761391740775990000,9.069989990234374,-0.06949614555239678,0.013454817117750643,0.01920541653372347
1761391740786056000,9.080055908203125,-0.07263678166568278,0.010738342966977506,0.01588376129772514
1761391740796122000,9.0901220703125,-0.06889467252790928,0.004977989341970533,-0.003519040971621871
1761391740806188000,9.10018798828125,-0.07517419118881224,0.012693477356433868,-0.009881890534423291
1761391740816254200,9.110254150390626,-0.05482873777449131,0.011359817599877715,-0.009131474025920032
1761391740826320000,9.12031982421875,-0.06021393794417381,0.011684190716035664,-0.004860920567251742
1761391740836386000,9.130385986328125,-0.06171791276633739,0.005124010216537862,-0.002990596650727093
1761391740846452000,9.140451904296874,-0.06097264735698699,0.006227076087612658,-0.01239584611672908
1761391740856518100,9.15051806640625,-0.06516659191548824,0.003969396821316332,-0.010885660749487578
1761391740866584000,9.160583984375,-0.0683101506382227,0.003337364261783659,-0.014851166846975683
1761391740876650000,9.17064990234375,-0.06412497390806675,-0.00028815102530643343,-0.01629427832737565
1761391740886717200,9.18071728515625,-0.05335515809059143,0.0057309996663592756,-0.014545973355323075
1761391740896783000,9.190783203125,-0.060842298975586885,-0.009608864013012497,-0.005024769359454512
1761391740906849000,9.20084912109375,-0.06279226399958134,-0.013165186521410941,0.008252170440740883
1761391740916915000,9.2109150390625,-0.0672901599407196,-0.01794999137884006,0.006856989755295217
1761391740926980900,9.22098095703125,-0.060272974655032154,-0.01428845493029803,-0.012450170119851826
1761391740937047000,9.231047119140625,-0.0611772300183773,-0.006495956156868488,-0.01989310653693974
1761391740947113000,9.241113037109375,-0.06852233208417892,0.009950571856461464,-0.025325031925179063
1761391740957179100,9.25117919921875,-0.07719429883956909,0.006787431650422513,-0.01922755530029535
1761391740967245000,9.2612451171875,-0.07495499548017978,0.022503033307008445,-0.0007914426386356353
1761391740977311200,9.271311279296874,-0.06104863520264625,0.01275790262846276,0.000863411896303296
1761391740987377000,9.281376953125,-0.06270517023801803,0.01072473456673324,0.002796535383351147
1761391740997443000,9.291443115234374,-0.05149637848138809,0.0040779169633984565,0.00405734909940511
1761391741007510000,9.301510009765625,-0.051962242427468296,0.002459193187765777,0.008600180160813034
1761391741017576000,9.311575927734374,-0.057664837983250616,0.011537092129234225,0.0039031083857640624
1761391741027642000,9.32164208984375,-0.060084174084663385,0.015405805055052041,0.0035131592201068994
1761391741037708000,9.3317080078125,-0.06819149269461632,0.0255089005921036,0.0023125147260725496
1761391741047774000,9.34177392578125,-0.07899404173791408,0.04542484001535922,-0.0032344153439626097
1761391741057840000,9.351840087890626,-0.07930968355834483,0.020128906320501117,-0.013944317667745053
1761391741067906000,9.361906005859375,-0.06511456946730614,-0.010776391688734292,-0.02327789013702422
1761391741077972000,9.371971923828125,-0.058093292528390884,-0.0035117527143098412,-0.02373246550410986
1761391741088038000,9.382037841796874,-0.06394494116604328,-0.009687336076702921,-0.023043095000460742
1761391741098104000,9.39210400390625,-0.06545651477277278,-0.019735340425651518,-0.007135879761911928
1761391741108170000,9.402169921875,-0.0575432574301958,-0.02377425881922245,-0.0025521687008440495
1761391741118236200,9.412236083984375,-0.06488777497410773,-0.025208273677714166,-0.004762976618111133
1761391741128303000,9.42230322265625,-0.05427227293550968,-0.034956747090816497,-0.015408691131882368
1761391741138369000,9.432369140625,-0.056524435776472086,-0.0372763856774196,-0.01674929208587855
1761391741148435200,9.442435302734374,-0.06102233171761035,-0.039060803142469375,-0.017848595097288488
1761391741158501000,9.452501220703125,-0.06611877807378769,-0.03587249196255579,-0.020645532339438794
1761391741168567000,9.462567138671876,-0.07869009035527706,-0.010330693747848271,-0.013357859549298882
1761391741178633000,9.472633056640625,-0.07046937449872494,0.007777556932624429,0.004127674389258026
1761391741188699000,9.482698974609375,-0.07511164734661578,0.008707129400316625,0.01736983513701707
1761391741198765000,9.49276513671875,-0.07300912210941314,0.02205939945904538,0.006749912651628255
1761391741208831000,9.5028310546875,-0.07749649665653705,0.013109638675581663,0.01428980663716793
1761391741218897200,9.512897216796874,-0.07270809333622455,0.014722334569226949,0.013730126927793025
1761391741228963000,9.522963134765625,-0.07329962948858737,0.026088435779418793,0.011420059887133538
1761391741239029000,9.533029052734374,-0.07344049926400184,0.035870939326286315,0.01587572412174195
1761391741249096200,9.54309619140625,-0.0678869567900896,0.035064006857573986,0.013763335077650844
1761391741259161900,9.553161865234374,-0.07520867798030376,0.03071552932448685,0.0005854717377573251
1761391741269228000,9.56322802734375,-0.06996025593280791,0.025944661660864947,-0.0029109555432572957
1761391741279294000,9.5732939453125,-0.06306465120017528,0.011243296814430504,0.010514050958119333
1761391741289360100,9.583360107421875,-0.06185995158553123,0.01906255573062226,0.008320084577798844
1761391741299426000,9.593426025390626,-0.06799217073023318,0.0205432958076708,0.005711546047218144
1761391741309492200,9.6034921875,-0.0582581277012825,0.030855175257194785,-0.00033098552003502844
1761391741319558100,9.61355810546875,-0.06872048500478267,0.03194437699969858,-0.009855221723206341
1761391741329624000,9.6236240234375,-0.06841302649080754,0.010874317371565847,-0.021945764750428497
1761391741339690000,9.63368994140625,-0.06121697750687599,0.014188446888234466,-0.016704356965608895
1761391741349756000,9.643755859375,-0.05162438877522945,0.0011848076040856539,-0.010452128170430659
1761391741359822000,9.653822021484375,-0.05475567253828048,-0.000007744915038347244,-0.014972820465266703
1761391741369889000,9.663888916015624,-0.05669219355881214,-0.008012991390004753,-0.024458478223718702
1761391741379955000,9.673954833984375,-0.05654080238938331,-0.005553670338075608,-0.009150945911370218
1761391741390021000,9.684021240234374,-0.06177110425829887,-0.0011778846729546784,-0.01449705617967993
1761391741400087000,9.694087158203125,-0.05682371098399162,-0.004344988668058067,-0.012517390137165784
1761391741410153200,9.7041533203125,-0.0566764114677906,-0.007925020845606923,-0.009154781836271286
1761391741420219000,9.714218994140625,-0.05114040465056896,-0.012732877785060555,-0.019121391512081025
1761391741430285000,9.72428515625,-0.0465115758061409,-0.020125033862981943,-0.013665062334947287
1761391741440351000,9.73435107421875,-0.04875497081875801,-0.01841313364487141,-0.01827018151022494
1761391741450417200,9.744417236328125,-0.045182373028993604,-0.020044260244350878,-0.0006445084486156701
1761391741460483000,9.754483154296874,-0.05491758510172367,-0.008599029383342713,-0.023359869332052766
1761391741470549000,9.764549072265625,-0.05882569845616817,-0.003077946140617132,-0.017858020512759684
1761391741480615200,9.774615234375,-0.052122985947132106,0.00476328714536503,-0.02640595902968198
1761391741490680800,9.784680908203125,-0.06247369956970215,0.00527116360226646,-0.017291947595216333
1761391741500748000,9.794748046875,-0.06354863532483578,0.024970537665393203,-0.01085555787216872
1761391741510814000,9.80481396484375,-0.04906769002974033,-0.0010869915191084145,0.009786467335931956
1761391741520879900,9.8148798828125,-0.0530032759130001,0.028658925588242706,0.009521277061104774
1761391741530946000,9.824946044921875,-0.07983984491229057,0.017230517997872084,0.00891238791514188
1761391741541012000,9.835011962890626,-0.05701368059813976,0.023681940893270075,0.00811652482971549
1761391741551079000,9.845078857421875,-0.05454466013610363,0.004520674028526991,0.03133066554814577
1761391741561144800,9.855144775390626,-0.04535071533322334,0.029372480685077605,0.050569180633872744
1761391741571210800,9.865210693359375,-0.06668693335056304,0.041911224137526,0.02566014563106
1761391741581277000,9.87527685546875,-0.06706453449130058,-0.013925393771566449,-0.01002608477808535
1761391741591342800,9.8853427734375,-0.06265490135550499,0.034423224736005065,-0.01923131815996021
1761391741601409000,9.895408935546875,-0.082630936935544,0.07966748402006923,-0.0211545778401196
1761391741611475000,9.905474853515624,-0.09167524413466453,0.08217844392769039,-0.026195421551540494
1761391741621542000,9.9155419921875,-0.07961129685342311,0.03559752921238541,-0.025983495833911
1761391741631607800,9.92560791015625,-0.0685883830577135,-0.008593823485262692,0.011602503781951963
1761391741641675000,9.935675048828125,-0.07118190668225288,0.0010061083026230335,0.03290295636616647
1761391741651740700,9.94574072265625,-0.0782563751131296,0.022767383331619203,0.025978052473813292
1761391741661806800,9.955806884765625,-0.0907049377977848,0.012380538949742913,0.006534552867896854
1761391741671872800,9.965872802734374,-0.06721826374828815,-0.010063128852844237,-0.022751016718707977
1761391741681939000,9.97593896484375,-0.0721527975410223,-0.03371262878123671,-0.025520079573243856
1761391741692004900,9.9860048828125,-0.09354454513788223,-0.030443434384837743,-0.0032129341645166275
1761391741702071000,9.996071044921875,-0.03290975143313408,-0.07357541422266513,-0.0003653992462903261
1761391741712137000,10.006136962890626,-0.06804243961274624,-0.056648975471593435,-0.016602357895858583
1761391741722203000,10.016202880859375,-0.09120061236023902,-0.012417838752828538,-0.022083017796650527
1761391741732268800,10.026268798828125,-0.05659282483756542,-0.014089827085658906,-0.01970240627042949
1761391741742334700,10.036334716796874,-0.07854571344852447,-0.012796280143782496,-0.012849179374799131
1761391741752401000,10.04640087890625,-0.055907765182852745,0.0031504999201744793,-0.016590813588537274
1761391741762467800,10.0564677734375,-0.057950084665417664,0.007015285589545965,-0.01110419887099415
1761391741772534000,10.066533935546875,-0.05521510674357414,0.002127257819660008,-0.010590440662577747
1761391741782600000,10.076599853515624,-0.05519172586798667,0.002547894384525716,-0.01408916949853301
1761391741792665900,10.086665771484375,-0.045882045730948444,0.008568469848297535,-0.001027370286360383
1761391741802732000,10.09673193359375,-0.05288929414451122,0.009183076348993926,0.01988656719829887
1761391741812797700,10.106797607421875,-0.059603697091341015,0.00820644986918196,0.015494396653957665
1761391741822864000,10.11686376953125,-0.06363806717395783,-0.0003588781739585101,0.0005289192449301481
1761391741832929800,10.1269296875,-0.04417348824739456,-0.0073973254433833055,-0.005521978291869163
1761391741842996000,10.136995849609375,-0.05253975005447864,-0.007931322722230107,-0.0034795857440680263
1761391741853062000,10.147061767578125,-0.05389116466343403,-0.0069199719889089465,-0.00046023792289197444
1761391741863128000,10.157128173828125,-0.05553834734857082,0.00008386062486097216,0.005870024544559419
1761391741873194000,10.167194091796874,-0.055847559428215024,0.016085384817048905,0.0004941401924937963
1761391741883261000,10.177260986328125,-0.06678221041858196,-0.002109375103097409,0.020369418811798094
1761391741893327000,10.1873271484375,-0.048699441239237785,0.01573529273774475,0.011410999797843395
1761391741903392800,10.197392822265625,-0.046021161940693854,-0.031718678485043346,-0.00399571857266128
1761391741913459000,10.207458984375,-0.059066521474719046,0.0010610898928716777,0.03399550084322691
1761391741923524900,10.21752490234375,-0.06342822381556033,0.0015904657955281435,0.006560746755078435
1761391741933590800,10.2275908203125,-0.08379705810546874,0.00794336021989584,-0.01587802567668259
1761391741943657000,10.237656982421875,-0.08933598753213882,0.012050722473487258,-0.02200403427630663
1761391741953723000,10.247722900390626,-0.10279635760784149,0.014990904111228883,-0.03891984203550965
1761391741963789000,10.2577890625,-0.07749240500330924,0.024385942710470405,-0.028998971197567877
1761391741973854700,10.267854736328125,-0.06805354552865028,0.011360950111038982,0.001496704831160605
1761391741983921000,10.2779208984375,-0.04949205292165279,-0.025852416800148784,0.010507657749950884
1761391741993986800,10.28798681640625,-0.06534194848239422,-0.01713739635432139,-0.008740428881719707
1761391742004053800,10.2980537109375,-0.06728022306859494,0.0008758695190772414,-0.024120624571479857
1761391742014120000,10.308119873046875,-0.05170329923033714,0.004012578375916928,-0.004614398460276424
1761391742024185900,10.318185791015624,-0.046456046226620674,0.030548739656526592,0.010479454568773507
1761391742034252000,10.328251953125,-0.10286357762515544,0.008828015833627433,0.010498341932334005
1761391742044318000,10.33831787109375,-0.05437281070053577,0.024485183567553758,-0.03574453646764159
1761391742054383900,10.3483837890625,-0.07052373503446578,0.02286512635136023,-0.07556490753944962
1761391742064449800,10.35844970703125,-0.08473872286975383,0.014303597700502723,-0.0659514221502468
1761391742074515700,10.368515625,-0.05794657753407955,0.0123774154108949,-0.030570823624171316
1761391742084582000,10.378581787109376,-0.08054594735503197,0.04111755300918594,0.0064986413042992346
1761391742094647800,10.388647705078125,-0.06751753895580768,0.032055216963030396,0.0028439912542700765
1761391742104714000,10.3987138671875,-0.049260582253336904,0.0019844152828678487,-0.025166516895219683
1761391742114780000,10.40877978515625,-0.06601648674309253,-0.039107254366390405,-0.04417283066026866
1761391742124846800,10.418846923828125,-0.0359369902998209,-0.03315179829439148,-0.044668176429159934
1761391742134913000,10.4289130859375,-0.04940788176953792,-0.012200086082611233,0.007365121940523385
1761391742144978700,10.438978759765625,-0.04657411964833736,0.008747223948687315,0.041778811663202936
1761391742155044900,10.449044921875,-0.054522448304295534,0.027285353946406393,0.035119317241385575
1761391742165110800,10.45911083984375,-0.07638473602235317,0.00258376941550523,0.013585055901296435
1761391742175177000,10.469177001953126,-0.06113748252987861,-0.01704599174382165,0.006171820502728223
1761391742185243000,10.479242919921875,-0.05291384406387806,-0.027538524989876894,-0.0025885551884770393
1761391742195308800,10.489308837890626,-0.06024784021377563,-0.009851659792941062,0.008509579267911613
1761391742205375000,10.499375,-0.051880993884801864,-0.013446305017732084,0.02667195302210748
1761391742215441000,10.50944091796875,-0.06924304757416248,-0.00037223084587603803,0.012513700342737138
1761391742225506800,10.5195068359375,-0.07463467748463154,0.02466903396816924,-0.01027903662584722
1761391742235572700,10.52957275390625,-0.05937982520759105,0.027334636448230594,-0.016138576309010385
1761391742245639700,10.5396396484375,-0.055337271818518635,0.012828648043423891,-0.016065985996834932
1761391742255705900,10.549705810546875,-0.06790040079355239,-0.006685122053418308,0.0026460209967568513
1761391742265771800,10.559771728515624,-0.05773205800056457,-0.0014078757702372967,-0.00048661447316408155
1761391742275838000,10.569837890625,-0.07879881142675876,0.02205412049572915,-0.014334887887910007
1761391742285904000,10.57990380859375,0.12471826655864715,-0.08687032807096838,-0.028188166271336374
1761391742295970000,10.589969970703125,-0.02309621342718601,0.0009171879101544619,-0.1526478549590334
1761391742306036000,10.600035888671876,-1.1172294209837912,0.17266436867993323,0.6559644931316375
1761391742316102000,10.610101806640625,1.5301128875046968,-0.1550887453051284,-0.7426302385412156
1761391742326167800,10.620167724609376,-1.439849848255515,0.12720069449152796,0.43697577831335366
1761391742336233700,10.630233642578125,0.7826713031589985,-0.06087284024432301,-0.11956545037273317
