time,seconds_elapsed,z,y,x
1761391731766848800,0.060848876953125,0.0030266602989286184,-0.019393738359212875,-0.004783284850418568
1761391731776915000,0.0709150390625,0.004305776674300432,0.005168328993022442,0.007851549424231052
1761391731786980900,0.08098095703125,0.0002494226209819317,0.014445183798670769,0.0008914144709706306
1761391731797046800,0.091046875,0.0002781851217150688,-0.017052553594112396,0.003184662200510502
1761391731807112700,0.10111279296875,-0.00010460009798407555,0.009544688276946545,0.0005957474932074547
1761391731817178600,0.1111787109375,0.00024374155327677727,-0.0010285936295986176,0.0037854155525565147
1761391731827244800,0.121244873046875,-0.0010965880937874317,-0.004937741905450821,-0.003719599451869726
1761391731837310700,0.131310791015625,-0.0028374968096613884,0.009397787041962147,0.00394178181886673
1761391731847377000,0.141376953125,-0.0002704937942326069,-0.0032916944473981857,0.0024183010682463646
1761391731857442800,0.15144287109375,0.0003484250046312809,-0.0011861994862556458,-0.0016957498155534267
1761391731867509800,0.161509765625,-0.0005207164213061333,0.004199822433292866,0.0005049398168921471
1761391731877576000,0.171575927734375,-0.0012434981763362885,-0.0002766847610473633,-0.0028786063194274902
1761391731887641900,0.181641845703125,0.00022420566529035568,0.000492563471198082,-0.0017820550128817558
1761391731897707800,0.191707763671875,-0.0018629133701324463,0.0027618426829576492,0.0001721726730465889
1761391731907773700,0.201773681640625,-0.0013913377188146114,0.0005506575107574463,0.0008002445101737976
1761391731917840000,0.21183984375,0.00027420325204730034,0.0007099146023392677,-0.0036552236415445805
1761391731927905800,0.22190576171875,0.002478621667250991,-0.0001888088881969452,-0.0016514435410499573
1761391731937971700,0.2319716796875,-0.0007270253263413906,0.000619194470345974,-0.000921737402677536
1761391731948038000,0.242037841796875,-0.001434448640793562,0.000738220289349556,0.0017690658569335938
1761391731958103800,0.252103759765625,-0.0010562795214354992,-0.0019611595198512077,0.0003349538892507553
1761391731968169700,0.262169677734375,-0.0011767474934458733,0.0007866965606808662,-0.0009135040454566479
1761391731978235600,0.272235595703125,-0.0002494347281754017,0.0010900311172008514,-0.0015119160525500774
1761391731988302600,0.282302490234375,-0.0010736328549683094,-0.0010704612359404564,-0.00003401096910238266
1761391731998368800,0.29236865234375,-0.0007548523135483265,-0.0001684483140707016,-0.004884692840278149
1761391732008434700,0.3024345703125,-0.00024129217490553856,0.0024843690916895866,-0.0005678432062268257
1761391732018500900,0.3125009765625,0.0018410338088870049,0.00040124449878931046,-0.0036400659009814262
1761391732028566800,0.32256689453125,0.001346976961940527,0.003290620632469654,-0.0005547315813601017
1761391732038633000,0.332633056640625,0.00237149465829134,0.005589460022747517,-0.00010332604870200157
1761391732048699000,0.342698974609375,-0.00037940405309200287,0.0014383187517523766,-0.00083908811211586
1761391732058764800,0.352764892578125,-0.00027740513905882835,0.001093173399567604,-0.00006277672946453094
1761391732068830700,0.362830810546875,0.0009049507789313793,-0.00012576952576637268,0.001135856844484806
1761391732078896600,0.372896728515625,0.001814420334994793,0.0000654458999633789,-0.0016442169435322285
1761391732088962800,0.382962890625,0.0003391890786588192,0.00006910506635904312,-0.002918747253715992
1761391732099028700,0.39302880859375,0.0027991507668048143,-0.0013173362240195274,-0.00011736806482076645
1761391732109096000,0.403095947265625,0.0013466626405715942,-0.0013274559751152992,-0.0003021913580596447
1761391732119161900,0.413161865234375,0.0006853174418210983,-0.0018107909709215164,-0.0002911621704697609
1761391732129227800,0.423227783203125,-0.00041645392775535583,-0.00022763945162296295,0.0023413198068737984
1761391732139294000,0.4332939453125,-0.00010379869490861893,-0.0010438980534672737,-0.0039964709430933
1761391732149359600,0.443359619140625,0.0011123130097985268,0.0004677809774875641,0.00012604519724845886
1761391732159425800,0.45342578125,-0.000826734583824873,-0.0013311849907040596,0.0008533541113138199
1761391732169491700,0.46349169921875,-0.0019958973862230778,0.0015300111845135689,0.0019292309880256653
1761391732179558000,0.473557861328125,0.0013863174244761467,-0.001127556897699833,0.001862918958067894
1761391732189623800,0.483623779296875,-0.0010819602757692337,0.0004608146846294403,0.0017272727563977242
1761391732199690000,0.49368994140625,0.001164416316896677,0.0001889057457447052,0.0010787928476929665
1761391732209756000,0.503755859375,-0.00009156484156847,-0.0012676799669861794,-0.002356459852308035
1761391732219821600,0.513821533203125,-0.002278286498039961,-0.0006969645619392395,-0.0023953416384756565
1761391732229888800,0.523888671875,0.002086699940264225,0.0028098197653889656,-0.001866611186414957
1761391732239954700,0.53395458984375,-0.0006592851132154465,0.0014745108783245087,-0.004478373099118471
1761391732250020900,0.544020751953125,0.00008420133963227272,0.0007387185469269753,0.001234736293554306
1761391732260086800,0.554086669921875,-0.002201590221375227,-0.0005790144205093384,-0.00375070096924901
1761391732270152700,0.564152587890625,0.00008443277329206467,-0.002284873276948929,-0.001177061814814806
1761391732280219000,0.574218994140625,0.00014461996033787727,-0.0007146736606955528,-0.00005693640559911728
1761391732290284800,0.584284912109375,0.00048771221190690994,0.003946840763092041,0.0008229762315750122
1761391732300351000,0.59435107421875,0.00125550152733922,0.0005672890692949295,0.0004794290289282799
1761391732310416600,0.604416748046875,0.0010836441069841385,0.0012133540585637093,-0.0010612648911774158
1761391732320482800,0.61448291015625,-0.0012245173566043377,-0.0044357432052493095,-0.0044994056224823
1761391732330548700,0.624548828125,-0.0022644628770649433,-0.0007208511233329773,-0.00019690487533807755
1761391732340615000,0.634614990234375,-0.0007376726716756821,-0.004011453129351139,-0.002480299212038517
1761391732350681900,0.644681884765625,-0.001066635362803936,-0.0025779148563742638,-0.0007847961969673634
1761391732360747800,0.654747802734375,-0.004206768702715635,-0.0015496686100959778,0.00005569774657487869
1761391732370814000,0.66481396484375,0.00027833040803670883,-0.003086937591433525,-0.001995221246033907
1761391732380880000,0.6748798828125,0.00027646590024232864,0.001617802307009697,-0.00228444067761302
1761391732390945800,0.68494580078125,0.0012942836619913578,0.0009158067405223846,0.0004907869733870029
1761391732401011700,0.69501171875,-0.0013233372010290623,-0.0011782366782426834,0.0005531054921448231
1761391732411077600,0.70507763671875,-0.0025450303219258785,0.002426179125905037,-0.0025769746862351894
1761391732421143800,0.715143798828125,-0.002201216761022806,-0.002413317561149597,0.0010838066227734089
1761391732431209700,0.725209716796875,-0.0005483096465468407,-0.0005744444206357002,-0.00043546222150325775
1761391732441276000,0.73527587890625,0.0009515830315649509,0.001615205779671669,0.0016119759529829025
1761391732451341800,0.745341796875,0.00037082796916365623,0.001018698327243328,-0.0025258860550820827
1761391732461408000,0.755407958984375,0.0001260838471353054,0.00238223560154438,-0.00030427705496549606
1761391732471475000,0.765474853515625,-0.0005119913257658482,0.0029912786558270454,-0.0009870119392871857
1761391732481540600,0.77554052734375,-0.00018841726705431938,0.0014359913766384125,-0.00022907601669430733
1761391732491606800,0.785606689453125,-0.00016952399164438248,0.00015005748718976974,0.001217050477862358
1761391732501672700,0.795672607421875,-0.000840640626847744,0.00008454360067844391,0.0007882807403802872
1761391732511739000,0.80573876953125,-0.0002225288189947605,-0.0006914930418133736,0.0015190462581813335
1761391732521804800,0.8158046875,0.0003154296427965164,0.0012025469914078712,0.002264998387545347
1761391732531871200,0.825871337890625,-0.0015141293406486511,-0.0013459008187055588,-0.000555107370018959
1761391732541937400,0.8359375,0.002680615521967411,0.00021843984723091125,-0.002411330584436655
1761391732552003000,0.846003173828125,0.0019310484640300274,-0.0009134188294410706,0.001835756003856659
1761391732562069200,0.8560693359375,0.0014735176227986813,0.0022935597226023674,-0.0004534972831606865
1761391732572135200,0.86613525390625,-0.0006221295334398746,0.0011461740359663963,0.0007523423992097378
1761391732582201300,0.876201416015625,-0.0003507533110678196,0.002737944945693016,-0.001582716591656208
1761391732592268300,0.886268310546875,0.0002986290492117405,0.0035870131105184555,-0.00040581217035651207
1761391732602334200,0.896334228515625,0.00149918207898736,0.0016365135088562965,-0.0013054278679192066
1761391732612400400,0.906400390625,0.001458680722862482,0.0028528310358524323,-0.00034966086968779564
1761391732622466300,0.91646630859375,0.0022312640212476254,0.0008661132305860519,-0.002447699196636677
1761391732632532500,0.926532470703125,-0.003887816797941923,0.002422396093606949,0.0015614209696650505
1761391732642598100,0.93659814453125,0.00015326403081417084,0.001665526069700718,0.001437850296497345
1761391732652664000,0.9466640625,0.0016011232510209084,-0.0005474146455526352,-0.00020035309717059135
1761391732662730200,0.956730224609375,-0.0018575242720544338,-0.00003422331064939499,0.0013283011503517628
1761391732672796200,0.966796142578125,-0.0043643987737596035,-0.002985765226185322,0.004724405240267515
1761391732682862300,0.9768623046875,0.0014351666904985905,-0.00019317492842674255,0.0030423528514802456
1761391732692928300,0.98692822265625,-0.0009252880699932575,-0.0016169417649507523,0.0027067954652011395
1761391732702994400,0.996994384765625,-0.0004618978127837181,-0.0008451575413346291,0.0029403544031083584
1761391732713061400,1.007061279296875,0.00013860594481229782,0.0024763401597738266,0.0005706930533051491
1761391732723127300,1.017127197265625,-0.001448371447622776,-0.00023156125098466873,0.0023259827867150307
1761391732733193200,1.027193115234375,-0.0012312447652220726,0.001782984472811222,0.005449784453958273
1761391732743259100,1.037259033203125,0.000466254074126482,0.0007869619876146317,0.00006167730316519737
1761391732753325300,1.0473251953125,-0.00149938790127635,0.000529855489730835,0.001771001610904932
1761391732763391200,1.05739111328125,-0.00006580818444490433,0.0006560897454619408,0.006790261249989271
1761391732773457400,1.06745751953125,-0.001983929891139269,-0.002520022913813591,0.0028550992719829082
1761391732783523300,1.0775234375,0.001162061933428049,0.00042010750621557236,0.0024929088540375233
1761391732793589200,1.08758935546875,-0.0011895340867340565,0.0008674636483192444,0.000738032627850771
1761391732803655200,1.0976552734375,0.00034231599420309067,0.0005036760121583939,0.0015601501800119877
1761391732813721000,1.10772119140625,-0.00021989177912473679,0.002745559439063072,-0.0022701267153024673
1761391732823787300,1.117787353515625,-0.0010665105655789375,-0.002139742486178875,0.005161956883966923
1761391732833854200,1.127854248046875,0.0009664334356784821,-0.00026363879442214966,0.003556990996003151
1761391732843920100,1.137920166015625,-0.002470908220857382,-0.0007850853726267815,0.004219053313136101
1761391732853986300,1.147986328125,0.0009398860856890678,-0.0017714407294988632,0.0002832929603755474
1761391732864052200,1.15805224609375,-0.0010409732349216938,-0.0010201632976531982,0.001874531153589487
1761391732874118400,1.168118408203125,0.0013412050902843475,0.002247708849608898,-0.0008139880374073982
1761391732884184300,1.178184326171875,0.001500195823609829,0.0023252079263329506,0.0008265194483101368
1761391732894250200,1.188250244140625,0.001604958437383175,0.0015704939141869545,0.000017122365534305573
1761391732904316200,1.198316162109375,0.0002994770184159279,0.001169421710073948,0.0022195568308234215
1761391732914382300,1.20838232421875,0.001083706971257925,0.0013593491166830063,0.0006617982871830463
1761391732924448300,1.2184482421875,-0.00049554742872715,-0.001931518316268921,0.0012154695577919483
1761391732934514200,1.22851416015625,-0.000611351802945137,-0.001531289890408516,-0.003233511932194233
1761391732944580400,1.238580322265625,-0.0023008612915873528,0.00238622073084116,0.001056041568517685
1761391732954646300,1.248646240234375,0.0005665300413966179,-0.0003761574625968933,-0.0021383920684456825
1761391732964713200,1.258713134765625,-0.0004047248512506485,0.0016592973843216896,0.0039139073342084885
1761391732974779400,1.268779296875,-0.002482525072991848,0.00012330058962106705,-0.00041315658017992973
1761391732984845000,1.278844970703125,0.0008581439033150673,-0.0017499672248959541,-0.0016432707197964191
1761391732994911200,1.2889111328125,0.0022657904773950577,0.001978360116481781,0.0014056027866899967
1761391733004977200,1.29897705078125,-0.0024602552875876427,0.0017045876011252403,0.0016141277737915516
1761391733015043300,1.309043212890625,0.0010526985861361027,0.0011215182021260262,0.0014958875253796577
1761391733025109200,1.319109130859375,0.000012468080967664719,0.0005374876782298088,0.0009065298363566399
1761391733035175400,1.329175537109375,0.0005258908495306969,0.00005304347723722458,0.002334298100322485
1761391733045241300,1.339241455078125,-0.0008166087791323662,-0.00016427040100097656,-0.0024221078492701054
1761391733055307300,1.349307373046875,0.0016054119914770126,0.0005614859983325005,0.0011587953194975853
1761391733065373200,1.359373291015625,0.0005830246955156326,-0.0031408406794071198,0.003671221435070038
1761391733075439000,1.369439208984375,0.00008012820035219193,0.0017464123666286469,-0.0005875388160347939
1761391733085506300,1.37950634765625,-0.0011763512156903744,-0.002182549796998501,-0.0002945908345282078
1761391733095572200,1.389572265625,0.0015277005732059479,0.0017897356301546097,0.0029394449666142464
1761391733105638100,1.39963818359375,-0.00018710875883698463,0.0006650835275650024,-0.0019461242482066154
1761391733115704300,1.409704345703125,0.0001275036484003067,0.00011404696851968765,0.0013918420299887657
1761391733125770200,1.419770263671875,0.0018732058815658092,0.0005196463316679001,0.0029087793081998825
1761391733135836400,1.42983642578125,-0.0009748749434947968,-0.002126879058778286,0.000002134125679731369
1761391733145902000,1.439902099609375,-0.0003703376278281212,0.006222396157681942,0.011101389303803444
1761391733155968300,1.44996826171875,-0.0035651689395308495,-0.000467090867459774,-0.029841965064406395
1761391733166034200,1.4600341796875,-0.0014868378639221191,-0.037443216890096664,0.032976943999528885
1761391733176100400,1.470100341796875,-0.0011674980632960796,0.04794047027826309,-0.024167072027921677
1761391733186166300,1.480166259765625,0.0013798153959214687,-0.03891320526599884,0.011696387082338333
1761391733196232200,1.490232177734375,-0.001675502397119999,0.022740958258509636,0.0006603416986763477
1761391733206298400,1.50029833984375,0.00024383794516324997,0.00010888464748859406,-0.002877667546272278
1761391733216365300,1.510365234375,0.000718588475137949,-0.027659909799695015,-0.003261484205722809
1761391733226431500,1.520431396484375,-0.0011743861250579357,0.02416466921567917,0.004171930719166994
1761391733236497200,1.5304970703125,-0.0008847815915942192,-0.014692086726427078,-0.005430609919130802
1761391733246563000,1.54056298828125,0.0030234074220061302,-0.011650224216282368,0.0011268914677202702
1761391733256629200,1.550629150390625,0.0011766436509788036,0.014286714605987072,0.0037979469634592533
1761391733266695200,1.560695068359375,0.0015252511948347092,-0.016877328976988792,-0.003540127072483301
1761391733276761300,1.57076123046875,0.00160133745521307,0.002106224186718464,0.00023252936080098152
1761391733286827300,1.5808271484375,0.0017621922306716442,0.0027294037863612175,-0.00037520425394177437
1761391733296893400,1.5908935546875,-0.0003948407247662544,-0.00988853257149458,0.000004391185939311981
1761391733306959000,1.600958984375,-0.0010100309737026691,0.007236124947667122,0.0007937517948448658
1761391733317025300,1.611025390625,0.00042408937588334084,-0.0003373464569449425,0.0017911815084517002
1761391733327091200,1.62109130859375,0.00047735264524817467,-0.0008103242143988609,0.00032750749960541725
1761391733337158100,1.631158203125,-0.0005922704003751278,0.002373490482568741,0.002991768065840006
1761391733347224300,1.641224365234375,-0.0001382012851536274,-0.001300073228776455,0.003431722056120634
1761391733357290200,1.651290283203125,-0.0007196804508566856,0.002881287597119808,-0.0014932039193809032
1761391733367356400,1.6613564453125,-0.0020717675797641277,0.00016805995255708694,0.0006162864156067371
1761391733377422300,1.67142236328125,0.0005755028687417507,-0.0005038417875766754,-0.002078777179121971
1761391733387488300,1.68148828125,0.0003840220160782337,-0.0003589661791920662,0.0024166391231119633
1761391733397554200,1.69155419921875,0.00005272449925541878,-0.0066733211278915405,-0.00282472837716341
1761391733407620000,1.7016201171875,-0.002192559652030468,-0.0038082124665379524,-0.0024671023711562157
1761391733417686300,1.711686279296875,0.0033704449888318777,-0.0024899104610085487,-0.0031692800112068653
1761391733427752200,1.721752197265625,0.0009855842217803001,-0.0018134675920009613,0.0001452900469303131
1761391733437818400,1.731818359375,0.0013178992085158825,-0.0010524671524763107,-0.0013448656536638737
1761391733447884300,1.74188427734375,-0.0010733529925346375,-0.003147842362523079,0.0012234863825142384
1761391733457950500,1.751950439453125,-0.0017744158394634724,0.0005586519837379456,0.0022764825262129307
1761391733468017400,1.762017333984375,-0.0009435098618268967,-0.0035458113998174667,-0.0031337286345660686
1761391733478083300,1.772083251953125,-0.00038281315937638283,-0.000728413462638855,-0.0009660506621003151
1761391733488149200,1.782149169921875,0.00008190842345356941,0.001720629632472992,-0.0028920485638082027
1761391733498215200,1.792215087890625,-0.0003563179634511471,-0.004198390990495682,-0.0022834213450551033
1761391733508281300,1.80228125,-0.0015512784011662006,-0.002154415473341942,-0.0011859326623380184
1761391733518347300,1.81234716796875,-0.0008044112473726273,0.001785777509212494,-0.0005495836958289146
1761391733528413200,1.8224130859375,-0.002231332939118147,-0.002118149772286415,0.0005686772055923939
1761391733538479900,1.83247998046875,-0.0005150586366653442,-0.0010586241260170937,-0.0007569491863250732
1761391733548545800,1.8425458984375,0.00013155676424503326,-0.001633867621421814,0.0035661603324115276
1761391733558612000,1.852612060546875,0.0011871438473463058,-0.0007672682404518127,-0.00027727987617254257
1761391733568677600,1.862677734375,0.0004044407978653908,0.0002910718321800232,0.002467107493430376
1761391733578743800,1.872743896484375,-0.0006795697845518589,-0.0025588441640138626,-0.0009193103760480881
1761391733588809700,1.882809814453125,-0.0007562688551843166,-0.0002056751400232315,0.002597393933683634
1761391733598876700,1.892876708984375,0.0009623691439628601,-0.002629692666232586,-0.00025754794478416443
1761391733608942800,1.90294287109375,-0.0010981187224388123,-0.0017724214121699333,0.0011499333195388317
1761391733619008800,1.9130087890625,0.0015785442665219307,-0.00003573950380086899,-0.0025861067697405815
1761391733629074700,1.92307470703125,0.0005963705480098724,-0.0011180480942130089,-0.0010001943446695805
1761391733639140900,1.933140869140625,-0.00013852911069989204,-0.00052644032984972,0.001463326159864664
1761391733649206500,1.94320654296875,-0.0011079199612140656,-0.00011338386684656143,0.0031025013886392117
1761391733659272700,1.953272705078125,-0.00032571563497185707,-0.0009455438703298569,0.000387371052056551
1761391733669338600,1.963338623046875,0.00045831920579075813,0.0015977751463651657,0.0011466383002698421
1761391733679404800,1.97340478515625,0.0005729212425649166,0.0004589967429637909,-0.00007524201646447182
1761391733689470700,1.983470703125,-0.0012401589192450047,-0.001695500686764717,-0.0014443728141486645
1761391733699537000,1.993536865234375,-0.0004865000955760479,0.0025897398591041565,-0.00004423549398779869
1761391733709602800,2.003602783203125,0.0002322872169315815,-0.000956525094807148,0.0003903922624886036
1761391733719669800,2.013669677734375,0.0009548827074468136,-0.0011283569037914276,0.0009774328209459782
1761391733729736000,2.02373583984375,-0.0007066638208925724,-0.000684407539665699,0.0017044753767549992
1761391733739801600,2.033801513671875,-0.001012308057397604,-0.0042692990973591805,0.0005321302451193333
1761391733749867800,2.04386767578125,0.0025121192447841167,-0.001143813133239746,-0.001287874300032854
1761391733759933700,2.05393359375,-0.00030389241874217987,-0.0018367422744631767,0.001390810590237379
1761391733769999600,2.06399951171875,-0.00078539177775383,0.001496736891567707,0.0007670982740819454
1761391733780065800,2.074065673828125,-0.0009962217882275581,0.000673254020512104,0.0020849877037107944
1761391733790131700,2.084131591796875,-0.0018524276092648506,-0.002244505099952221,-0.0022658188827335835
1761391733800198000,2.094197998046875,-0.0012064352631568909,-0.004298380576074123,0.0018350626341998577
1761391733810263800,2.104263916015625,-0.000951837282627821,-0.003984660841524601,-0.00004699360579252243
1761391733820329700,2.114329833984375,-0.003544469363987446,-0.0029140030965209007,0.002540476154536009
1761391733830395600,2.124395751953125,0.0002611875534057617,-0.0008545806631445885,0.0024059866555035114
1761391733840461800,2.1344619140625,-0.0016422648914158344,-0.002820580266416073,0.002865014597773552
1761391733850528800,2.14452880859375,0.0016142483800649643,0.0006087720394134521,0.0012996084988117218
1761391733860594700,2.1545947265625,0.0006229202263057232,-0.001944093033671379,-0.0017246296629309654
1761391733870660900,2.164660888671875,0.0008335765451192856,0.0012623528018593788,0.0002538328990340233
1761391733880726800,2.174726806640625,-0.0004069209098815918,0.001386389136314392,0.0027958364225924015
1761391733890793000,2.18479296875,0.0011321199126541615,0.001318211667239666,-0.001000232994556427
1761391733900858600,2.194858642578125,0.0013351989910006523,0.00021654553711414337,0.0010438347235321999
1761391733910924800,2.2049248046875,-0.0004973220638930798,0.0012738211080431938,-0.00022462941706180573
1761391733920990700,2.21499072265625,0.0006370684131979942,-0.00014479272067546844,0.0003087613731622696
1761391733931056600,2.225056640625,0.0011225626803934574,-0.0023703966289758682,0.0024856291711330414
1761391733941122800,2.235122802734375,-0.0006183409132063389,-0.0005731610581278801,0.0007507679983973503
1761391733951188700,2.245188720703125,-0.00013764016330242157,-0.0017726486548781395,0.0009656846523284912
1761391733961255000,2.2552548828125,-0.0011001406237483025,-0.002268735319375992,0.0008935658261179924
1761391733971321900,2.26532177734375,-0.00028627878054976463,-0.00207698717713356,-0.0019869087263941765
1761391733981387800,2.2753876953125,0.00037120748311281204,0.0003743693232536316,0.0021450575441122055
1761391733991453700,2.28545361328125,-0.0031343111768364906,-0.0021479101851582527,0.00003743171691894531
1761391734001519600,2.29551953125,-0.0029387674294412136,-0.0006307791918516159,0.0011855964548885822
1761391734011585800,2.305585693359375,-0.0006308723241090775,-0.000650220550596714,0.0004367153160274029
1761391734021651700,2.315651611328125,-0.0032385271042585373,-0.0006219707429409027,-0.0006428319029510021
1761391734031718000,2.3257177734375,-0.0012227799743413925,-0.0009253052994608879,0.002391308080404997
1761391734041783800,2.33578369140625,0.0005542375147342682,0.0003989441320300102,-0.00007786741480231285
1761391734051849700,2.345849609375,-0.0004079625941812992,0.0007629981264472008,-0.0038550288882106543
1761391734061915600,2.35591552734375,-0.00041083013638854027,0.0025497088208794594,0.00035854289308190346
1761391734071981600,2.365981689453125,0.001413701567798853,0.002114548347890377,-0.0012747743166983128
1761391734082047700,2.3760478515625,0.00015258556231856346,0.0023364750668406487,-0.00008901441469788551
1761391734092113700,2.38611376953125,-0.0014149504713714123,0.0029716407880187035,0.00239651370793581
1761391734102180600,2.3961806640625,-0.000988899264484644,0.0031160423532128334,-0.0008498048409819603
1761391734112246800,2.406246826171875,0.0017198016867041588,0.002116292715072632,0.00037045590579509735
1761391734122312700,2.416312744140625,0.0010201572440564632,-0.0010151555761694908,-0.00024828361347317696
1761391734132379000,2.42637890625,-0.00017719995230436325,0.0011768918484449387,-0.00032551540061831474
1761391734142444800,2.43644482421875,0.0029492212925106287,-0.001725275069475174,-0.0012534554116427898
1761391734152510700,2.4465107421875,0.0021524038165807724,-0.002225949428975582,0.0002632150426506996
1761391734162576600,2.45657666015625,-0.0006642462685704231,5.736947059631348e-7,0.0014536315575242043
1761391734172642800,2.466642822265625,-0.00019899196922779083,0.0014703720808029175,0.00014016032218933105
1761391734182708700,2.476708740234375,-0.0011789039708673954,-0.0017203083261847496,-0.0011877147480845451
1761391734192774700,2.486774658203125,-0.00015385309234261513,0.0014970572665333748,-0.0011554905213415623
1761391734202840800,2.4968408203125,-0.0008385325782001019,-0.0015448853373527527,0.0013698255643248558
1761391734212906800,2.50690673828125,0.00027839746326208115,0.000901760533452034,-0.0008909320458769798
1761391734222973000,2.516972900390625,-0.001086035743355751,-0.00039662420749664307,-0.0021424046717584133
1761391734233040000,2.527039794921875,0.0016698036342859268,0.003704110160470009,0.00006189383566379547
1761391734243105500,2.53710546875,0.0011120992712676525,0.00314928125590086,0.0008163992315530777
1761391734253171700,2.547171630859375,0.0009685549885034561,0.0014677615836262703,0.0011279890313744545
1761391734263237600,2.557237548828125,-0.0003202175721526146,0.003823581151664257,-0.00005065556615591049
1761391734273303800,2.5673037109375,0.00010082824155688286,-0.0001948624849319458,0.0014223386533558369
1761391734283369700,2.57736962890625,-0.00027490127831697464,0.003526226617395878,-0.0008415798656642437
1761391734293436000,2.587435791015625,0.0009890352375805378,0.005095361731946468,-0.003665329422801733
1761391734303501800,2.597501708984375,-0.000096077099442482,0.0038249660283327103,-0.0018238755874335766
1761391734313567700,2.607567626953125,-0.0007405620999634266,0.0016262605786323547,-0.0032697059214115143
1761391734323633700,2.617633544921875,-0.0003215242177248001,-0.0007338328287005424,0.0011768927797675133
1761391734333699600,2.627699462890625,0.0008073900826275349,0.0025802049785852432,-0.0005576238036155701
1761391734343765800,2.637765869140625,0.000955275259912014,-0.0002786461263895035,0.0011468478478491306
1761391734353832700,2.647832763671875,0.0013952297158539295,0.0020135361701250076,0.0006485707126557827
1761391734363899000,2.65789892578125,0.0014260737225413322,0.003149118274450302,-0.003140319138765335
1761391734373964800,2.66796484375,0.0015259422361850739,0.00037170667201280594,-0.0003914046101272106
1761391734384030700,2.67803076171875,0.000586269423365593,0.00249312911182642,-0.0018359329551458359
1761391734394097000,2.688096923828125,-0.0006795311346650124,-0.0001444648951292038,0.002807288896292448
1761391734404162600,2.69816259765625,-0.002070929855108261,0.00018258672207593918,-0.0029919049702584743
1761391734414228700,2.708228759765625,-0.00026797037571668625,0.0026670508086681366,-0.003356758039444685
1761391734424294700,2.718294677734375,0.002677276963368058,-0.0006551099941134453,-0.00012372015044093132
1761391734434360800,2.72836083984375,0.00158298434689641,0.0026581287384033203,0.00008267490193247795
1761391734444426800,2.7384267578125,0.0009123119525611401,0.003472735174000263,-0.0012664413079619408
1761391734454493000,2.748492919921875,-0.0005926406010985374,0.0012556537985801697,0.0011977814137935638
1761391734464558800,2.758558837890625,0.0016410686075687408,0.0006298515945672989,0.0021865270100533962
1761391734474624800,2.768624755859375,0.0011992501094937325,0.000558212399482727,0.0016275295056402683
1761391734484692000,2.77869189453125,0.0009087910875678062,-0.0018957024440169334,0.0005800561048090458
1761391734494757600,2.788757568359375,-0.0005596759729087353,-0.004989230073988438,0.0011885878629982471
1761391734504823800,2.79882373046875,-0.0007081525400280952,-0.004418356344103813,0.0037137591280043125
1761391734514889700,2.8088896484375,-0.0027396120131015778,-0.002859341911971569,0.004484744276851416
1761391734524955600,2.81895556640625,-0.0022781649604439735,-0.0034658117219805717,0.002834938932210207
1761391734535021000,2.82902099609375,-0.001300252042710781,-0.001650867983698845,0.00480914069339633
1761391734545087000,2.8390869140625,-0.004604845307767391,-0.000969231128692627,0.002070265356451273
1761391734555153200,2.849153076171875,0.0011257450096309185,0.0028161872178316116,0.0021949014626443386
1761391734565219000,2.859218994140625,0.0001881411299109459,0.004182655364274979,-0.0008520572446286678
1761391734575285200,2.86928515625,0.0005934746004641056,0.004226597025990486,-0.00022275233641266823
1761391734585351200,2.87935107421875,0.0022721742279827595,0.008209689520299435,0.0011425926350057125
1761391734595417000,2.8894169921875,0.0026889590080827475,0.009066428057849407,-0.006239689886569977
1761391734605483000,2.89948291015625,0.00541650177910924,0.010020183399319649,-0.006285231560468674
1761391734615550000,2.909550048828125,0.005234607961028814,0.008875291794538498,-0.008573419414460659
1761391734625616100,2.9196162109375,0.0049054548144340515,0.011390389874577522,-0.006439441815018654
1761391734635682000,2.92968212890625,0.005839425604790449,0.008363975211977959,-0.0049025313928723335
1761391734645748200,2.939748291015625,0.0019091754220426083,0.004912669770419598,-0.006021387875080109
1761391734655814100,2.949814208984375,-0.0014338907785713673,0.003611181862652302,-0.0036168196238577366
1761391734665880300,2.95988037109375,-0.0010174000635743141,0.00035192444920539856,-0.007030155044049025
1761391734675946200,2.9699462890625,0.00020286021754145622,0.0006744330748915672,-0.00419122539460659
1761391734686012000,2.980011962890625,-0.0027838745154440403,0.0016528787091374397,-0.006846663076430559
1761391734696078000,2.990078125,0.0038068348076194525,0.0019061584025621414,-0.002476662863045931
1761391734706144000,3.00014404296875,0.0015501533634960651,0.005102736875414848,-0.007001126650720835
1761391734716210200,3.010210205078125,0.000019101891666650772,0.005401810631155968,-0.000799157191067934
1761391734726276000,3.020276123046875,0.0010884366929531097,0.004151402041316032,-0.0012257173657417297
1761391734736342300,3.03034228515625,-0.00010998547077178955,0.0031037144362926483,0.00037777191027998924
1761391734746409200,3.0404091796875,-0.0022986088879406452,0.001608777791261673,0.0018001268617808819
1761391734756475100,3.05047509765625,0.0005562994629144669,-0.0012469301000237465,0.00018039299175143242
1761391734766541300,3.060541259765625,-0.0024473140947520733,-0.0023037139326334,0.003997636493295431
1761391734776607000,3.07060693359375,-0.0012970948591828346,-0.00011832453310489655,0.0031009498052299023
1761391734786673200,3.080673095703125,0.0004883790388703346,-0.00016597937792539597,0.0021116393618285656
1761391734796739000,3.090739013671875,0.00089610880240798,-0.001206476241350174,0.0032546683214604855
1761391734806805200,3.10080517578125,-0.0002888687886297703,0.003953250125050545,0.004674229305237532
1761391734816871200,3.11087109375,-0.00023640459403395653,0.0021430999040603638,0.002828925382345915
1761391734826937000,3.12093701171875,-0.00138932466506958,0.00006333086639642715,0.00682469317689538
1761391734837003300,3.131003173828125,0.0023050126619637012,0.0009605502709746361,0.002731414046138525
1761391734847069000,3.14106884765625,0.0015709162689745426,0.00363371055573225,0.0037811375223100185
1761391734857135000,3.151135009765625,-0.00012125633656978607,0.0021308893337845802,0.0011914796195924282
1761391734867202000,3.1612021484375,-0.00150972418487072,-0.001513354480266571,0.0040264553390443325
1761391734877268000,3.17126806640625,0.0009441119618713856,-0.00016206689178943634,0.0033758445642888546
1761391734887334100,3.181334228515625,0.003006131388247013,-0.002727140672504902,0.000207479577511549
1761391734897400000,3.191400146484375,0.0007834569551050663,-0.0027061020955443382,-0.0004500546492636204
1761391734907466200,3.20146630859375,0.00011729169636964798,-0.0008994815871119499,0.003142340574413538
1761391734917532200,3.2115322265625,0.003388984827324748,0.0002872226759791374,0.0004381672479212284
1761391734927598300,3.221598388671875,0.0023611136712133884,0.001574130728840828,0.0006178724579513073
1761391734937664000,3.2316640625,0.0018228888511657715,-0.005013731308281422,0.0025041899643838406
1761391734947730200,3.241730224609375,0.003837856464087963,-0.00538385845720768,-0.0004879855550825596
1761391734957796000,3.251796142578125,0.005647208075970411,-0.00472259521484375,-0.0007939827628433704
1761391734967862000,3.261862060546875,0.006137257441878319,-0.002281462773680687,-0.0012249182909727097
1761391734977928200,3.27192822265625,0.003061306430026889,0.001564142294228077,0.0022276039235293865
1761391734987994000,3.281994140625,0.003967641852796078,-0.00009880121797323227,0.00035283109173178673
1761391734998061000,3.29206103515625,0.0032600401900708675,0.0018146801739931107,-0.002256267238408327
1761391735008127200,3.302127197265625,0.003297648159787059,-0.0012121107429265976,-0.002920534461736679
1761391735018193200,3.312193115234375,0.004519772715866566,0.0038004908710718155,-0.0022371672093868256
1761391735028259000,3.322259033203125,0.00212104432284832,0.002657143399119377,-0.0008412906900048256
1761391735038325000,3.332324951171875,0.004656107164919376,0.0049149710685014725,-0.0027441196143627167
1761391735048391200,3.34239111328125,0.001179093960672617,0.0033072475343942642,-0.0015884987078607082
1761391735058457000,3.35245703125,0.003969553858041763,0.003269962966442108,0.0005910326726734638
1761391735068523300,3.362523193359375,0.00037879496812820435,0.0039024101570248604,-0.0005303109064698219
1761391735078589200,3.372589111328125,0.0011255452409386635,0.0016797371208667755,0.00011923396959900856
1761391735088655400,3.3826552734375,0.00026245228946208954,-0.0005148686468601227,-0.0003707469440996647
1761391735098721000,3.392720947265625,-0.0022433162666857243,-0.00236336886882782,-0.0017446717247366905
1761391735108787000,3.402786865234375,-0.0011306754313409328,0.0009593786671757698,0.0003550010733306408
1761391735118853000,3.41285302734375,0.0022576642222702503,-0.0003205360844731331,0.0033276216126978397
1761391735128920000,3.422920166015625,-0.00075862230733037,-0.001585245132446289,0.00014255614951252937
1761391735138986000,3.432986083984375,0.000039793550968170166,0.001321328803896904,0.0016235397197306156
1761391735149052200,3.44305224609375,-0.002621722873300314,0.0017845826223492622,-0.0016030287370085716
1761391735159118000,3.4531181640625,0.0016771522350609303,0.003089532256126404,-0.00034361984580755234
1761391735169184300,3.463184326171875,0.0013534310273826122,0.0007439134642481804,0.0012305923737585545
1761391735179250200,3.473250244140625,0.002507911529392004,0.00037400051951408386,-0.00009859120473265648
1761391735189316000,3.483316162109375,-0.0006993194110691547,0.001246519386768341,-0.0013835886493325233
1761391735199382000,3.493382080078125,0.002282621804624796,-0.003380723297595978,0.0023541576229035854
1761391735209448200,3.5034482421875,0.0014168857596814632,0.0023851804435253143,-0.0011120205745100975
1761391735219514000,3.51351416015625,0.00015161791816353798,-0.0016865255311131477,0.0024598105810582638
1761391735229580300,3.523580322265625,0.001374678686261177,0.0008481526747345924,0.0006303894333541393
1761391735239646200,3.533646240234375,0.0029683143366128206,0.003773634321987629,0.0012146872468292713
1761391735249712000,3.543712158203125,-0.0008263103663921356,-0.0007805908098816872,-0.001335436012595892
1761391735259779300,3.553779296875,0.0005920892581343651,0.00003859773278236389,0.00014714570716023445
1761391735269845200,3.56384521484375,-0.0006077028810977936,-0.0017386330291628838,0.00007946137338876724
1761391735279911200,3.5739111328125,-0.0002697473391890526,-0.00028055254369974136,0.0010488522239029408
1761391735289977000,3.58397705078125,0.001721094362437725,0.003597663715481758,0.0008683851920068264
1761391735300043000,3.59404296875,-0.0013615144416689873,-0.0018588881939649582,-0.0003694524057209492
1761391735310109200,3.604109130859375,0.0015214188024401665,-0.0007409555837512016,0.0016479832120239735
1761391735320175000,3.614175048828125,0.001420751679688692,0.002056961879134178,-0.0006620422936975956
1761391735330241300,3.6242412109375,0.002324347384274006,0.0015639178454875946,-0.00021087704226374626
1761391735340307200,3.63430712890625,0.0019898544996976852,0.0014291619881987572,0.0016932827420532703
1761391735350373000,3.644373046875,0.001999832224100828,0.004773986525833607,-0.00025916285812854767
1761391735360439000,3.65443896484375,0.003826494561508298,0.001809888519346714,-0.00006262166425585747
1761391735370505200,3.664505126953125,0.001231510192155838,0.0006398716941475868,0.0009046387858688831
1761391735380572200,3.674572265625,0.0015968959778547287,-0.001247243955731392,-0.002102070488035679
1761391735390638000,3.68463818359375,-0.00038937246426939964,0.0020591486245393753,0.0005722786299884319
1761391735400704300,3.694704345703125,0.0005736262537539005,0.0016903011128306389,0.0004793344996869564
1761391735410770200,3.704770263671875,0.0016964818350970745,0.0030246051028370857,-0.00031839869916439056
1761391735420836000,3.714836181640625,0.001283958088606596,-0.0010822564363479614,0.0018390282057225704
1761391735430902300,3.72490234375,0.000492374412715435,0.0009033326059579849,-0.0014162673614919186
1761391735440968000,3.734968017578125,0.0022503272630274296,0.0038759522140026093,0.0025425213389098644
1761391735451034000,3.7450341796875,0.0002521318383514881,0.00016558729112148285,-0.00005043810233473778
1761391735461100000,3.75510009765625,0.00015066517516970634,0.004714000038802624,-0.00010316865518689156
1761391735471166200,3.765166259765625,0.0021405527368187904,0.00104605033993721,-0.0000659632496535778
1761391735481232100,3.775232177734375,0.0012481273151934147,-0.00014571379870176315,-0.001671317033469677
1761391735491298300,3.78529833984375,-0.0005816472694277763,0.0005863271653652191,-0.0027722460217773914
1761391735501364200,3.7953642578125,0.0026045585982501507,0.0009756814688444138,0.0009346078149974346
1761391735511431200,3.80543115234375,0.0008112750947475433,0.001997244544327259,0.0007078824564814568
1761391735521497000,3.8154970703125,0.00115295872092247,0.0004946896806359291,0.0008024247363209724
1761391735531563000,3.82556298828125,0.0021973182447254658,-0.0006989389657974243,0.00011485395953059196
1761391735541629400,3.83562939453125,-0.0014421576634049416,-0.0014531463384628296,0.0012051519006490707
1761391735551695400,3.8456953125,0.0013459776528179646,-0.001419268548488617,-0.0016302112489938736
1761391735561761000,3.855760986328125,0.0006346474401652813,0.0017376430332660675,-0.0005742679350078106
1761391735571827200,3.8658271484375,-0.001210926566272974,0.0011448320001363754,0.0023519163951277733
1761391735581893000,3.87589306640625,-0.00038428138941526413,-0.0006293663755059242,0.0005236556753516197
1761391735591959300,3.885959228515625,0.0023564172443002462,0.0018302816897630692,0.0023083463311195374
1761391735602025200,3.896025146484375,-0.00030061881989240646,0.00032639410346746445,0.0023027537390589714
1761391735612091400,3.90609130859375,0.000542057678103447,0.0008881324902176857,0.0012697461061179638
1761391735622157300,3.9161572265625,0.00009091803804039955,-0.0011329399421811104,0.001855908427387476
1761391735632223500,3.926223388671875,-0.0009888308122754097,0.0005213925614953041,0.0012176143936812878
1761391735642290400,3.93629052734375,-0.0015070820227265358,0.003799477592110634,0.000049818772822618484
1761391735652356000,3.946356201171875,-0.00010931771248579025,-0.0015018805861473083,-0.000520089641213417
1761391735662422300,3.95642236328125,0.000004399102181196213,-0.00015884917229413986,-0.002932380884885788
1761391735672488200,3.96648828125,0.001137630082666874,-0.000812954269349575,0.00013937987387180328
1761391735682554400,3.976554443359375,-0.0004448201507329941,0.0005692262202501297,0.0008525745943188667
1761391735692620300,3.986620361328125,0.002023502718657255,0.004525563679635525,-0.00020959600806236267
1761391735702686200,3.996686279296875,0.0006397240795195103,0.0002890070900321007,-0.0009899018332362175
1761391735712752400,4.00675244140625,0.000038197729736566544,-0.0012618526816368103,0.0003629904240369797
1761391735722818000,4.016818115234375,0.0011948086321353912,-0.0015108585357666016,-0.0005219783633947372
1761391735732884200,4.02688427734375,0.0011761346831917763,-0.0008663469925522804,0.0006210296414792538
1761391735742950100,4.0369501953125,0.0010725376196205616,-0.0004783244803547859,-0.0012253397144377232
1761391735753016300,4.047016357421875,0.00198094779625535,-0.0032971613109111786,-0.003471300471574068
1761391735763082200,4.057082275390625,-0.0008971304632723331,-0.00243296567350626,0.0011532790958881378
1761391735773149200,4.067149169921875,-0.0009674360044300556,-0.0005267681553959846,0.005034935660660267
1761391735783215400,4.07721533203125,-0.0013314899988472462,-0.002768084406852722,0.0036482280120253563
1761391735793281300,4.08728125,-0.000902161467820406,-0.0016023609787225723,-0.00031384872272610664
1761391735803347500,4.097347412109375,0.000038733240216970444,0.0009561376646161079,0.0009492882527410984
1761391735813413000,4.1074130859375,-0.0004428247921168804,0.0007205288857221603,-0.0028086286038160324
1761391735823479300,4.117479248046875,-0.0012401752173900604,0.0015011010691523552,0.0005477531813085079
1761391735833545200,4.127545166015625,-0.0001780455932021141,0.0015158643946051598,-0.0002923714928328991
1761391735843611100,4.137611083984375,-0.001845451071858406,0.001624787226319313,-0.001703048124909401
1761391735853677300,4.14767724609375,0.0014247470535337925,0.0008791768923401833,-0.0004232320934534073
1761391735863743200,4.1577431640625,0.0006079557351768017,0.00030659791082143784,-0.0008964757435023785
1761391735873809400,4.167809326171875,0.001870710402727127,0.001196778379380703,-0.002671997994184494
1761391735883875300,4.177875244140625,-0.0011746142990887165,-0.0022102035582065582,0.0020287474617362022
1761391735893941200,4.187941162109375,0.0011804546229541302,-0.0019468441605567932,-0.0015100985765457153
1761391735904008200,4.19800830078125,0.0008371733129024506,0.0015136674046516418,0.0027357786893844604
1761391735914074000,4.20807421875,0.00003386940807104111,0.00018067657947540283,-0.0012464909814298153
1761391735924140300,4.218140380859375,0.0005324129015207291,0.003149302676320076,0.001120526809245348
1761391735934206200,4.228206298828125,0.0014003640972077847,-0.0006095189601182938,0.000015432480722665787
1761391735944272400,4.2382724609375,0.00020620273426175117,0.0018768087029457092,0.00045085977762937546
1761391735954338300,4.24833837890625,-0.00044186366721987724,-0.008331499993801117,0.0014725606888532639
1761391735964404200,4.258404296875,-0.0020685228519141674,0.001107540912926197,-0.0013684998266398907
1761391735974470100,4.26847021484375,-0.0021281777881085873,0.0004534684121608734,0.004603639245033264
1761391735984536000,4.2785361328125,-0.0003839433193206787,0.0010244781151413918,-0.0017819767817854881
1761391735994602200,4.288602294921875,-0.0010216813534498215,0.0003948640078306198,0.0025588413700461388
1761391736004668200,4.298668212890625,0.0004840698093175888,0.002639908343553543,0.0007950300350785255
1761391736014734300,4.308734375,-0.0007785479538142681,-0.004027272574603558,0.001886642538011074
1761391736024800300,4.31880029296875,-0.00006428826600313187,0.0020870789885520935,0.0020807869732379913
1761391736034867200,4.3288671875,-0.0001381835900247097,-0.0019911248236894608,0.00021682074293494225
1761391736044933400,4.338933349609375,-0.0008638952858746052,-0.003297671675682068,-0.000977340154349804
1761391736054999300,4.348999267578125,-0.0009445920586585999,0.00005571264773607254,0.0009667291305959225
1761391736065065200,4.359065185546875,-0.0017222347669303417,-0.0020284773781895638,0.002100969199091196
1761391736075131100,4.369131103515625,-0.000279952771961689,-0.0014154976233839989,0.00015637138858437538
1761391736085197300,4.379197265625,-0.001062389463186264,-0.0005843248218297958,-0.00015841377899050713
1761391736095263200,4.38926318359375,0.0010199793614447117,0.0006519798189401627,0.0033104894682765007
1761391736105329200,4.3993291015625,0.0022740617860108614,-0.00031421519815921783,-0.00028211483731865883
1761391736115395300,4.409395263671875,0.0018992540426552296,0.0007415385916829109,0.0035762013867497444
1761391736125461200,4.419461181640625,-0.0014856234192848206,-0.0006686048582196236,-0.0015868693590164185
1761391736135527400,4.42952734375,0.0002236953005194664,0.0037659481167793274,-0.0028435285203158855
1761391736145593000,4.439593017578125,0.0003254278562963009,0.003233581781387329,0.0002827565185725689
1761391736155659300,4.4496591796875,-0.0016270210035145283,0.0016355793923139572,-0.00272941030561924
1761391736165726200,4.459726318359375,0.000682472251355648,0.0005189161747694016,-0.0022505740635097027
1761391736175792000,4.469792236328125,0.0003047832287847996,-0.0015533296391367912,-0.0011676368303596973
1761391736185858300,4.4798583984375,0.00015111872926354408,-0.002376778982579708,-0.0012331507168710232
1761391736195924200,4.48992431640625,0.002229351084679365,-0.00013776496052742004,0.0006302297115325928
1761391736205990400,4.499990478515625,-0.00003540096804499626,0.0006982013583183289,0.00041611213237047195
1761391736216056300,4.510056396484375,-0.0016423258930444717,-0.0011587031185626984,-0.0015741395764052868
1761391736226122200,4.520122314453125,-0.0018079737201333046,-0.0019848160445690155,0.00019979197531938553
1761391736236188200,4.530188232421875,0.00102516682818532,0.0013231243938207626,-0.0002997172996401787
1761391736246254000,4.540254150390625,-0.00017165765166282654,-0.002463357523083687,0.0024340180680155754
1761391736256320300,4.5503203125,0.0002213846892118454,0.003549582324922085,-0.00019935332238674164
1761391736266386200,4.56038623046875,-0.0006148479878902435,-0.002949862740933895,0.0004291525110602379
1761391736276452400,4.570452392578125,-0.00016638264060020447,0.004250259138643742,0.00238477298989892
1761391736286518300,4.580518310546875,-0.0012172656133770943,-0.003080890513956547,0.0024889023043215275
1761391736296585200,4.590585205078125,0.0004140459932386875,0.001688709482550621,-0.002392204012721777
1761391736306651400,4.6006513671875,0.0006508012302219868,-0.0008586039766669273,0.0009013274684548378
1761391736316717000,4.610717041015625,0.0016031409613788128,-0.002729238010942936,-0.002612338401377201
1761391736326783200,4.620783203125,0.0010097888298332691,0.0011264858767390251,0.0024127806536853313
1761391736336849200,4.63084912109375,0.0010825218632817268,0.0006279731169342995,-0.0009562000632286072
1761391736346915300,4.640915283203125,-0.00021656835451722145,-0.0005062678828835487,0.0022806059569120407
1761391736356981200,4.650981201171875,-0.0011469218879938126,0.0028708074241876602,0.0025876383297145367
1761391736367047400,4.66104736328125,0.0008885320276021957,-0.002154311165213585,-0.0010750070214271545
1761391736377113300,4.67111328125,-0.0005559679120779037,-0.0033013345673680305,0.004753762856125832
1761391736387179300,4.68117919921875,-0.002416186034679413,0.0034170225262641907,-0.003609894774854183
1761391736397245200,4.6912451171875,-0.0014417944476008415,0.004058709368109703,0.004386913497000933
1761391736407311000,4.70131103515625,-0.0002186046913266182,-0.0063015189953148365,-0.0009130435064435005
1761391736417377300,4.711377197265625,0.0014555794186890125,0.01180412620306015,0.00033241696655750275
1761391736427444200,4.7214443359375,0.0020289579406380653,-0.015325495973229408,0.004003051668405533
1761391736437510100,4.73151025390625,0.0000688689760863781,0.018428994342684746,0.0006319456733763218
1761391736447576300,4.741576416015625,-0.0007705595344305038,-0.013903644867241383,0.0055468096397817135
1761391736457642200,4.751642333984375,-0.00005574757233262062,0.006474130786955357,-0.005066808313131332
1761391736467708400,4.76170849609375,-0.0018621701747179031,-0.002150516025722027,0.0066668130457401276
1761391736477774000,4.771774169921875,0.0004249610938131809,0.001818978227674961,-0.0026962431147694588
1761391736487840300,4.78184033203125,0.0007437416352331638,0.0015678424388170242,-0.0010967487469315529
1761391736497906200,4.79190625,-0.0012838677503168583,-0.001678071916103363,0.004037515725940466
1761391736507972400,4.801972412109375,0.001306322868913412,0.002276989631354809,-0.002707206178456545
1761391736518038300,4.812038330078125,0.00111288670450449,0.0011481130495667458,0.0011205105111002922
1761391736528104200,4.822104248046875,0.0007360493764281273,0.004571873694658279,0.001039549708366394
1761391736538170000,4.832170166015625,0.00023485207930207253,-0.002098744735121727,-0.002536983694881201
1761391736548235800,4.84223583984375,0.0013083722442388535,0.001691998913884163,-0.0007063266821205616
1761391736558303200,4.85230322265625,0.0012418776750564575,0.002192353829741478,0.0014999057166278362
1761391736568369000,4.862368896484375,-0.0010684146545827389,0.0006770147010684013,0.0022338726557791233
1761391736578435000,4.87243505859375,-0.0018598120659589767,-0.0012437235563993454,0.000010378193110227585
1761391736588501000,4.8825009765625,0.0002278401516377926,0.00015816465020179749,-0.0026216236874461174
1761391736598567000,4.89256689453125,0.0007613846100866795,-0.0012168390676379204,-0.0005079344846308231
1761391736608633000,4.902633056640625,-0.0006530201062560081,-0.003354557789862156,0.0024886541068553925
1761391736618699000,4.912698974609375,-0.000777137465775013,-0.00027024466544389725,0.001114923506975174
1761391736628765200,4.92276513671875,-0.0012160264886915684,-0.0007956856861710548,0.00034420471638441086
1761391736638830800,4.932830810546875,0.0011918325908482075,0.002746184356510639,0.0003069974482059479
1761391736648897000,4.94289697265625,-0.000058255624026060104,-0.0016528256237506866,0.0016745300963521004
1761391736658963000,4.952962890625,0.00018680421635508537,0.0000011706724762916565,-0.001788484863936901
1761391736669029000,4.963029052734375,-0.0015197494067251682,-0.001699524000287056,0.0004291292279958725
1761391736679095000,4.973094970703125,0.0005902498960494995,0.0011250516399741173,-0.0026364275254309177
1761391736689162000,4.983161865234375,0.0011873305775225163,0.0030553098767995834,0.002470183651894331
1761391736699228200,4.993228271484375,-0.0011663306504487991,0.0012712730094790459,0.002197999507188797
1761391736709294000,5.003294189453125,0.002237455453723669,-0.0005545904859900475,-0.0000736769288778305
1761391736719360000,5.013360107421875,-0.0014607077464461327,0.00020747072994709015,-0.00254123006016016
1761391736729426000,5.023426025390625,0.00182057311758399,0.0009608790278434753,0.0002577523700892925
1761391736739491800,5.033491943359375,0.00021939584985375404,0.0006889710202813148,-0.0008272547274827957
1761391736749558000,5.04355810546875,0.0024668374098837376,-0.004866383038461208,-0.0001438879407942295
1761391736759624000,5.0536240234375,0.001523943617939949,0.00012739188969135284,0.0010205921716988087
1761391736769690000,5.063690185546875,0.00234233308583498,0.0003966372460126877,0.0013031535781919956
1761391736779756000,5.073756103515625,-0.0002426188439130783,0.0007150452584028244,0.0013928902335464954
1761391736789822200,5.083822265625,0.00010172789916396141,-0.00015367846935987473,0.0009486754424870014
1761391736799888000,5.093887939453125,-0.0006955047138035297,0.001599760726094246,-0.0015783440321683884
1761391736809954000,5.1039541015625,0.0010171742178499699,0.0004838956519961357,0.0026880400255322456
1761391736820021000,5.11402099609375,0.0006331210024654865,-0.0010776761919260025,-0.0017193150706589222
1761391736830087000,5.1240869140625,0.0006725359708070755,-0.0005250703543424606,0.001054366584867239
1761391736840153000,5.134153076171875,0.0005222978070378304,-0.0014162827283143997,0.001304152887314558
1761391736850219000,5.144218994140625,0.0014735786244273186,-0.0010192058980464935,-0.0012325076386332512
1761391736860285000,5.154284912109375,0.0013285530731081963,-0.00012805964797735214,-0.0009630401618778706
1761391736870351000,5.16435107421875,0.001664910465478897,-0.0007826648652553558,-0.0027231229469180107
1761391736880417000,5.1744169921875,0.0007745432667434216,-0.0013990942388772964,-0.0003075147978961468
1761391736890483000,5.18448291015625,0.0019295564852654934,-0.0009908312931656837,-0.0000603734515607357
1761391736900548900,5.194548828125,0.0011782567016780376,0.001082475297152996,0.000695456750690937
1761391736910615000,5.204614990234375,-0.0003208364360034466,-0.00016974285244941711,-0.0001572873443365097
1761391736920681000,5.214680908203125,0.0016356175765395164,-0.000069362111389637,-0.0014198757708072662
1761391736930747100,5.2247470703125,0.00046142982318997383,-0.0011809654533863068,-0.0008749929256737232
1761391736940814000,5.23481396484375,0.0014653406105935574,0.0009691771119832993,0.0008582575246691704
1761391736950880000,5.2448798828125,0.0015484313480556011,-0.00044842343777418137,0.00016796588897705078
1761391736960946200,5.2549462890625,0.0014719543978571892,-0.0021675201132893562,-0.00018771644681692123
1761391736971012000,5.26501220703125,0.00331965577788651,-0.0008335430175065994,0.0005702194757759571
1761391736981078000,5.275078125,0.001155381090939045,-0.0037767114117741585,-0.0016023451462388039
1761391736991144000,5.28514404296875,0.001381483394652605,-0.002102648839354515,-0.0027712066657841206
1761391737001209900,5.2952099609375,-0.0005286452360451221,-0.0014512250199913979,0.0003413804806768894
1761391737011276000,5.305276123046875,0.001032765954732895,-0.0007417593151330948,-0.00040776655077934265
1761391737021342000,5.315342041015625,-0.002168342936784029,-0.00035019125789403915,-0.0026197307743132114
1761391737031408000,5.325408203125,0.0008804439567029476,0.003202732652425766,0.002040534745901823
1761391737041474000,5.33547412109375,-0.0024770605377852917,0.0005973326042294502,9.848736226558685e-7
1761391737051540000,5.3455400390625,-0.0017830408178269863,0.0016002785414457321,0.0024953018873929977
1761391737061606000,5.35560595703125,-0.0006415173411369324,-0.0005401512607932091,-0.0004733665846288204
1761391737071672800,5.3656728515625,-0.00026361458003520966,0.00037331320345401764,0.0010574180632829666
1761391737081739000,5.375739013671875,-0.0017206151969730854,0.002770255319774151,-0.0005930354818701744
1761391737091805000,5.385804931640625,0.0003798198886215687,-0.002758999355137348,-0.0013981088995933533
1761391737101871000,5.39587109375,0.00039088819175958633,0.002827712334692478,0.0028044176287949085
1761391737111937000,5.40593701171875,0.0004263082519173622,-0.004489055834710598,0.0016818945296108723
1761391737122003200,5.416003173828125,0.0007861708290874958,-0.004194087348878384,0.0002572648227214813
1761391737132069000,5.426069091796875,-0.0003672442398965359,-0.001729864627122879,0.0028274813666939735
1761391737142134800,5.436134765625,0.0015025944449007511,-0.0021004993468523026,-0.0013653351925313473
1761391737152201000,5.446200927734375,0.00023812567815184593,0.0016244640573859215,0.0006003440357744694
1761391737162267000,5.456266845703125,0.00008581019937992096,0.0026591885834932327,0.0017808359116315842
1761391737172333000,5.4663330078125,0.0032579011749476194,0.001825619488954544,-0.00006606662645936012
1761391737182399000,5.47639892578125,-0.0005314340814948082,0.0036152293905615807,0.00023283762857317924
1761391737192465200,5.486465087890625,0.0019692741334438324,0.0010628560557961464,-0.000012706033885478973
1761391737202532000,5.496531982421875,0.0008306778036057949,0.0011808648705482483,0.0023768353275954723
1761391737212598000,5.506597900390625,0.0013795550912618637,0.0003401050344109535,-0.001284212339669466
1761391737222663000,5.516662841796875,0.00023516826331615448,0.0007318081334233284,0.0008559944108128548
1761391737232729900,5.526729736328125,0.0010343831963837147,-0.0015206942334771156,0.0014637280255556107
1761391737242796000,5.536796142578125,0.00027333153411746025,-0.001973596401512623,0.0023605190217494965
1761391737252862000,5.546862060546875,0.0004160772077739239,-0.003165094181895256,0.0019764918833971024
1761391737262928100,5.55692822265625,0.0011740759946405888,-0.0017687417566776276,0.0017123604193329811
1761391737272994000,5.566994140625,-0.0003151637502014637,-0.003756791353225708,-0.0017225844785571098
1761391737283060000,5.57706005859375,0.00006266031414270401,-0.0011388277634978294,0.0031966622918844223
1761391737293126100,5.587126220703125,-0.0015549440868198872,0.000041219405829906464,-0.0013735885731875896
1761391737303191800,5.59719189453125,0.002489161677658558,-0.0006210356950759888,-0.00029884884133934975
1761391737313258000,5.607258056640625,0.00020763138309121132,0.000006138347089290619,0.0006228713318705559
1761391737323324000,5.617323974609375,0.0008370974101126194,-0.0013991305604577065,-0.00045974599197506905
1761391737333390000,5.62739013671875,0.0016453666612505913,-0.002348547801375389,-0.0016187536530196667
1761391737343456000,5.6374560546875,0.0007369094528257847,-0.001628589816391468,-0.0010470743291079998
1761391737353522200,5.647522216796875,0.000051145441830158234,0.00034481287002563477,-0.0006966022774577141
1761391737363589000,5.657589111328125,-0.001306905411183834,0.0001233210787177086,-0.0012274258770048618
1761391737373655000,5.667655029296875,-0.0018659033812582493,-0.0031065605580806732,0.003288762178272009
1761391737383721200,5.67772119140625,-0.0013241772539913654,-0.0009966976940631866,0.001742461696267128
1761391737393787000,5.687786865234375,0.0023959926329553127,-0.004136565141379833,0.0017078407108783722
1761391737403853000,5.69785302734375,-0.00019388971850275993,-0.004830146208405495,0.0002771602012217045
1761391737413919000,5.7079189453125,0.00017948541790246964,-0.0027592722326517105,-0.0012978329323232174
1761391737423985000,5.71798486328125,0.00041750073432922363,-0.003349454142153263,0.0019472148269414902
1761391737434051000,5.728051025390625,0.0010087224654853344,-0.0012562097981572151,0.0020880969241261482
1761391737444117000,5.738116943359375,0.000032028183341026306,-0.0012425603345036507,0.0017925011925399303
1761391737454183200,5.74818310546875,-0.0006548012606799603,0.0019958438351750374,0.00016451114788651466
1761391737464248800,5.758248779296875,-0.0008102818392217159,-0.0002750074490904808,0.0019333288073539734
1761391737474315000,5.76831494140625,-0.0004781857132911682,0.00026907678693532944,0.002533072605729103
1761391737484382000,5.7783818359375,-0.0007587219588458538,-0.003024655394256115,-0.0021111280657351017
1761391737494447900,5.78844775390625,-0.0014649922959506512,-0.0017556585371494293,-0.0006501181051135063
1761391737504514000,5.79851416015625,-0.002234887331724167,0.0016077011823654175,0.0022965194657444954
1761391737514580000,5.808580078125,0.0016717039979994297,-0.0007228311151266098,0.0011313864961266518
1761391737524646100,5.818646240234375,0.00016537075862288475,-0.0011601103469729424,0.0007900097407400608
1761391737534712000,5.828712158203125,0.000870842020958662,0.0014931969344615936,0.0001798798330128193
1761391737544778500,5.838778564453125,0.0011073192581534386,0.0010857060551643372,0.0001283152960240841
1761391737554844700,5.8488447265625,0.0013539278879761696,-0.0026488443836569786,0.00019516050815582275
1761391737564910600,5.85891064453125,-0.001866284292191267,-0.0021866103634238243,0.005328597966581583
1761391737574976800,5.868976806640625,0.0002780933864414692,0.0002717534080147743,-0.00046084774658083916
1761391737585042700,5.879042724609375,0.0011691898107528687,-0.0013988874852657318,0.00004939781501889229
1761391737595108900,5.88910888671875,0.0010578697547316551,-0.0006931498646736145,0.0032100374810397625
1761391737605174500,5.899174560546875,-0.000530819408595562,0.0006719976663589478,0.0011411309242248535
1761391737615241500,5.909241455078125,-0.0022096754983067513,-0.002309943549335003,-0.0015981965698301792
1761391737625307600,5.9193076171875,0.002012920565903187,-0.001651037484407425,-0.0022652908228337765
1761391737635373600,5.92937353515625,0.0008270149119198322,-0.0009628767147660255,-0.00019921036437153816
1761391737645439700,5.939439697265625,0.0012828106991946697,-0.002685900777578354,0.0006340956315398216
1761391737655505700,5.949505615234375,-0.0015622442588210106,-0.001959657296538353,-0.001514009665697813
1761391737665571600,5.959571533203125,0.000029199756681919098,-0.004328005947172642,0.0011277156881988049
1761391737675637800,5.9696376953125,0.0002981792204082012,-0.0005649598315358162,0.0013554156757891178
1761391737685703400,5.979703369140625,-0.00011515617370605469,-0.0015408601611852646,-0.0011164722964167595
1761391737695769600,5.98976953125,-0.0012416732497513294,0.0009433366358280182,0.0010311002843081951
1761391737705835500,5.99983544921875,0.0005793184973299503,-0.0004174076020717621,0.00101091293618083
1761391737715901700,6.009901611328125,0.0017130263149738312,-0.00002911873161792755,-0.0003302553668618202
1761391737725967600,6.019967529296875,0.0029418286867439747,0.0011374810710549355,-0.00013993214815855026
1761391737736034600,6.03003466796875,-0.001109371893107891,0.003649108111858368,-0.0004999912343919277
1761391737746100700,6.040100830078125,-0.0007473309524357319,0.0016885790973901749,0.0024530510418117046
1761391737756166700,6.050166748046875,0.000405285507440567,0.0013604778796434402,-0.001142749097198248
1761391737766232800,6.06023291015625,0.0005483874119818211,0.0001992490142583847,-0.00048789847642183304
1761391737776298500,6.070298583984375,0.0011880788952112198,0.0015662498772144318,-0.0006383671425282955
1761391737786364700,6.08036474609375,0.0028250855393707752,-0.0023129256442189217,-0.0031578950583934784
1761391737796430600,6.0904306640625,0.0012823166325688362,-0.0010244883596897125,0.0018453854136168957
1761391737806496500,6.10049658203125,0.0005703652277588844,0.0007141651585698128,-0.000600721687078476
1761391737816562700,6.110562744140625,0.001759733073413372,-0.000588919036090374,0.00227708974853158
1761391737826628600,6.120628662109375,-0.00004986440762877464,-0.0014857808127999306,-0.0008360771462321281
1761391737836694800,6.13069482421875,-0.0011497498489916325,0.0049814386293292046,-0.001415314618498087
1761391737846760400,6.140760498046875,-0.0014520389959216118,-0.001947668381035328,-0.0010088980197906494
1761391737856826600,6.15082666015625,-0.0013364576734602451,0.00043053459376096725,0.0012555872090160847
1761391737866893600,6.1608935546875,-0.002641409169882536,-0.0004992075264453888,-0.0012326398864388466
1761391737876959500,6.17095947265625,-0.0008315243758261204,-0.0011844392865896225,0.003393537364900112
1761391737887025700,6.181025634765625,-0.0007541188970208168,-0.002003478817641735,0.0032845553942024708
1761391737897091600,6.191091552734375,0.0023322186898440123,-0.0010455399751663208,0.0008754595182836056
1761391737907157800,6.20115771484375,0.0019394755363464355,0.0014259638264775276,0.0022831307724118233
1761391737917223700,6.2112236328125,0.0019037891179323196,0.0005958564579486847,0.000721985474228859
1761391737927289600,6.22128955078125,0.000708447303622961,-0.0009816689416766167,-0.001223069615662098
1761391737937355500,6.23135546875,-0.00005827704444527626,0.000817563384771347,-0.0003266497515141964
1761391737947421400,6.24142138671875,-0.0012295483611524105,0.0007918952032923698,0.002469334751367569
1761391737957487600,6.251487548828125,0.001213102601468563,-0.0009921565651893616,0.00061018206179142
1761391737967553500,6.261553466796875,0.00012161396443843842,-0.003365212120115757,0.00009560957551002502
1761391737977619700,6.27161962890625,-0.0007279342971742153,0.002361915074288845,0.001190967857837677
1761391737987686700,6.281686767578125,-0.0025946474634110928,0.0012885769829154015,0.0014288085512816906
1761391737997752600,6.291752685546875,0.0020664166659116745,0.0009170658886432648,-0.00043167639523744583
1761391738007818800,6.30181884765625,0.0011156806722283363,0.0005344729870557785,-0.00034384382888674736
1761391738017884700,6.311884765625,0.0011295289732515812,0.0024812445044517517,0.0002556340768933296
1761391738027950600,6.32195068359375,0.0013317819684743881,0.0009356271475553513,-0.000769319012761116
1761391738038016500,6.3320166015625,0.000566389411687851,-0.0011991625651717186,-0.0036244941875338554
1761391738048082700,6.342082763671875,-0.00008014915511012077,0.0015839384868741035,-0.0019621988758444786
1761391738058148600,6.352148681640625,0.00046180421486496925,-0.00017241574823856354,-0.0013922825455665588
1761391738068214500,6.362214599609375,-0.0014896555803716183,0.0005506323650479317,-0.001524403691291809
1761391738078280700,6.37228076171875,-0.0006771250627934933,0.0001668715849518776,-0.001009881030768156
1761391738088346600,6.3823466796875,-0.0004640454426407814,0.0018306532874703407,-0.001961527392268181
1761391738098412500,6.39241259765625,-0.00003820611163973808,0.0028812699019908905,-0.0008453964255750179
1761391738108479700,6.402479736328125,0.003495928132906556,0.0006571514531970024,-0.0012071351520717144
1761391738118545400,6.41254541015625,-0.0001989416778087616,0.0038540102541446686,-0.001035893801599741
1761391738128611600,6.422611572265625,0.000043008942157030106,-0.0007551694288849831,0.0000015017576515674591
1761391738138677500,6.432677490234375,-0.0005439519882202148,-0.0020316224545240402,0.0007005808874964714
1761391738148743700,6.44274365234375,-0.0007157693617045879,0.002727074548602104,-0.0006572692655026913
1761391738158809600,6.4528095703125,0.000978534109890461,-0.0010764515027403831,-0.00254571670666337
1761391738168875800,6.462875732421875,-0.0014262120239436626,0.0007540611550211906,-0.0011090519838035107
1761391738178941700,6.472941650390625,-0.0013340665027499199,0.0009055947884917259,0.0019173640757799149
1761391738189007600,6.483007568359375,-0.0001377076841890812,0.0025284690782427788,-0.0033989418298006058
1761391738199073500,6.493073486328125,-0.0012389249168336391,0.0003417478874325752,0.0009420108981430531
1761391738209139700,6.5031396484375,0.000012397300451993942,0.0019357278943061829,0.00023979833349585533
1761391738219205600,6.51320556640625,-0.0020547485910356045,0.0009982958436012268,0.00165153993293643
1761391738229271600,6.523271484375,-0.000009164214134216309,-0.0023560356348752975,-0.0010484391823410988
1761391738239338800,6.5333388671875,-0.0009394064545631409,-0.0015075523406267166,-0.0011831950396299362
1761391738249404700,6.54340478515625,-0.002316857688128948,0.0007579391822218895,-0.0019534882158041
1761391738259470600,6.553470703125,0.0012123635970056057,-0.004127362743020058,-0.00035079801455140114
1761391738269536800,6.563536865234375,-0.000559655949473381,0.0028678569942712784,-0.0007072128355503082
1761391738279602400,6.5736025390625,-0.0018182662315666676,0.003834851086139679,0.00048481812700629234
1761391738289668600,6.583668701171875,-0.0006160642951726913,-0.0010665012523531914,-0.0007540103979408741
1761391738299734500,6.593734619140625,-0.0036131860688328743,0.008907570503652096,0.002366681583225727
1761391738309800700,6.60380078125,-0.0012235385365784168,-0.005642913281917572,0.0016955481842160225
1761391738319866600,6.61386669921875,-0.0009750658646225929,0.002189178019762039,-0.00015881145372986794
1761391738329932800,6.623932861328125,-0.0012532859109342098,-0.0010939044877886772,0.003974404186010361
1761391738339998700,6.633998779296875,0.00020852312445640564,-0.0016656853258609772,-0.0010746833868324757
1761391738350064600,6.644064697265625,-0.0013270750641822815,0.0021263035014271736,-0.0002450612373650074
1761391738360131800,6.6541318359375,-0.002303123939782381,-0.0031715231016278267,0.0024407366290688515
1761391738370197500,6.664197509765625,-0.0023286007344722748,-0.000791553407907486,0.0014107474125921726
1761391738380263700,6.674263671875,-0.0027075689285993576,-0.0022459058091044426,-0.0023309937678277493
1761391738390329600,6.68432958984375,-0.0014297161251306534,-0.0009652841836214066,0.004016063641756773
1761391738400395500,6.6943955078125,0.0010116039775311947,-0.0007650144398212433,0.0035950173623859882
1761391738410461700,6.704461669921875,-0.0015801363624632359,-0.0004500309005379677,0.00019848858937621117
1761391738420527600,6.714527587890625,-0.0005375086329877377,0.00021922122687101364,-0.0013956795446574688
1761391738430593800,6.72459375,-0.0005393247120082378,-0.0009506484493613243,0.0024443650618195534
1761391738440659500,6.734659423828125,-0.001277020201086998,0.0029101362451910973,0.0005162367597222328
1761391738450725600,6.7447255859375,-0.001648235134780407,-0.002126125618815422,-0.002794894389808178
1761391738460791600,6.75479150390625,0.0008756425231695175,-0.002613750286400318,-0.0010659703984856606
1761391738470857700,6.764857666015625,-0.0024845823645591736,0.0011210683733224869,-0.00035863183438777924
1761391738480923600,6.774923583984375,0.0012502348981797695,-0.0013428889214992523,-0.00036369170993566513
1761391738490990600,6.784990478515625,0.00031327782198786736,0.0013108132407069206,0.003006264101713896
1761391738501056800,6.795056884765625,-0.000916569959372282,0.002012290060520172,0.0008424459956586361
1761391738511122700,6.805122802734375,0.00013837218284606934,-0.0015434809029102325,-0.0015378543175756931
1761391738521188600,6.815188720703125,0.0004691369831562042,-0.0007815500721335411,-0.0014550299383699894
1761391738531254500,6.825254638671875,-0.0026251026429235935,0.0004191482439637184,0.0014507104642689228
1761391738541320400,6.835320556640625,-0.0018850094638764858,0.00006095319986343384,-0.00033786892890930176
1761391738551386600,6.84538671875,0.001106692012399435,0.00037417467683553696,-0.0003902772441506386
1761391738561452500,6.85545263671875,-0.0024057510308921337,-0.0005022715777158737,0.002889139112085104
1761391738571518700,6.865518798828125,0.00047965068370103836,0.002360476180911064,-0.00031854864209890366
1761391738581584600,6.875584716796875,0.000586443580687046,-0.0007940381765365601,0.0017121117562055588
1761391738591650800,6.88565087890625,-0.001593917142599821,0.0010821223258972168,-0.001313293818384409
1761391738601716700,6.895716796875,0.0009986702352762222,0.0010685399174690247,-0.00035828445106744766
1761391738611783000,6.905782958984375,0.0009295227937400341,0.0004258910194039345,-0.00024594925343990326
1761391738621849900,6.915849853515625,0.0027521902229636908,0.0016863653436303139,0.0026957783848047256
1761391738631915500,6.92591552734375,0.0005480656400322914,-0.0003403685986995697,-0.0009108078666031361
1761391738641981700,6.935981689453125,-0.0007512904703617096,0.0007605822756886482,0.0010436861775815487
1761391738652047600,6.946047607421875,0.0016465149819850922,0.0015475628897547722,0.0007938975468277931
1761391738662113800,6.95611376953125,-0.0010584578849375248,-0.0005986792966723442,0.00107565987855196
1761391738672179700,6.9661796875,-0.0004426240921020508,-0.0016256198287010193,-0.0006748591549694538
1761391738682245600,6.97624560546875,0.0003725695423781872,0.0009035840630531311,-0.0008658077567815781
1761391738692311800,6.986311767578125,0.0009935982525348663,-0.0013405010104179382,0.0002382560633122921
1761391738702377500,6.99637744140625,-0.0002956381067633629,0.000977780669927597,0.0021107238717377186
1761391738712443600,7.006443603515625,-0.0008749999105930328,0.001289157196879387,-0.0003751646727323532
1761391738722509600,7.016509521484375,0.0005332794971764088,0.002484118565917015,0.0014480352401733398
1761391738732575700,7.02657568359375,0.0016577956266701221,0.0007675494998693466,0.001320808194577694
1761391738742642700,7.036642578125,-0.0009148181416094303,-0.001371767371892929,0.0013106884434819221
1761391738752708600,7.04670849609375,-0.0012472011148929596,0.0010418174788355827,0.0007940679788589478
1761391738762774800,7.05677490234375,0.0018268856219947338,0.0007134499028325081,0.0002571744844317436
1761391738772840700,7.0668408203125,0.0004895082674920559,0.0012155314907431602,0.0012234202586114407
1761391738782907000,7.076906982421875,0.0002775206230580807,0.0023684147745370865,-0.0013803518377244473
1761391738792972500,7.08697265625,0.0009086541831493378,-0.00020585395395755768,-0.00023869331926107407
1761391738803038700,7.097038818359375,-0.00038883788511157036,0.0018322635442018509,-0.0007564118131995201
1761391738813104600,7.107104736328125,0.0021486347541213036,-0.00014086812734603882,-0.0017297407612204552
1761391738823170600,7.117170654296875,0.00014327466487884521,0.0011134808883070946,-0.0007446375675499439
1761391738833236700,7.12723681640625,0.0008109128102660179,-0.00025123171508312225,0.0006882725283503532
1761391738843302700,7.137302734375,0.00013633398339152336,0.00024864356964826584,0.0002467203885316849
1761391738853368800,7.147368896484375,-0.0010013640858232975,-0.0009863730520009995,0.00022010458633303642
1761391738863434500,7.1574345703125,0.0005938694812357426,-0.0019930480048060417,-0.0016188081353902817
1761391738873501700,7.167501708984375,0.0009379871189594269,-0.000054467469453811646,-0.0008196234703063965
1761391738883567600,7.177567626953125,-0.0015539326705038548,0.0011644614860415459,0.0005021034739911556
1761391738893633500,7.187633544921875,-0.00004261825233697891,0.0018810899928212166,0.0006398367695510387
1761391738903699700,7.19769970703125,0.0008889553137123585,0.004445447586476803,-0.0004030568525195122
1761391738913765600,7.207765625,-0.0006975065916776657,-0.0012524975463747978,0.0010021515190601349
1761391738923831800,7.217831787109375,0.002288962248712778,0.00036910083144903183,0.0006562061607837677
1761391738933897700,7.227897705078125,0.00147645128890872,0.00007253140211105347,0.0016353926621377468
1761391738943963600,7.237963623046875,-0.0006372998468577862,-0.00027208123356103897,-0.0010562646202743053
1761391738954029600,7.248029541015625,0.00028616562485694885,0.0010070735588669777,0.0009963507764041424
1761391738964095500,7.258095458984375,-0.0020009572617709637,-0.0005463482812047005,-0.000022042077034711838
1761391738974161700,7.26816162109375,0.0007217349484562874,-0.00043775979429483414,-0.00026306556537747383
1761391738984227600,7.2782275390625,0.002593937097117305,-0.0012441650032997131,0.001133230049163103
1761391738994293800,7.288293701171875,0.0012282226234674454,-0.0012150714173913002,-0.0019183098338544369
1761391739004360700,7.298360595703125,0.000771224033087492,0.0009466158226132393,0.0010039769113063812
1761391739014426600,7.308426513671875,0.0020753489807248116,0.0022168802097439766,0.0020428826101124287
1761391739024492800,7.318492919921875,0.0010782615281641483,0.002943658269941807,0.0006210212595760822
1761391739034558700,7.328558837890625,0.001059222500771284,0.0019102329388260841,-0.00099105853587389
1761391739044624600,7.338624755859375,0.000543634407222271,-0.004058177582919598,0.000004963483661413193
1761391739054690600,7.348690673828125,0.000690029002726078,-0.0018136641010642052,0.0027183140628039837
1761391739064756700,7.3587568359375,0.0006005470640957355,-0.0011308295652270317,-0.003911358769983053
1761391739074822700,7.36882275390625,-0.0004935977049171925,-0.00018801726400852203,0.0024754912592470646
1761391739084888600,7.378888671875,0.0024635763838887215,-0.00043968576937913895,0.0007004947401583195
1761391739094954800,7.388954833984375,0.0011528297327458858,-0.0016762232407927513,-0.002038119826465845
1761391739105020700,7.399020751953125,-0.001849085558205843,0.0014220979064702988,-0.0015928391367197037
1761391739115086600,7.409086669921875,0.001239595003426075,0.001376219093799591,-0.002328454051166773
1761391739125153800,7.41915380859375,-0.001191338524222374,-0.00037960242480039597,0.00038291001692414284
1761391739135219500,7.429219482421875,-0.0018013063818216324,0.0015506921336054802,0.0018966910429298878
1761391739145285600,7.43928564453125,0.0016911630518734455,0.002690790221095085,-0.0032442756928503513
1761391739155351600,7.4493515625,0.0008408613502979279,0.0004673777148127556,0.001119089312851429
1761391739165417700,7.459417724609375,-0.00016554724425077438,-0.001842382363975048,0.001961980015039444
1761391739175483600,7.469483642578125,0.000324128195643425,-0.0009430032223463058,-0.0008439510129392147
1761391739185549800,7.4795498046875,-0.002640769351273775,0.00174013152718544,-0.001098549459129572
1761391739195615700,7.48961572265625,-0.002552448306232691,-0.001597176305949688,0.0008993609808385372
1761391739205681700,7.499681640625,-0.0002022082917392254,0.0007498683407902718,0.0012823236174881458
1761391739215747600,7.50974755859375,-0.002073293086141348,-0.0009696399793028831,0.0011834637261927128
1761391739225813500,7.5198134765625,0.0010346155613660812,-0.0007451353594660759,-0.001446140930056572
1761391739235879700,7.529879638671875,-0.001404097769409418,0.00041469186544418335,-0.0005714879371225834
1761391739245945600,7.539945556640625,0.0005405424162745476,0.001416039653122425,-0.00044259103015065193
1761391739256012800,7.5500126953125,-0.0006128107197582722,0.0011824928224086761,0.0008491463959217072
1761391739266078700,7.56007861328125,-0.0010466394014656544,-0.0006803879514336586,-0.0017218696884810925
1761391739276144600,7.57014453125,-0.002197781577706337,-0.0009708134457468987,-0.0030788546428084373
1761391739286210800,7.5802109375,0.0009234431199729443,0.0026470907032489777,-0.0019382229074835777
1761391739296276500,7.5902763671875,0.00048009399324655533,0.0014036362990736961,-0.0016058916226029396
1761391739306342700,7.6003427734375,-0.0009135380387306213,0.00019722431898117065,0.0018258574418723583
1761391739316408600,7.61040869140625,0.0005773566663265228,0.000944899395108223,0.0006776368245482445
1761391739326474800,7.620474853515625,0.00021649803966283798,-0.00011397339403629303,0.0020981673151254654
1761391739336540700,7.630540771484375,-0.0006174161098897457,-0.0009855180978775024,0.0002483949065208435
1761391739346606800,7.64060693359375,-0.0018504601903259754,-0.0007596816867589951,-0.000328178983181715
1761391739356672800,7.6506728515625,-0.0004000081680715084,0.001306413672864437,0.00042311055585741997
1761391739366738400,7.660738525390625,-0.00014407839626073837,0.001359676942229271,0.0013413685373961926
1761391739376804600,7.6708046875,-0.0005772095173597336,-0.0008187089115381241,-0.0005343565717339516
1761391739386871600,7.68087158203125,-0.00041901739314198494,0.0018527079373598099,0.0016789967194199562
1761391739396937700,7.690937744140625,-0.0015582065097987652,0.0005065044388175011,-0.0013045622035861015
1761391739407003600,7.701003662109375,0.0014080223627388477,0.0006902627646923065,-0.0006411685608327389
1761391739417069600,7.711069580078125,0.000029048416763544083,0.00098520889878273,-0.0006809527985751629
1761391739427135700,7.7211357421875,-0.0013760351575911045,0.000007563270628452301,-0.00031396932899951935
1761391739437201700,7.73120166015625,-0.0002908254973590374,-0.0013066520914435387,-0.0031861085444688797
1761391739447267800,7.741267822265625,-0.0005949581973254681,-0.0033461004495620728,0.0001436411403119564
1761391739457333500,7.75133349609375,0.0008348505944013596,-0.001691984012722969,0.0002874331548810005
1761391739467399700,7.761399658203125,-0.0008748988620936871,0.004731294699013233,0.00007224967703223228
1761391739477465600,7.771465576171875,0.0006780331023037434,-0.0023185620084404945,-0.00028038397431373596
1761391739487531800,7.78153173828125,0.00278539233841002,0.00048521440476179123,0.003501837607473135
1761391739497597700,7.79159765625,-0.002673347480595112,0.0005787033587694168,0.0033569526858627796
1761391739507664600,7.80166455078125,0.000029760878533124924,-0.0012524863705039024,-0.00020928680896759033
1761391739517730800,7.811730712890625,-0.00030548684298992157,-0.0008830921724438667,-0.00014721136540174484
1761391739527796700,7.821796630859375,-0.0014423904940485954,-0.002696172334253788,-0.0011331136338412762
1761391739537862700,7.831862548828125,-0.00006563914939761162,-0.00047410372644662857,0.0008898079395294189
1761391739547928800,7.8419287109375,0.00044435635209083557,-0.0017721280455589294,-0.00015015620738267899
1761391739557994800,7.851994873046875,-0.0018332023173570633,-0.00039433594793081284,0.0037298984825611115
1761391739568060700,7.862060791015625,0.0005268910899758339,0.0014605559408664703,0.002204173244535923
1761391739578126600,7.872126708984375,-0.00047481758520007133,0.0014028390869498253,0.0024303733371198177
1761391739588192800,7.88219287109375,-0.002699888776987791,0.0008483696728944778,0.00031875306740403175
1761391739598258700,7.8922587890625,-0.0014424705877900124,-0.0002570813521742821,0.0011114520020782948
1761391739608324900,7.902324951171875,0.0012675621546804905,-0.0005609486252069473,0.000541535671800375
1761391739618390800,7.912390869140625,-0.0012858090922236443,0.0017272401601076126,-0.001721732784062624
1761391739628456700,7.922456787109375,-0.001601926051080227,0.002293960191309452,0.002588060684502125
1761391739638524000,7.93252392578125,-0.0003867088817059994,-0.0008702129125595093,-0.00005058338865637779
1761391739648589800,7.94258984375,0.00011023692786693573,0.003777269273996353,-0.000059371814131736755
1761391739658655700,7.95265576171875,0.0003452557139098644,0.000011672265827655792,0.0018803649581968784
1761391739668721700,7.9627216796875,-0.0023509282618761063,0.0011831969022750854,-0.00038145761936903
1761391739678787600,7.97278759765625,0.00025085918605327606,-0.0013826880604028702,-0.0007355832494795322
1761391739688853800,7.982853759765625,-0.0004657977260649204,0.0013720858842134476,0.0008111810311675072
1761391739698919700,7.992919677734375,-0.00019882339984178543,-0.0006665457040071487,0.00034317560493946075
1761391739708985900,8.00298583984375,0.0024550165981054306,0.0007481249049305916,-0.0019924165681004524
1761391739719051800,8.0130517578125,-0.0013560610823333263,0.0010820087045431137,-0.00019674981012940407
1761391739729118000,8.023117919921875,0.00032386090606451035,0.0013845441862940788,0.000015237834304571152
1761391739739183600,8.03318359375,0.00033446867018938065,0.0017037009820342064,0.0002572983503341675
1761391739749249800,8.043249755859375,-0.000553961843252182,0.0035982737317681313,0.0007587717846035957
1761391739759316700,8.053316650390625,-0.0012009190395474434,-0.0004100510850548744,0.000032461248338222504
1761391739769382700,8.063382568359375,0.00010083429515361786,0.0012490982189774513,-0.001701256725937128
1761391739779448800,8.07344873046875,-0.0016854237765073776,-0.0016656843945384026,-0.0033067427575588226
1761391739789514800,8.0835146484375,0.000322866253554821,0.0020616762340068817,-0.001073948573321104
1761391739799581000,8.093580810546875,-0.002765749581158161,0.0010478775948286057,-0.0035305768251419067
1761391739809646800,8.103646728515624,-0.0005172430537641048,0.0009919516742229462,-0.0012919236905872822
1761391739819712500,8.11371240234375,0.0013553877361118793,0.00019565317779779434,0.00033853622153401375
1761391739829778700,8.12377880859375,-0.0000523589551448822,-0.0023175720125436783,-0.0005858470685780048
1761391739839844600,8.1338447265625,-0.0014220904558897018,-0.0005398038774728775,-0.0010430533438920975
1761391739849910800,8.143910888671876,-0.0013163629919290543,-0.001186951994895935,0.0013207686133682728
1761391739859976700,8.153976806640625,-0.00032815150916576385,-0.0038054538890719414,0.0012358506210148335
1761391739870043000,8.16404296875,-0.0025423038750886917,-0.0016163354739546776,-0.002453426830470562
1761391739880108800,8.17410888671875,0.0007711751386523247,-0.01184368971735239,-0.00023842090740799904
1761391739890175700,8.18417578125,0.0009275022894144058,0.00008434243500232697,0.0026644249446690083
1761391739900242000,8.194241943359375,-0.0025881659239530563,-0.006589498836547136,-0.002884445246309042
1761391739910307600,8.2043076171875,-0.002244352363049984,0.0009299367666244507,-0.00012993765994906425
1761391739920373800,8.214373779296874,0.00040679890662431717,0.0002317223697900772,0.0042574149556458
1761391739930439700,8.224439697265625,0.00036605261266231537,-0.002078569494187832,-0.0020787781104445457
1761391739940505900,8.234505859375,-0.002508072182536125,-0.002293194644153118,0.003988833632320166
1761391739950571800,8.24457177734375,-0.003104886971414089,0.0006964700296521187,-0.0014653201214969158
1761391739960637700,8.2546376953125,-0.00029619457200169563,-0.005982085131108761,0.0016061789356172085
1761391739970704000,8.264703857421875,-0.0030618878081440926,-0.0009915875270962715,-0.0016796295531094074
1761391739980769800,8.274769775390626,-0.0017362800426781178,-0.0048522260040044785,0.0008981069549918175
1761391739990835700,8.284835693359375,-0.000372475478798151,-0.0037438180297613144,-0.000018553342670202255
1761391740000901600,8.294901611328125,0.00016152625903487206,-0.00349541287869215,0.0013655591756105423
1761391740010968600,8.304968505859375,-0.0031764800660312176,-0.0003459593281149864,0.00008404627442359924
1761391740021034800,8.31503466796875,0.002354254014790058,-0.0015365490689873695,-0.0017446456477046013
1761391740031100700,8.3251005859375,0.0003193323500454426,-0.0011381395161151886,0.0004279608838260174
1761391740041166800,8.335166748046875,-0.002204540651291609,-0.00026152096688747406,-0.000617023091763258
1761391740051232800,8.345232666015624,-0.0011730985715985298,0.001026117242872715,0.0019321553409099579
1761391740061299000,8.355298828125,0.0007754182443022728,0.00557883083820343,0.000670707318931818
1761391740071364600,8.365364501953126,0.0005695559084415436,0.0014599859714508057,0.0008760369382798672
1761391740081430800,8.3754306640625,0.005516814533621073,0.0005672136321663857,-0.0003319703973829746
1761391740091496700,8.38549658203125,0.003313847817480564,0.0014428608119487762,0.0018957634456455708
1761391740101562600,8.395562744140625,0.0006016329862177372,0.003984916023910046,-0.0012273835018277168
1761391740111628800,8.40562890625,-0.00011688796803355217,0.002340412698686123,0.00013961689546704292
1761391740121694700,8.41569482421875,0.0026549033354967833,0.0012143198400735855,-0.000964336097240448
1761391740131761700,8.42576171875,0.0029712868854403496,-0.0020461883395910263,0.0019483626820147038
1761391740141827800,8.435827880859375,-0.00005032820627093315,-0.002298949286341667,-0.0010166103020310402
1761391740151893800,8.445893798828125,0.0010612751357257366,-0.0006118360906839371,0.0000047120265662670135
1761391740161959700,8.455959716796874,0.0004933569580316544,-0.00006581936031579971,0.0001497059129178524
1761391740172025600,8.466025634765625,-0.001861410215497017,-0.003581991419196129,0.0020022005774080753
1761391740182091800,8.476091796875,-0.005362651310861111,-0.004564151167869568,0.0060843657702207565
1761391740192157700,8.48615771484375,-0.006136300042271614,-0.0060275583527982235,0.003927204757928848
1761391740202223900,8.496223876953126,-0.0031609409488737583,-0.008684488013386726,0.002476060763001442
1761391740212289800,8.506289794921875,-0.004398245830088854,-0.009443756192922592,0.003934940323233604
1761391740222356000,8.51635595703125,-0.004180527292191982,-0.009721802547574043,0.0015704156830906868
1761391740232421600,8.526421630859375,-0.004251101054251194,-0.006452771835029125,0.003100401721894741
1761391740242487600,8.536487548828125,-0.003936998546123505,-0.006145576015114784,0.0009606676176190376
1761391740252553700,8.5465537109375,-0.0028720004484057426,-0.00359506718814373,0.0012120706960558891
1761391740262620700,8.55662060546875,-0.0032361727207899094,-0.0016915872693061829,0.0001298924908041954
1761391740272686600,8.5666865234375,-0.003609281964600086,-0.0017453823238611221,0.0006641224026679993
1761391740282752800,8.576752685546875,-0.0029035676270723343,-0.00319636519998312,0.0008699307218194008
1761391740292818700,8.586818603515624,-0.001842563971877098,-0.0016179094091057777,0.002464897930622101
1761391740302884900,8.596884765625,-0.002089640125632286,-0.004557060077786446,-0.0005569877102971077
1761391740312950800,8.60695068359375,0.0010140081867575645,-0.00551313441246748,0.0000986824743449688
1761391740323016700,8.6170166015625,-0.0007683923467993736,-0.0047976309433579445,-0.0017359540797770023
1761391740333082600,8.62708251953125,-0.001974804326891899,-0.002821032889187336,-0.003953568171709776
1761391740343148800,8.637148681640625,-0.00014309165999293327,-0.0012327497825026512,0.0017593679949641228
1761391740353214700,8.647214599609375,0.0016327043995261192,-0.00035151001065969467,-0.0013259043917059898
1761391740363281000,8.657281005859375,0.000791402067989111,0.0006277086213231087,-0.0012401435524225235
1761391740373346800,8.667346923828125,0.0032082204706966877,-0.00009427499026060104,-0.004654049873352051
1761391740383412700,8.677412841796874,0.0025880613829940557,0.006650992669165134,-0.0021305596455931664
1761391740393480000,8.68747998046875,0.003843209007754922,0.005855773575603962,-0.0026536048389971256
1761391740403545900,8.6975458984375,0.00490585807710886,0.00866740569472313,-0.002691839821636677
1761391740413611800,8.70761181640625,0.005212920717895031,0.009284725412726402,-0.008201121352612972
1761391740423677700,8.717677734375,0.0034564840607345104,0.009109499864280224,-0.007676988840103149
1761391740433743600,8.72774365234375,0.0058456058613955975,0.008823211304843426,-0.007000279612839222
1761391740443809800,8.737809814453126,0.004831474274396896,0.007096682675182819,-0.00536323431879282
1761391740453875700,8.747875732421875,0.0036602159962058067,0.007797361351549625,-0.0002763303928077221
1761391740463942000,8.75794189453125,0.005609825253486633,0.0047469595447182655,-0.004965147003531456
1761391740474007800,8.7680078125,0.0030968664214015007,0.004491296596825123,-0.0026183691807091236
1761391740484073700,8.77807373046875,0.0018982398323714733,0.003803073428571224,-0.0005444735288619995
1761391740494139600,8.7881396484375,0.0007506837137043476,0.0026331478729844093,0.00024621933698654175
1761391740504205800,8.798205810546875,0.001419760286808014,0.002365248277783394,4.6333298087120056e-7
1761391740514272800,8.808272705078124,-0.00024871015921235085,0.003347955644130707,-0.0013116761110723019
1761391740524338700,8.818338623046875,-0.00014445139095187187,0.0013155490159988403,0.000686323270201683
1761391740534404900,8.82840478515625,-0.0004025120288133621,-0.0010416153818368912,-0.00039385491982102394
1761391740544470000,8.838469970703125,-0.0009010462090373039,0.00041622668504714966,-0.0010363999754190445
1761391740554536200,8.8485361328125,-0.0019442066550254822,-0.0011643599718809128,0.0023902887478470802
1761391740564602000,8.85860205078125,0.0002963673323392868,-0.00222680252045393,0.002307923510670662
1761391740574668000,8.86866796875,-0.0015412135981023312,-0.0012646019458770752,0.0013252170756459236
1761391740584734000,8.87873388671875,0.00006665615364909172,-0.001553993672132492,0.0019928906112909317
1761391740594799900,8.8887998046875,-0.0022191349416971207,-0.0036877188831567764,0.0006221616640686989
1761391740604866000,8.898865966796874,-0.0035933167673647404,0.00006256997585296631,0.001696823164820671
1761391740614932000,8.908931884765625,-0.0009290901944041252,-0.0003062775358557701,-0.0002467515878379345
1761391740624998100,8.918998046875,0.0009830216877162457,0.000015594065189361572,0.00080861896276474
1761391740635065000,8.929065185546875,0.0018834364600479603,0.001965826377272606,0.00022671837359666824
1761391740645131000,8.939131103515624,0.0006244499236345291,0.001942588947713375,-0.0029186815954744816
1761391740655197200,8.949197265625,0.0016753333620727062,0.0030541932210326195,-0.0037301466800272465
1761391740665262800,8.959262939453126,0.0012591099366545677,0.0029464131221175194,-0.001672892365604639
1761391740675329000,8.9693291015625,-0.000022402964532375336,0.0038819825276732445,-0.0028500091284513474
1761391740685395000,8.97939501953125,0.0007579219527542591,0.003724641166627407,0.000848209485411644
1761391740695461000,8.989461181640625,0.0008130492642521858,0.003940091468393803,-0.0043715862557291985
1761391740705527000,8.999527099609375,-0.00026399921625852585,0.0010320022702217102,-0.0012884489260613918
1761391740715593200,9.00959326171875,0.0010172477923333645,0.00006074737757444382,-0.0008005579002201557
1761391740725659100,9.0196591796875,0.00042390497401356697,0.00030711572617292404,-0.0009703901596367359
1761391740735725000,9.02972509765625,0.00005718786269426346,-0.002346457913517952,-0.0015616118907928467
1761391740745791000,9.039791015625,-0.0009514521807432175,-0.0007491344586014748,0.00052644032984972
1761391740755858000,9.04985791015625,0.0007308670319616795,0.0004924312233924866,-0.0023641549050807953
1761391740765924000,9.059924072265625,-0.0008004885166883469,0.0011591818183660507,-0.0011926689185202122
1761391740775990000,9.069989990234374,-0.0011882446706295013,0.002219120040535927,0.00006727222353219986
1761391740786056000,9.080055908203125,-0.0009324806742370129,-0.0003137728199362755,0.000211215578019619
1761391740796122000,9.0901220703125,-0.0025226539000868797,-0.00047249719500541687,0.002123897895216942
1761391740806188000,9.10018798828125,-0.0023237066343426704,0.0001307353377342224,0.0019050613045692444
1761391740816254200,9.110254150390626,-0.0018094507977366447,0.0003781430423259735,0.0032459627836942673
1761391740826320000,9.12031982421875,0.00019714096561074257,-0.0004493407905101776,0.000752580352127552
1761391740836386000,9.130385986328125,-0.000693153589963913,-0.0010309750214219093,0.002293218858540058
1761391740846452000,9.140451904296874,-0.002274143509566784,-0.00043217744678258896,0.0014773216098546982
1761391740856518100,9.15051806640625,-0.001133777666836977,-0.0007466971874237061,0.00293140672147274
1761391740866584000,9.160583984375,0.0009306324645876884,-0.0012369491159915924,0.0019852835685014725
1761391740876650000,9.17064990234375,0.0016432944685220718,0.002383618615567684,0.0036228615790605545
1761391740886717200,9.18071728515625,-0.00032486626878380775,-0.00031919125467538834,-0.0014250492677092552
1761391740896783000,9.190783203125,-0.0009802700951695442,-0.0004813782870769501,0.0009401040151715279
1761391740906849000,9.20084912109375,-0.0015255198813974857,-0.001216186210513115,-0.00009972555562853813
1761391740916915000,9.2109150390625,0.0009959610179066658,-0.0031389882788062096,0.0008699316531419754
1761391740926980900,9.22098095703125,0.00017824256792664528,-0.0013108476996421814,0.0033553633838891983
1761391740937047000,9.231047119140625,-0.001565595157444477,-0.003558821976184845,0.002218194305896759
1761391740947113000,9.241113037109375,-0.000029989052563905716,-0.00029184482991695404,-0.0012362287379801273
1761391740957179100,9.25117919921875,-0.00010295957326889038,0.0021785032004117966,-0.0009371559135615826
1761391740967245000,9.2612451171875,0.000007953029125928879,-0.0027876244857907295,0.003173619508743286
1761391740977311200,9.271311279296874,-0.0003643571399152279,-0.001056569628417492,0.002299569547176361
1761391740987377000,9.281376953125,-0.00013593537732958794,-0.000840325839817524,0.002069404348731041
1761391740997443000,9.291443115234374,0.0007628812454640865,-0.00235113687813282,0.0034843413159251213
1761391741007510000,9.301510009765625,0.00029575126245617867,-0.002185257151722908,0.0010796738788485527
1761391741017576000,9.311575927734374,-0.0007197116501629353,-0.004639360122382641,0.001730283722281456
1761391741027642000,9.32164208984375,-0.0006874422542750835,-0.004563074558973312,0.004701667465269566
1761391741037708000,9.3317080078125,-0.0007902402430772781,-0.0036626597866415977,0.004367973655462265
1761391741047774000,9.34177392578125,0.0008593006059527397,-0.005406043492257595,0.0020691705867648125
1761391741057840000,9.351840087890626,-0.002261923626065254,-0.002895747311413288,0.002443610690534115
1761391741067906000,9.361906005859375,-0.0035643610171973705,-0.005286818370223045,0.002698211930692196
1761391741077972000,9.371971923828125,-0.004530555102974176,-0.0025831768289208412,0.0030297748744487762
1761391741088038000,9.382037841796874,-0.0027429829351603985,-0.0006709825247526169,0.0013920972123742104
1761391741098104000,9.39210400390625,-0.003859646152704954,-0.003289668820798397,0.003333807922899723
1761391741108170000,9.402169921875,-0.00294220307841897,-0.002477537840604782,0.0043283486738801
1761391741118236200,9.412236083984375,-0.004775522742420435,-0.0010034777224063873,0.001547742635011673
1761391741128303000,9.42230322265625,-0.006891053169965744,-0.00291429553180933,-0.0016203541308641434
1761391741138369000,9.432369140625,-0.00593444611877203,-0.004499409347772598,0.0012910133227705956
1761391741148435200,9.442435302734374,-0.003769839648157358,-0.00376982893794775,-0.0012295311316847801
1761391741158501000,9.452501220703125,-0.004057194571942091,-0.002192704938352108,-0.0012777340598404408
1761391741168567000,9.462567138671876,-0.008145783096551895,-0.0028910059481859207,0.003608059138059616
1761391741178633000,9.472633056640625,-0.0032080160453915596,-0.0017088288441300392,-0.001463398803025484
1761391741188699000,9.482698974609375,-0.003577358555048704,-0.0008890023455023766,-0.0035707191564142704
1761391741198765000,9.49276513671875,-0.003346728626638651,0.0011688219383358955,-0.0022734934464097023
1761391741208831000,9.5028310546875,-0.005515331402420998,0.000024752691388130188,-0.0009096125140786171
1761391741218897200,9.512897216796874,-0.004365378059446812,0.0008529964834451675,0.00036444421857595444
1761391741228963000,9.522963134765625,0.0007732468657195568,0.00028616469353437424,-0.0027374126948416233
1761391741239029000,9.533029052734374,-0.0020030983723700047,0.0008614081889390945,-0.0012913164682686329
1761391741249096200,9.54309619140625,-0.001524418592453003,0.003948080353438854,-0.002063690684735775
1761391741259161900,9.553161865234374,0.00011449074372649193,0.0019344640895724297,-0.0024823397397994995
1761391741269228000,9.56322802734375,0.0018322672694921494,0.00333485659211874,-0.0018450049683451653
1761391741279294000,9.5732939453125,0.002872498007491231,0.004789476282894611,0.0007640933617949486
1761391741289360100,9.583360107421875,0.000618617981672287,0.001320047304034233,0.0016167210415005684
1761391741299426000,9.593426025390626,0.0035441003274172544,0.0027368497103452682,0.0024654697626829147
1761391741309492200,9.6034921875,0.0023465489502996206,0.002275019884109497,-0.0004286854527890682
1761391741319558100,9.61355810546875,0.0008429279550909996,0.004872133955359459,0.002391868270933628
1761391741329624000,9.6236240234375,0.002297151368111372,0.00017526373267173767,0.00017176195979118347
1761391741339690000,9.63368994140625,0.0018734424374997616,0.004824343137443066,0.000368569977581501
1761391741349756000,9.643755859375,0.001477962825447321,0.004223533906042576,-0.0002860352396965027
1761391741359822000,9.653822021484375,0.0016414811834692955,0.0017931340262293816,0.0012439507991075516
1761391741369889000,9.663888916015624,0.0017646662890911102,0.0018966374918818474,-0.0006303996779024601
1761391741379955000,9.673954833984375,0.001840832643210888,0.000956009142100811,0.0007310081273317337
1761391741390021000,9.684021240234374,-0.0003151590935885906,0.0020143669098615646,0.0003161327913403511
1761391741400087000,9.694087158203125,-0.0015679099597036839,0.001070542261004448,0.0014796685427427292
1761391741410153200,9.7041533203125,-0.0002768654376268387,0.0013188617303967476,0.0016536442562937737
1761391741420219000,9.714218994140625,-0.002393546048551798,0.0014520194381475449,0.004917881451547146
1761391741430285000,9.72428515625,-0.0012720795348286629,-0.0009767580777406693,0.0007887249812483788
1761391741440351000,9.73435107421875,0.0007567168213427067,-0.0012617167085409164,-0.0011117062531411648
1761391741450417200,9.744417236328125,-0.0016358145512640476,-0.00639158533886075,0.0014002034440636635
1761391741460483000,9.754483154296874,-0.0012877392582595348,-0.0015156036242842674,0.0006004562601447105
1761391741470549000,9.764549072265625,-0.004484397824853659,-0.0037826737388968468,0.0022087376564741135
1761391741480615200,9.774615234375,0.00034338096156716347,-0.002911021001636982,0.0037706810981035233
1761391741490680800,9.784680908203125,-0.002188501413911581,-0.005709005519747734,0.002658301033079624
1761391741500748000,9.794748046875,-0.004537143278867006,-0.004831493832170963,0.0030487198382616043
1761391741510814000,9.80481396484375,-0.003666308242827654,-0.009028688073158264,0.002675192430615425
1761391741520879900,9.8148798828125,-0.004239687230437994,-0.009463315829634666,0.004048584960401058
1761391741530946000,9.824946044921875,-0.006015482824295759,-0.012471622787415981,0.008984220214188099
1761391741541012000,9.835011962890626,-0.007889017462730408,-0.015163812786340714,0.00887370016425848
1761391741551079000,9.845078857421875,-0.009170429781079292,-0.014328604564070702,0.006370460614562035
1761391741561144800,9.855144775390626,-0.008942995220422745,-0.020195014774799347,0.008888213895261288
1761391741571210800,9.865210693359375,-0.011227216571569443,-0.017573479562997818,0.007442419417202473
1761391741581277000,9.87527685546875,-0.009610412642359734,-0.020259011536836624,0.006781422533094883
1761391741591342800,9.8853427734375,-0.009719792753458023,-0.016299478709697723,0.006267777644097805
1761391741601409000,9.895408935546875,-0.009371984750032425,-0.01498414296656847,0.007567666471004486
1761391741611475000,9.905474853515624,-0.008375376462936401,-0.011733047664165497,0.006151946261525154
1761391741621542000,9.9155419921875,-0.009920010343194008,-0.008028857409954071,0.007100830785930157
1761391741631607800,9.92560791015625,-0.009937252849340439,-0.011984530836343765,0.003461623564362526
1761391741641675000,9.935675048828125,-0.00855933502316475,-0.011458289809525013,0.003052828833460808
1761391741651740700,9.94574072265625,-0.0054015773348510265,-0.005918786395341158,0.006878575310111046
1761391741661806800,9.955806884765625,-0.00394482770934701,-0.004276947118341923,0.002325369045138359
1761391741671872800,9.965872802734374,-0.0019397372379899025,0.0030765915289521217,-0.0003667296841740608
1761391741681939000,9.97593896484375,-0.002321101725101471,0.00021262746304273605,0.004601397551596165
1761391741692004900,9.9860048828125,-0.0008742781355977058,0.004814876243472099,-0.002329383511096239
1761391741702071000,9.996071044921875,0.0016408110968768597,0.0014646202325820923,-0.005031426437199116
1761391741712137000,10.006136962890626,0.0007216255180537701,0.006365514360368252,-0.0035361568443477154
1761391741722203000,10.016202880859375,0.0010798205621540546,0.005227013491094112,-0.008065128698945045
1761391741732268800,10.026268798828125,0.003885365556925535,0.0059308847412467,-0.005352396052330732
1761391741742334700,10.036334716796874,0.0077711837366223335,0.006795880384743214,-0.005505527835339308
1761391741752401000,10.04640087890625,0.005559404380619526,0.007411777041852474,-0.006620647851377726
1761391741762467800,10.0564677734375,0.0033031743951141834,0.006750249303877354,-0.006454200018197298
1761391741772534000,10.066533935546875,0.002826644806191325,0.005433034151792526,-0.0023055830970406532
1761391741782600000,10.076599853515624,0.004451173357665539,0.006795240566134453,-0.004522664472460747
1761391741792665900,10.086665771484375,0.0026693239342421293,0.004915278404951096,-0.0038937244098633528
1761391741802732000,10.09673193359375,0.006860606838017702,0.002223886549472809,-0.0038724190089851618
1761391741812797700,10.106797607421875,0.0015937108546495438,-0.00019176211208105087,-0.003280624747276306
1761391741822864000,10.11686376953125,-0.0005402802489697933,0.0006284918636083603,-0.002798326313495636
1761391741832929800,10.1269296875,0.0021241214126348495,0.0025326358154416084,-0.006668220739811659
1761391741842996000,10.136995849609375,0.002199755050241947,-0.001832284964621067,-0.0006561344489455223
1761391741853062000,10.147061767578125,-0.00018657464534044266,-0.00042282044887542725,0.0019605159759521484
1761391741863128000,10.157128173828125,-0.002275025937706232,-0.0005679633468389511,-0.00033752573654055595
1761391741873194000,10.167194091796874,-0.002348989713937044,-0.0012614857405424118,0.0002871546894311905
1761391741883261000,10.177260986328125,-0.0012243366800248623,-0.00540350005030632,0.001943107694387436
1761391741893327000,10.1873271484375,-0.005374784115701914,-0.0047880299389362335,-0.0015397188253700733
1761391741903392800,10.197392822265625,-0.0005350210703909397,-0.007860252633690834,0.0011524707078933716
1761391741913459000,10.207458984375,-0.003191400784999132,-0.0064180768094956875,-0.002227150835096836
1761391741923524900,10.21752490234375,-0.003559716511517763,-0.003973827697336674,0.003669886849820614
1761391741933590800,10.2275908203125,-0.0019016596488654613,-0.0028335396200418472,0.000009941402822732925
1761391741943657000,10.237656982421875,-0.004374671261757612,0.0004863571375608444,0.0019047809764742851
1761391741953723000,10.247722900390626,-0.00035215169191360474,-0.000011664815247058868,0.00040699634701013565
1761391741963789000,10.2577890625,0.0026513615157455206,0.00419799517840147,0.00009087938815355301
1761391741973854700,10.267854736328125,0.00011169910430908203,0.0006307261064648628,-0.0037980368360877037
1761391741983921000,10.2779208984375,-0.0005753962323069572,-0.0007922016084194183,-0.002444884739816189
1761391741993986800,10.28798681640625,0.0017204675823450089,0.0002164756879210472,-0.004765679594129324
1761391742004053800,10.2980537109375,-0.00045853108167648315,0.003992837853729725,0.0012583909556269646
1761391742014120000,10.308119873046875,-0.000535154715180397,0.006964867003262043,-0.00040680309757590294
1761391742024185900,10.318185791015624,0.003203124273568392,0.003099820576608181,0.0014891009777784348
1761391742034252000,10.328251953125,0.007134902756661177,0.0026283953338861465,-0.0005613863468170166
1761391742044318000,10.33831787109375,0.0031721191480755806,0.005772789940237999,0.0014852527529001236
1761391742054383900,10.3483837890625,0.0020382441580295563,0.0019852817058563232,0.0024292096495628357
1761391742064449800,10.35844970703125,0.003838541219010949,0.0032532131299376488,0.00037298258394002914
1761391742074515700,10.368515625,0.0020861472003161907,-0.0015613734722137451,0.0013606194406747818
1761391742084582000,10.378581787109376,0.0017825467512011528,0.002293020486831665,-0.0019528851844370365
1761391742094647800,10.388647705078125,0.004505125340074301,-0.0012007029727101326,0.00071769580245018
1761391742104714000,10.3987138671875,0.003273413283750415,-0.00023157894611358643,-0.00022959010675549507
1761391742114780000,10.40877978515625,0.0018824348226189613,0.0025093192234635353,0.0007003080099821091
1761391742124846800,10.418846923828125,0.0028805877082049847,0.00017186347395181656,-0.0017338208854198456
1761391742134913000,10.4289130859375,0.0005975882522761822,-0.0006173765286803246,0.0010396912693977356
1761391742144978700,10.438978759765625,-0.00036407914012670517,-0.0043908096849918365,0.0032288096845149994
1761391742155044900,10.449044921875,-0.00009499955922365189,-0.002219492569565773,0.000619041733443737
1761391742165110800,10.45911083984375,0.00042458297684788704,-0.002736944705247879,0.005516328848898411
1761391742175177000,10.469177001953126,-0.0019345455802977085,-0.0014466848224401474,0.001420256681740284
1761391742185243000,10.479242919921875,-0.0010754093527793884,0.0002904944121837616,0.001463932916522026
1761391742195308800,10.489308837890626,-0.0011569405905902386,-0.002106454223394394,0.0009909141808748245
1761391742205375000,10.499375,0.0014447011053562164,-0.005500653758645058,-0.002548160497099161
1761391742215441000,10.50944091796875,-0.000627394299954176,0.0006353380158543587,0.0005136178806424141
1761391742225506800,10.5195068359375,-0.001202104613184929,0.0007288148626685143,0.0025823619216680527
1761391742235572700,10.52957275390625,0.00015001092106103897,0.00032755453139543533,0.0011815018951892853
1761391742245639700,10.5396396484375,0.0008192635141313076,0.0007952060550451279,-0.0027003218419849873
1761391742255705900,10.549705810546875,0.00032259291037917137,-0.0018657976761460304,-0.0013944976963102818
1761391742265771800,10.559771728515624,-0.0006409389898180962,-0.0001813480630517006,0.00029474496841430664
1761391742275838000,10.569837890625,-0.0036005182191729546,0.12834465503692627,0.2840858995914459
1761391742285904000,10.57990380859375,-0.021208807826042175,0.10997015982866287,-0.2611609101295471
1761391742295970000,10.589969970703125,0.009693309664726257,-0.3203344941139221,0.12354479730129242
1761391742306036000,10.600035888671876,-0.007329882122576237,0.2052435427904129,-0.13097457587718964
1761391742316102000,10.610101806640625,0.00399676151573658,-0.08990701287984848,0.07310707122087479
1761391742326167800,10.620167724609376,0.0028912837151437998,-0.06871330738067627,-0.07042532414197922
1761391742336233700,10.630233642578125,0.0015357346273958683,0.04111412167549133,0.02649775706231594
