time,seconds_elapsed,z,y,x
1761341808370908700,0.08190869140625,-0.07347615509927273,0.0003976392817683518,0.0036289493531920015
1761341808380974800,0.091974853515625,-0.0671896221756935,0.00017546616476029155,-0.00606967073592823
1761341808391041800,0.102041748046875,-0.07167524315714836,0.0049377669294364745,-0.0005715710765682161
1761341808401107700,0.112107666015625,-0.0679307959318161,0.0019501111544668673,0.0041861722439993174
1761341808411173600,0.122173583984375,-0.0703267511576414,-0.0024764183172024785,0.0064319601431023325
1761341808421239600,0.132239501953125,-0.06359130542278289,-0.0031243425656110047,0.0017461175815435125
1761341808431305700,0.1423056640625,-0.07092296348512173,-0.0052029206716455514,0.003207664334354922
1761341808441372700,0.15237255859375,-0.06359247446656227,0.0069752641064114865,0.006543096933956258
1761341808451438600,0.1624384765625,-0.07137596794962883,0.0010830642626620827,0.004163558553392067
1761341808461504800,0.1725048828125,-0.06614098990559578,-0.006456738391332328,0.002654418932343833
1761341808471570700,0.18257080078125,-0.06329787543416023,0.00025943638747558,0.004085794309177436
1761341808481636900,0.192636962890625,-0.06599076777994632,0.0017027305309660731,-0.003966163684614003
1761341808491703800,0.202703857421875,-0.06569266161620617,-0.0007653400829993188,0.004345385960279963
1761341808501769700,0.212769775390625,-0.07137772151529788,-0.0021343086149543523,0.010430496293934994
1761341808511835600,0.222835693359375,-0.06194762986898422,-0.0018222104584798215,0.003049710993398912
1761341808521901600,0.232901611328125,-0.07196867314577102,-0.0005473316844552755,0.008553578239842317
1761341808531968500,0.242968505859375,-0.06583236234784126,0.0007703267853707075,-0.0035429972359444944
1761341808542034700,0.25303466796875,-0.07361527130901813,-0.006230035229679197,0.010839835146651603
1761341808552100600,0.2631005859375,-0.06718611504435539,0.005802146940119564,0.002952324166684411
1761341808562166800,0.273166748046875,-0.06374620372354983,0.0013558533220551906,0.002424231472238898
1761341808572232700,0.283232666015625,-0.07093173131346703,0.002950374238193035,0.00675996825476177
1761341808582299600,0.293299560546875,-0.07332651749551296,-0.003944518108386546,0.003538718353048898
1761341808592365800,0.30336572265625,-0.0688368048608303,0.001845207741577178,-0.006582643493055366
1761341808602431700,0.313431640625,-0.06853694513142108,0.0006095102004706859,-0.0029277696807403115
1761341808612497700,0.32349755859375,-0.06120587159097194,0.0030098858730867504,-0.00020043164265807716
1761341808622563600,0.3335634765625,-0.07258183660805224,-0.0007200944354757666,0.0016970360091188921
1761341808632630500,0.343630615234375,-0.05567220286130905,-0.0028352234259247776,0.00038485286543145776
1761341808642696700,0.35369677734375,-0.06958674644529819,-0.002921458670962602,0.002618626099755056
1761341808652762600,0.3637626953125,-0.07003039855957031,0.0023683913654647766,0.001526835107943043
1761341808662828800,0.373828857421875,-0.06883388225138187,-0.0015079203449189663,0.0034996512845624234
1761341808672895700,0.383895751953125,-0.07242109308838844,-0.0043720958706922825,-0.003445541910571046
1761341808682961700,0.393961669921875,-0.07795359277427195,0.0023849771740846334,0.0056583636884111905
1761341808693027800,0.40402783203125,-0.06927110462486744,0.00025934505593031644,0.009365081852395088
1761341808703093800,0.41409375,-0.07031622976362704,-0.007170293488167226,-0.0016141982975648715
1761341808713159700,0.42415966796875,-0.05729425110518932,-0.0022393216256983576,0.007817076092259958
1761341808723227000,0.434226806640625,-0.06746727007329463,0.0031848040485754608,0.006859473973326384
1761341808733293300,0.444293212890625,-0.07509586525559425,-0.0012809979875572025,0.0006319731940282508
1761341808743359000,0.45435888671875,-0.07479892813563346,-0.0010501849063672124,0.000252216628822498
1761341808753425200,0.464425048828125,-0.06357903046309947,-0.000027709990832954643,-0.0014155841526575386
1761341808763491000,0.474490966796875,-0.06417290470302105,0.0023579247703775764,0.006058624185528606
1761341808773558000,0.48455810546875,-0.07375088038742542,-0.004495210793707519,-0.00016615034714341162
1761341808783624200,0.494624267578125,-0.06806348240077495,-0.007415810948144644,0.005014864453370683
1761341808793690000,0.504690185546875,-0.05923486377894878,-0.0036802959479391574,0.00919025500845164
1761341808803756300,0.51475634765625,-0.07599018374681472,0.0013808781654573977,0.0073624459262471645
1761341808813823200,0.5248232421875,-0.06281856748461723,-0.001900024935044348,0.0071400490469532086
1761341808823889200,0.53488916015625,-0.06820669026374816,0.009528802780434489,-0.0018617478844244033
1761341808833955300,0.544955322265625,-0.0741921944141388,-0.0017232983949594198,-0.004809747502440586
1761341808844021000,0.55502099609375,-0.06969897464811801,0.002241915441583842,0.0005722560631576926
1761341808854087200,0.565087158203125,-0.06760346367359162,-0.002005695532914251,-0.0019517003233544528
1761341808864154000,0.575154052734375,-0.07254325816333293,-0.003856200504116714,0.00274978733190801
1761341808874220000,0.585219970703125,-0.07448620892465115,0.004118102843314409,0.010352156660985202
1761341808884286200,0.5952861328125,-0.07418167302012443,0.000009151420835405587,0.006625076128984801
1761341808894352100,0.60535205078125,-0.0611596943616867,-0.00013160875672474503,0.0002052539482479915
1761341808904418300,0.615418212890625,-0.06399930170178413,0.0050703985994681715,-0.0012155452356440947
1761341808914485200,0.6254853515625,-0.06519757157564163,-0.0020430136023089286,-0.0013291205787565557
1761341808924551200,0.63555126953125,-0.06579670651257037,-0.005016805248707533,0.0002785155472811311
1761341808934617300,0.645617431640625,-0.07477262465059757,-0.0015033172350376843,0.006976962873153388
1761341808944683000,0.65568310546875,-0.06923252618014812,0.0034017347348853943,-0.0019308493315707892
1761341808954750200,0.665750244140625,-0.07028232749402523,-0.0005664382437244057,-0.0031183603493962434
1761341808964816100,0.675816162109375,-0.06728957541882992,-0.0017623882963322102,-0.007304482361045666
1761341808974882000,0.685882080078125,-0.06489654280245304,0.0006468648024834692,-0.006954540978791192
1761341808984948200,0.6959482421875,-0.06863514480888844,-0.0030982034773565825,0.00014165066012647
1761341808995014100,0.70601416015625,-0.05785831472873688,-0.0028015586183406413,0.0033740658432478083
1761341809005081000,0.7160810546875,-0.06369359675347805,-0.002368610561173409,-0.004129153960291296
1761341809015147300,0.726147216796875,-0.06593757628798484,-0.001802135784830898,0.0009109682319220155
1761341809025213200,0.736213134765625,-0.07536649889051913,-0.0011570793469436466,0.00130697267903015
1761341809035279400,0.746279296875,-0.06683481738865375,-0.006811634509917348,-0.0020944834946421903
1761341809045345000,0.756344970703125,-0.06668693335056304,-0.009416099653579294,-0.002807303372537717
1761341809055412200,0.766412109375,-0.07102583933770656,-0.000056168900337070226,-0.0006934667234541848
1761341809065478100,0.77647802734375,-0.05606207896173,-0.0006464081447571516,0.0033860028762137517
1761341809075544000,0.7865439453125,-0.06758592801690101,-0.005957867224793881,-0.00003191580849234014
1761341809085610200,0.7966103515625,-0.07701192800998688,-0.008093564079236238,-0.00044305845922790464
1761341809095676200,0.80667626953125,-0.07461071208715439,-0.0042917241108603775,-0.0016096545531880109
1761341809105743000,0.8167431640625,-0.0692249273955822,-0.010227050710283219,-0.0006840230416739359
1761341809115809300,0.826809326171875,-0.07955226014256477,-0.006403254638426005,-0.002996236373647116
1761341809125875200,0.836875244140625,-0.07162029809951782,-0.0013838738401420413,0.004315497712092474
1761341809135941400,0.84694140625,-0.05964695171117782,-0.0062644306896254415,-0.001977994675235823
1761341809146008300,0.85700830078125,-0.07087035651504993,-0.00024862273251637817,-0.0012259022328769788
1761341809156074200,0.86707421875,-0.07251578563451766,-0.00146919576972723,0.002201770660863258
1761341809166140200,0.87714013671875,-0.07371171742081642,-0.0072172927013598375,-0.001558408423140645
1761341809176206000,0.8872060546875,-0.06668401074111462,0.004633450220618397,0.006093165775947273
1761341809186272300,0.897272216796875,-0.06623451340794563,0.002110726809967309,-0.001857756695896387
1761341809196339200,0.907339111328125,-0.06743044519424438,0.003106057990249246,0.00012822492297273128
1761341809206405000,0.917405029296875,-0.06997603802382946,-0.005951492282934487,-0.0011441331004025414
1761341809216471300,0.92747119140625,-0.0750672236829996,0.0007437310393899678,0.001593790263775736
1761341809226537200,0.937537109375,-0.06982932302951812,-0.0009161832631565629,-0.004551859184657224
1761341809236603100,0.94760302734375,-0.07087795529961585,0.000033463878184556956,-0.0009078401264967397
1761341809246670300,0.95767041015625,-0.07790916911065578,-0.0031720358985476193,-0.004330617649410851
1761341809256736300,0.967736328125,-0.06354512819349765,-0.004770392739586532,-0.001217367299972102
1761341809266802200,0.97780224609375,-0.06548866347670555,-0.009913655645865946,-0.0030826040494255718
1761341809276868000,0.9878681640625,-0.05785422307550907,-0.0016489545171149073,0.005202783674327656
1761341809286935000,0.99793505859375,-0.0764098704636097,-0.005348758883122354,0.007642244681739248
1761341809297001200,1.008001220703125,-0.06833353151381015,-0.006048285454604774,-0.0018193654808448627
1761341809307067100,1.018067138671875,-0.06818623199760913,-0.0023634777283295986,0.004284518051939085
1761341809317133300,1.02813330078125,-0.06474398258924484,-0.002549264357704669,0.0018433582777855916
1761341809327199200,1.03819921875,-0.06863397576510906,-0.0040469007706269615,0.004346016147942282
1761341809337266200,1.04826611328125,-0.0663882426649332,-0.002583477154560387,-0.002172165540466085
1761341809347332400,1.058332275390625,-0.07566226696670054,-0.0052712001348845655,0.004879995160480029
1761341809357398300,1.068398193359375,-0.07012392206192017,-0.0071586395829916,0.0013904588445555418
1761341809367464200,1.078464111328125,-0.06713058546483516,-0.0016588183240033685,-0.0027324937038123607
1761341809377530000,1.088530029296875,-0.06653145052790642,-0.0046890893979929385,-0.005918160835490562
1761341809387597000,1.09859716796875,-0.06383738913834094,-0.001109751340188086,0.0025630417213076723
1761341809397663200,1.108663330078125,-0.06997194637060165,0.004285568364709616,0.0028051159820286554
1761341809407729200,1.118729248046875,-0.0746101275652647,-0.009673983404785393,0.0029303589300485326
1761341809417795000,1.128795166015625,-0.0686240388929844,-0.004923848001938313,-0.0010300234677502885
1761341809427862300,1.1388623046875,-0.07116846267879008,0.00019064546758309006,-0.00002826711325906217
1761341809437928200,1.14892822265625,-0.06354045201838016,-0.0016424517110921442,0.00048288814611732956
1761341809447994000,1.158994140625,-0.06593465367853642,-0.0028490327555686233,-0.0023092039575567467
1761341809458060300,1.169060302734375,-0.07117021624445914,-0.005043638456705957,-0.001752602121257223
1761341809468126200,1.179126220703125,-0.06578384703099727,-0.0010177622077986598,0.007213525275117717
1761341809478193400,1.189193359375,-0.05664893893897533,-0.000572758386656642,-0.003001081512123346
1761341809488259000,1.199259033203125,-0.057844286203384394,-0.005896528958994895,0.00415746673932299
1761341809498325000,1.209324951171875,-0.06457797837257385,-0.007537318435963242,0.0002830227590398863
1761341809508391200,1.21939111328125,-0.06757423757910729,-0.0014127163421362638,-0.010237887198128737
1761341809518457000,1.22945703125,-0.07161796001195907,-0.006505893028993159,-0.0057972333029843864
1761341809528524300,1.239524169921875,-0.059499067673087117,-0.002402019640430808,0.001082292511104606
1761341809538590200,1.249590087890625,-0.07146539979875087,-0.0011694821707904338,0.0008631424682447686
1761341809548656000,1.25965625,-0.06906827552914618,-0.004327124217804521,-0.00007409728267230094
1761341809558722300,1.269722412109375,-0.07086158868670463,-0.006841025001183151,-0.0067355735990218815
1761341809568789200,1.279789306640625,-0.08403262042701244,-0.0061773186617530874,-0.0027132912464207038
1761341809578855200,1.289855224609375,-0.06861994723975658,-0.004534812151733785,-0.0010981476673623547
1761341809588921000,1.299921142578125,-0.061438511303067204,-0.003732574124448001,-0.006160047866543754
1761341809598987000,1.309987060546875,-0.07205810499489307,-0.010690211242623626,0.0008211162576917558
1761341809609053200,1.32005322265625,-0.06262918239235878,-0.006517053743824362,-0.0027568700932431964
1761341809619120000,1.3301201171875,-0.06232523100972175,-0.007030245696660131,0.0007717743903631344
1761341809629186000,1.34018603515625,-0.06591828706562519,-0.007009750897902995,-0.0013626118564046919
1761341809639252200,1.350252197265625,-0.067115972417593,-0.0019289222359657287,0.0018732419593958183
1761341809649318100,1.360318115234375,-0.07101005724668502,-0.0068504686829634,0.004871300397370942
1761341809659384300,1.37038427734375,-0.0671206485927105,-0.010640088490583002,0.005643056521425023
1761341809669451300,1.380451171875,-0.07490355755388736,-0.006963263141363859,-0.0007395297883078456
1761341809679517200,1.39051708984375,-0.06248655905127525,0.0022890607852488754,-0.008363750189589335
1761341809689583400,1.400583251953125,-0.05904314059913158,0.0008721979909576475,0.0006371425594901666
1761341809699649000,1.41064892578125,-0.06098784492611885,-0.000369253437500447,0.000675743837095797
1761341809709715200,1.420715087890625,-0.06832008751034736,-0.005782711587287485,-0.0064288229045225305
1761341809719782100,1.4307822265625,-0.06293488734066487,-0.006913469182886183,-0.004531154323345981
1761341809729848000,1.44084814453125,-0.06876841579973697,-0.010749266219791024,-0.0008913045502267778
1761341809739914000,1.4509140625,-0.07370879481136798,-0.005985851210262626,0.0024688103994820266
1761341809749980000,1.46097998046875,-0.0686234543710947,-0.002025934603344649,0.0035189313737675545
1761341809760046000,1.471046142578125,-0.07385784789323806,-0.0037763036683201787,-0.005046624998236075
1761341809770113000,1.481113037109375,-0.0675689768821001,-0.007718702884856611,-0.0013994869678048416
1761341809780179000,1.491178955078125,-0.06008709669411182,-0.005920512622781098,-0.0015626690397271886
1761341809790244900,1.501244873046875,-0.06487257740497589,0.0013983407569117844,-0.0010479838161263615
1761341809800310800,1.511310791015625,-0.06532265926003455,-0.006943316331878304,-0.00005806402990128845
1761341809810377700,1.521377685546875,-0.06247662217915058,-0.009143493257276713,-0.0007095091093797236
1761341809820444000,1.53144384765625,-0.06217968505918979,-0.003223893949948251,0.0024771352698327973
1761341809830509800,1.541509765625,-0.07520049467384815,-0.0009223938082344829,-0.005573324886616319
1761341809840576000,1.551575927734375,-0.07324994512796401,0.0011091485519893467,0.0014920469223521648
1761341809850642000,1.561641845703125,-0.0722007283359766,-0.006799268218688667,-0.009882374591613188
1761341809860708900,1.571708984375,-0.0656172582924366,-0.008111812121979891,0.0036829902285244313
1761341809870775000,1.581775146484375,-0.06936170551776885,-0.0057219395770691335,-0.0011929635110776871
1761341809880841000,1.591841064453125,-0.07100421202778816,-0.006474675906822085,-0.002920951780886389
1761341809890907100,1.6019072265625,-0.07144844866394996,-0.001459569424856454,0.003193631242425181
1761341809900972800,1.611972900390625,-0.07174889291524887,-0.0020533888658508656,-0.00016736962327267973
1761341809911039700,1.622039794921875,-0.06980243502259253,-0.0038960210578516123,-0.004776735715405084
1761341809921106000,1.63210595703125,-0.0730938777834177,-0.013352470988128334,0.0016953052763361482
1761341809931171800,1.642171875,-0.06965338194072246,-0.008077069602161646,-0.0006652178765041753
1761341809941238000,1.652238037109375,-0.06665770725607871,-0.011353954114671796,0.0028956483762711286
1761341809951304000,1.662303955078125,-0.06560732142031192,-0.005224840242508798,-0.00047597434814088043
1761341809961371000,1.672370849609375,-0.06619885757267474,-0.006409355585649609,-0.002780314900912344
1761341809971437000,1.68243701171875,-0.062307695353031156,-0.0034493367362767456,-0.003528726681997068
1761341809981503000,1.6925029296875,-0.06485504174828528,-0.006606047201529145,-0.0028424340514233335
1761341809991569200,1.702569091796875,-0.0669505527228117,-0.01137788297953084,-0.0027123094323091208
1761341810001636000,1.712635986328125,-0.06231120248436928,-0.003799958538543433,-0.005400826997077092
1761341810011701800,1.72270166015625,-0.07502981428205967,0.0036205468510277566,-0.003771344365412369
1761341810021768000,1.732767822265625,-0.0609638795286417,-0.0039055012722499665,-0.008407918124878778
1761341810031833900,1.742833740234375,-0.06679974607527256,-0.003936225204076617,0.003171122583094984
1761341810041900000,1.752900146484375,-0.06724982793033123,-0.0023846483805216845,0.00024932598541490734
1761341810051967000,1.762967041015625,-0.05991583178043365,-0.004708451685588807,-0.0024617778704967347
1761341810062033000,1.773032958984375,-0.06470248153507709,-0.005356047140434384,-0.0035705976289231328
1761341810072099000,1.78309912109375,-0.06889058087468147,-0.013132197567261755,-0.0024391185141168534
1761341810082165000,1.7931650390625,-0.0618570289760828,-0.005499967389460653,0.001434256887086667
1761341810092231000,1.80323095703125,-0.07247837623357772,-0.0012528678716160356,-0.00007418404764030128
1761341810102298000,1.813298095703125,-0.07038169621527195,-0.008617295692395418,0.001855916365259327
1761341810112363800,1.82336376953125,-0.07097966210842133,-0.005489245066046714,0.0011572254774160683
1761341810122430000,1.833429931640625,-0.07696808886826038,-0.009116897511295973,0.00011006364519707858
1761341810132496000,1.843495849609375,-0.07546820569932461,-0.0029493513248860835,0.0033497579524759203
1761341810142561800,1.853561767578125,-0.0718739805996418,-0.01051585932271555,-0.0014749861896969378
1761341810152629000,1.86362890625,-0.07546586761176585,-0.004662438853085041,0.0028819486444815992
1761341810162695000,1.87369482421875,-0.07831073564887046,-0.00024239392112940548,-0.00221655267146416
1761341810172761000,1.883760986328125,-0.07262626027166844,-0.008861406646575778,-0.000485874687647447
1761341810182827000,1.893826904296875,-0.07367372349798679,-0.006368548651225865,-0.00038494419697672125
1761341810192893000,1.903892822265625,-0.07487082432806491,-0.009639697542693466,0.00001559029477648437
1761341810202960100,1.913960205078125,-0.06634031186997891,-0.009226038707885891,-0.0007888762222137302
1761341810213026000,1.924026123046875,-0.06469079109728336,-0.004904376116488128,-0.002340192750864662
1761341810223092000,1.934092041015625,-0.06783142721056938,-0.0026584968858398496,0.0002731726518832147
1761341810233158000,1.944157958984375,-0.05675882905423641,-0.007710483045782894,-0.007111019315291196
1761341810243224800,1.954224853515625,-0.07186871990263462,-0.002145250134076923,-0.0013270884518744423
1761341810253291000,1.964291015625,-0.0655821869790554,-0.001728760021366179,0.002302787916501984
1761341810263357000,1.97435693359375,-0.06872574570178985,-0.007059764052089303,0.0006690857674460858
1761341810273422800,1.9844228515625,-0.07126783140003681,-0.010172251783125101,-0.0005710641864920035
1761341810283489000,1.994489013671875,-0.06153846454620361,-0.00777695414442569,-0.0016704813623335212
1761341810293556000,2.004555908203125,-0.06692600280344486,-0.0017853855794295668,-0.0005445278060156851
1761341810303622000,2.014621826171875,-0.06917407399117946,-0.011217650916520506,-0.0007310542209073901
1761341810313688000,2.02468798828125,-0.06947627180814743,-0.009124806823115795,-0.0030746445052558555
1761341810323753700,2.034753662109375,-0.06064414605498313,-0.003709540308732539,-0.0016917981449980288
1761341810333820000,2.04481982421875,-0.06393441977202892,-0.009141283033881335,0.0016560738110681995
1761341810343886800,2.054886962890625,-0.07006839248239993,-0.0024315745284780857,-0.0005050908447708935
1761341810353952800,2.064952880859375,-0.06438274806141853,-0.0003001337240450084,0.003460346754058264
1761341810364019000,2.07501904296875,-0.0699175858348608,-0.006696246235631406,-0.0038362856606720015
1761341810374084900,2.0850849609375,-0.07291150695383548,-0.00396837390800938,-0.003208390420139767
1761341810384151000,2.095151123046875,-0.07096504906117916,-0.007958228995464741,0.0043352527253329755
1761341810394218000,2.105218017578125,-0.07231003392934798,-0.0019038791262544692,0.006401697435579262
1761341810404284000,2.115283935546875,-0.07036299151480198,-0.002397617459949106,0.0015977403531083835
1761341810414350000,2.12535009765625,-0.06976561014354228,-0.004313534083869308,-0.005962598198838532
1761341810424415700,2.135415771484375,-0.0669195730626583,-0.002664122909028083,0.0008146180182462558
1761341810434482000,2.14548193359375,-0.07305413029491901,0.0017721973042935132,0.005927942443988286
1761341810444548900,2.155548828125,-0.06841770266592502,-0.005655395413190126,0.003413639801810495
1761341810454614800,2.16561474609375,-0.06497720682322979,-0.00815015310468152,-0.007418413897184654
1761341810464681000,2.175680908203125,-0.06856967835724354,-0.006576875905971974,0.004181258606864139
1761341810474747000,2.185746826171875,-0.06362929934561252,-0.011559504890441894,-0.0005369792537996545
1761341810484813800,2.195813720703125,-0.06287877323925495,-0.008056520004477352,-0.0002066513208905235
1761341810494880000,2.2058798828125,-0.0775420893639326,-0.005437003422155976,0.0027683961342554538
1761341810504946000,2.21594580078125,-0.06856558670401573,-0.009553261368256061,0.0007726877058157696
1761341810515012000,2.22601220703125,-0.06676584380567073,-0.008401040859520434,0.0007003942211624235
1761341810525077800,2.236077880859375,-0.0679611910700798,-0.0012868797390721738,-0.0031491527798818424
1761341810535145000,2.24614501953125,-0.06780979990065097,-0.015124997085984795,0.0010994400087278335
1761341810545211000,2.2562109375,-0.06481646330356597,-0.009170801389310508,0.002087688427674584
1761341810555276800,2.26627685546875,-0.06331716465651989,-0.008844528577011079,-0.0017388704234268515
1761341810565343000,2.276343017578125,-0.06795768393874169,-0.00828866652622819,-0.0017802025142358614
1761341810575409000,2.286408935546875,-0.057332245028018945,-0.010087295179720967,-0.000277218639338389
1761341810585475800,2.296475830078125,-0.06331833370029925,-0.009250442496780305,0.0020714542455039916
1761341810595542000,2.3065419921875,-0.06242167712152004,-0.0018772103150375187,0.0013138225449249147
1761341810605608000,2.31660791015625,-0.06691255879998206,-0.0038905959640629585,-0.00961404251162894
1761341810615674000,2.326674072265625,-0.07379881118237971,-0.008104140272177755,-0.0015506589415250345
1761341810625740000,2.336739990234375,-0.07125555644035339,-0.014190821508411318,0.002297595718153752
1761341810635807000,2.346806884765625,-0.062277300214767455,-0.011046130274515599,0.0011873831536620854
1761341810645873000,2.356872802734375,-0.06886135478019714,-0.004173394960816949,-0.0028860768303275107
1761341810655938800,2.366938720703125,-0.07080664362907409,-0.010274798842146993,-0.0005157492361031473
1761341810666005000,2.3770048828125,-0.07005787108838558,-0.010905479694809764,0.0035619165655458346
1761341810676071000,2.38707080078125,-0.06167874979972839,-0.0026262751166708765,-0.00402842439902015
1761341810686137900,2.397137939453125,-0.07185293781161307,-0.004603000283427536,0.0010290188207523897
1761341810696204000,2.4072041015625,-0.07708733133375645,-0.006067702541127801,0.006148188465391285
1761341810706270000,2.41727001953125,-0.07080021388828754,-0.004190492226090282,-0.0009495101440232246
1761341810716336000,2.427336181640625,-0.06870645647943019,-0.004768273847736418,-0.00789423754827585
1761341810726403000,2.437403076171875,-0.07708499324619769,-0.0049472106112167236,0.0044247256736503916
1761341810736469000,2.447468994140625,-0.06646189242303371,-0.001903130207583308,0.0027596374390646814
1761341810746535200,2.45753515625,-0.07020400156080722,-0.0015643084409646688,0.0020966297859558833
1761341810756601000,2.46760107421875,-0.06077975513339042,-0.005204491574224084,0.0018787446849979459
1761341810766667000,2.4776669921875,-0.06032791971266269,-0.008034472569450736,0.005847324088984169
1761341810776734200,2.487734130859375,-0.06720891139805317,-0.01056979973334819,-0.0017101831850595771
1761341810786800000,2.497800048828125,-0.06421732836663722,-0.0004269749741069972,-0.006259960010484792
1761341810796866000,2.507865966796875,-0.06316635800898075,-0.006982881157286465,0.008377344890101812
1761341810806932000,2.517931884765625,-0.0660047963052988,-0.00819949040543288,0.0012842037247959525
1761341810816998000,2.527997802734375,-0.06989362043738365,-0.008733907809387893,-0.00665148464529775
1761341810827065000,2.538065185546875,-0.06779401780962943,-0.009844243671465665,0.001223783341026865
1761341810837131000,2.548131103515625,-0.07362754626870155,-0.012146803259104489,0.0037735043564578515
1761341810847197000,2.558197021484375,-0.075128013959527,-0.012883501769509165,-0.0048075053130043665
1761341810857263000,2.56826318359375,-0.06929039384722709,-0.0060679217368364334,-0.007108133238460868
1761341810867329000,2.5783291015625,-0.0640530777156353,-0.01007050844170153,-0.004179016417427919
1761341810877396200,2.588396240234375,-0.06719546739459037,-0.002754577671457082,0.006258023781725205
1761341810887462100,2.598462158203125,-0.06898878055214881,-0.011052359085902571,0.003703868619771674
1761341810897528000,2.608528076171875,-0.06958733096718787,-0.009581300152651965,0.00289531958270818
1761341810907594000,2.618593994140625,-0.06764262664020061,-0.009970573464874177,0.0048805066171335055
1761341810917660000,2.628659912109375,-0.07003682830035686,-0.0018761691354215143,-0.0017687175724189728
1761341810927727000,2.63872705078125,-0.0646492900431156,-0.008490107382461427,-0.00130862577999942
1761341810937793000,2.64879296875,-0.06854162130653858,-0.011404862318001687,-0.0022559850661316885
1761341810947859000,2.65885888671875,-0.06539806258380412,-0.01176180426320061,0.002409919819096103
1761341810957925000,2.668925048828125,-0.06404664797484874,-0.004196045184042305,0.0033841945116175336
1761341810967991000,2.678990966796875,-0.07661679121255874,-0.005096720350813121,0.001374653920647688
1761341810978058000,2.68905810546875,-0.08080547507405281,-0.005752718307822942,-0.0009483547999756411
1761341810988124200,2.699124267578125,-0.06688800888061523,-0.007759290623571723,0.0016367343563586472
1761341810998190000,2.709190185546875,-0.0701788671195507,-0.00822818677695468,-0.007140752299851737
1761341811008256000,2.719256103515625,-0.06509060406982899,-0.0006072634444572032,0.003722966045886278
1761341811018323000,2.729322998046875,-0.06793254949748516,-0.0032922099458053706,0.00048052722567226735
1761341811028388900,2.739388916015625,-0.06014964053630829,0.000041080929059535263,-0.0004761204786133021
1761341811038455000,2.749455078125,-0.0673334145605564,-0.0061545953732915215,0.003482028862903826
1761341811048521000,2.75952099609375,-0.06553834783732891,-0.012466682863235472,0.005448355933232233
1761341811058587100,2.769587158203125,-0.07137596794962883,-0.00940574265634641,0.0029879663022235035
1761341811068654000,2.779654052734375,-0.059853872460126877,-0.008033906313870102,0.0037907934179762376
1761341811078720000,2.789719970703125,-0.06209902103841304,-0.012970266737509518,0.0020728287852602076
1761341811088786200,2.7997861328125,-0.06434124700725079,-0.007833963294979185,0.005688128639012574
1761341811098852000,2.80985205078125,-0.06539163284301758,-0.0024645817489363253,0.005256262860656715
1761341811108918000,2.81991796875,-0.0733206722766161,-0.0027367314875125885,0.0015249171454925089
1761341811118985200,2.829985107421875,-0.06090192020833492,-0.010900292063038795,0.002460353098390624
1761341811129051000,2.84005078125,-0.06718260791301726,-0.010470650207810104,0.002608401533262804
1761341811139117000,2.850116943359375,-0.07750818709433079,-0.010156999415066092,-0.0013006845021387562
1761341811149183000,2.860182861328125,-0.07391863816976547,-0.006215330850891768,-0.0016498906654538587
1761341811159249200,2.870249267578125,-0.060600891435146326,-0.007115896419808268,-0.006618847317597828
1761341811169316000,2.880316162109375,-0.06464169125854968,-0.007690317040588706,-0.0006925625411560759
1761341811179382000,2.890382080078125,-0.05596504832804203,-0.007283361941203475,0.003108793370029889
1761341811189448200,2.9004482421875,-0.06524024167358874,-0.007829177522007376,0.002535980184446089
1761341811199514000,2.91051416015625,-0.06673954032063484,-0.006945216028019786,0.0006256119519006461
1761341811209580000,2.920580078125,-0.06928454862833022,-0.009443937508575617,-0.00027816848740912974
1761341811219647200,2.930647216796875,-0.06823591635823249,-0.013234561963193118,-0.007640221688011661
1761341811229713000,2.940712890625,-0.058659109717607495,-0.010680603164061903,0.0006591899945167824
1761341811239779000,2.950779052734375,-0.0626981559753418,-0.005806585653219371,-0.0019181862128200009
1761341811249845000,2.960844970703125,-0.06344634399414062,-0.006085767920780927,-0.0024740391304483634
1761341811259911200,2.9709111328125,-0.06224690507650375,-0.007381744281761348,0.001893677392648533
1761341811269978000,2.98097802734375,-0.06793313401937484,-0.009745532537344843,0.005735945269535295
1761341811280044000,2.9910439453125,-0.06373977398276329,-0.0038948520140722393,-0.006157960940734483
1761341811290110200,3.001110107421875,-0.061792731568217275,-0.004702387270983308,0.001516482677287422
1761341811300176100,3.011176025390625,-0.0652332274109125,-0.0005649404063820839,0.002428985279169865
1761341811310242300,3.0212421875,-0.06418693322837353,-0.002883866606932133,0.0006767073848983272
1761341811320309200,3.031309326171875,-0.057005497291684144,-0.010344959735218436,0.001240556379314512
1761341811330375000,3.041375,-0.06852642373740672,-0.010702175675053148,-0.0037159243837464597
1761341811340441000,3.051441162109375,-0.07046586736738682,-0.00574784120330587,0.008073023614706472
1761341811350507000,3.061507080078125,-0.07286123807132244,-0.006437522234208882,0.00017027396641205994
1761341811360574000,3.071573974609375,-0.06388356636762618,-0.005221095649152994,-0.0035845530890394
1761341811370640100,3.08164013671875,-0.056553077349066734,-0.007681951071042567,0.006168706097034737
1761341811380706000,3.0917060546875,-0.06762392193973064,-0.004929492291435599,0.008316148188197986
1761341811390772200,3.101772216796875,-0.07764847234785556,-0.009513988803792745,0.01405314377050381
1761341811400838100,3.111838134765625,-0.07016483859419823,-0.004809555706195533,0.003057218446419574
1761341811410905000,3.121905029296875,-0.06852174756228924,-0.00754924633577466,0.0028440734526608137
1761341811420971300,3.13197119140625,-0.06358721376955509,-0.007288823567610234,0.00431135125993751
1761341811431037000,3.142036865234375,-0.07211714170575141,-0.004867003248166293,0.0014757351083680987
1761341811441103000,3.15210302734375,-0.0709194563537836,-0.005756919558905065,-0.0012160658254520968
1761341811451169000,3.1621689453125,-0.07376373986899852,-0.0045972463960759335,0.0011881275057559833
1761341811461236000,3.172236083984375,-0.06209492938518524,-0.009287559636775404,-0.006053217358049005
1761341811471302100,3.18230224609375,-0.06553308714032173,-0.0014806852781213819,-0.0023756111241178585
1761341811481368000,3.1923681640625,-0.06404080275595188,-0.00788678946075961,0.0004714991024229675
1761341811491434000,3.20243408203125,-0.06867956847250462,-0.0070023530427366495,-0.00366294752091635
1761341811501500200,3.212500244140625,-0.07571838106811046,-0.009039813687093555,0.0023501707221847026
1761341811511567000,3.222567138671875,-0.06613865181803703,-0.0024415844658389686,0.0006041490387637167
1761341811521633000,3.232633056640625,-0.06269932501912116,-0.010456000627949833,-0.0024813410874921825
1761341811531699000,3.242698974609375,-0.07451952667236328,-0.005252130108233541,-0.0034713385055307297
1761341811541764900,3.252764892578125,-0.0763181005269289,-0.010362732853926717,0.0035273201762000095
1761341811551831000,3.2628310546875,-0.06973170787394047,-0.007911101918108761,-0.0020935793123440815
1761341811561898000,3.27289794921875,-0.06314706878662109,-0.007195647125132381,-0.0020067960780346763
1761341811571964000,3.2829638671875,-0.06494096646606921,-0.010009553768392652,0.003592393902200274
1761341811582030000,3.293030029296875,-0.0652338119328022,-0.008447967007476836,0.001176373135880567
1761341811592096000,3.303095947265625,-0.06747486885786057,-0.010701335424836724,-0.002689106653234921
1761341811602162200,3.313162109375,-0.07121463990807533,-0.007319547499436885,0.0026300836421083657
1761341811612229000,3.32322900390625,-0.05445464376509189,-0.009000047932285815,0.002586217100918293
1761341811622295000,3.333294921875,-0.07330664375126361,-0.009721987264975905,-0.0050507120848866174
1761341811632361200,3.343361328125,-0.0716559539347887,-0.0030119864986278117,0.003834513828693889
1761341811642427000,3.353427001953125,-0.0735994892179966,-0.01282621862431988,0.005075444667343981
1761341811652494000,3.363494140625,-0.06537117457687855,-0.012712876176647842,0.0005253344817785546
1761341811662560000,3.37356005859375,-0.06013444296717643,-0.005473061116226017,0.01849329077557195
1761341811672626000,3.3836259765625,-0.07225391982793808,-0.007449621886201203,0.001311219595884904
1761341811682692000,3.393692138671875,-0.06581599573493004,-0.0047545923822559415,-0.011482293202076107
1761341811692758000,3.403758056640625,-0.07988017692267894,-0.010978471865784377,0.010275250933296046
1761341811702825000,3.413824951171875,-0.06012625966072082,-0.010819755906425416,0.00468323961251881
1761341811712891100,3.42389111328125,-0.06161912856698036,-0.006916848450060934,-0.00023618337605148552
1761341811722957000,3.43395703125,-0.06670563805103302,-0.003817201934289187,0.007198309439676813
1761341811733023200,3.444023193359375,-0.06984919677376747,-0.006246840234007686,-0.0008524018785217776
1761341811743089200,3.454089111328125,-0.07299217097461223,0.0027458281094208357,-0.0026462995579699055
1761341811753156000,3.464156005859375,-0.07164835515022278,0.0015134367702528833,-0.0037466894147684796
1761341811763222300,3.47422216796875,-0.06805471457242965,-0.011573752611503004,-0.00002372336888220161
1761341811773288200,3.4842880859375,-0.06625964784920216,-0.01648945383960381,0.008637119204294868
1761341811783354400,3.494354248046875,-0.06745791772305965,-0.001755940289236605,-0.0027007514252560213
1761341811793420000,3.504419921875,-0.06401566831469535,-0.010340283560100942,0.012873624262888916
1761341811803487200,3.5144873046875,-0.0629722967416048,-0.009840005887765436,0.0023376217678654936
1761341811813553200,3.52455322265625,-0.06357026263475418,-0.008370408259239048,0.0011271089003654195
1761341811823619000,3.534619140625,-0.06880699424445628,-0.013633973076939582,0.008588868748932145
1761341811833685200,3.544685302734375,-0.0622229396790266,-0.010976225109770893,-0.007063431013631634
1761341811843751200,3.554751220703125,-0.0614735826164484,-0.0044584041809663175,-0.0038563466345891352
1761341811853818000,3.564818115234375,-0.06775719293057918,-0.008593238963373004,-0.0012664077732013538
1761341811863884300,3.57488427734375,-0.06431494352221488,-0.01986369777936488,-0.0028256199139403177
1761341811873950200,3.5849501953125,-0.07045008527636527,-0.014478534142300485,0.004160567445284687
1761341811884016400,3.595016357421875,-0.06236731658577919,-0.01175654356619343,-0.006204489796468988
1761341811894082000,3.60508203125,-0.06535480796396732,-0.010217771425284445,-0.0022311611521290613
1761341811904149200,3.615149169921875,-0.07463526200652122,-0.004708323821425438,0.006713064939691685
1761341811914215200,3.625215087890625,-0.07104454403817653,-0.0050813949175179006,0.00038161516215186564
1761341811924281000,3.635281005859375,-0.06685644469857216,-0.009200191880576311,-0.003671432221471332
1761341811934347300,3.64534716796875,-0.06805179196298122,-0.012570252835564314,-0.0015731310682371258
1761341811944413200,3.6554130859375,-0.07359189043343067,-0.002076349616330117,-0.0006070122827077284
1761341811954480000,3.665480224609375,-0.07299450906217098,-0.007426149679068476,-0.006786988692427985
1761341811964546300,3.67554638671875,-0.060575172472000116,-0.012444945955462753,0.0022366730108857153
1761341811974612200,3.6856123046875,-0.0776338593006134,-0.007644961795210838,0.002952031905739568
1761341811984678100,3.69567822265625,-0.06655892305672169,-0.010389255534671247,-0.004570066128205508
1761341811994744300,3.705744384765625,-0.057875265863537785,-0.006473981787078083,-0.0009208137725014239
1761341812004811300,3.715811279296875,-0.06401040761768817,-0.004503193170763552,0.0027080259828362614
1761341812014877200,3.725877197265625,-0.0699953272461891,-0.009648483637347816,-0.0048561758934753015
1761341812024943000,3.735943115234375,-0.07313654788136482,-0.007884506172128021,-0.0035824661632301285
1761341812035009000,3.746009033203125,-0.07089549095630646,-0.006414196157548576,-0.0006844522999366745
1761341812045076200,3.756076171875,-0.05757482161223888,-0.017862568823713808,0.003226478632679209
1761341812055142100,3.76614208984375,-0.0713379740267992,-0.005750928209535777,0.008440802047750912
1761341812065208300,3.776208251953125,-0.06505261014699935,-0.011041052240598946,0.011695260099321604
1761341812075274200,3.786274169921875,-0.06400631596446037,-0.009754135968908667,-0.0033116681315237652
1761341812085340200,3.796340087890625,-0.06774433344900607,-0.0021084069887176153,0.004033598331059329
1761341812095407400,3.806407470703125,-0.07178337970674037,-0.011092672829981892,-0.0001744523846078664
1761341812105473300,3.816473388671875,-0.06669453213512896,-0.009775982474535703,0.0006283062324859202
1761341812115539200,3.826539306640625,-0.06430091499686241,-0.008707385128643363,-0.0014541214981814846
1761341812125605000,3.836605224609375,-0.06743921302258968,-0.004567399247083812,-0.001833868930232711
1761341812135671000,3.846671142578125,-0.07102934646904469,-0.01091928902445361,-0.010702600366738623
1761341812145738200,3.85673828125,-0.07476619490981101,-0.010595536962803452,-0.0028992696720408274
1761341812155804200,3.86680419921875,-0.0678822806149721,-0.00747093866886571,0.0037395975202787666
1761341812165870000,3.8768701171875,-0.06234276666641235,-0.012831972511671483,0.005554574520373717
1761341812175936300,3.886936279296875,-0.06398936482965946,-0.014737970529776066,0.0013920571465976537
1761341812186002200,3.897002197265625,-0.07042027465999126,-0.011922986174281686,0.005198952316003851
1761341812196069000,3.907069091796875,-0.061741293641924856,-0.016427037861570716,0.0017589587968075647
1761341812206135300,3.91713525390625,-0.06533084256649017,-0.013047131366003304,-0.0005478888068813831
1761341812216201000,3.927200927734375,-0.07415946118831634,-0.009860299757122992,0.001043417238863185
1761341812226267100,3.93726708984375,-0.06293547186255455,-0.010028660327661781,0.004072998759686015
1761341812236333000,3.9473330078125,-0.05889174942970275,-0.006908263284806162,0.00020054580708965658
1761341812246400000,3.95739990234375,-0.06487783810198307,-0.006880114902555942,-0.0018710545688867567
1761341812256466200,3.967466064453125,-0.07101882507503032,-0.01235500264968723,0.001901728268363513
1761341812266532000,3.977531982421875,-0.06144435652196407,-0.009966463545337319,0.009012226993846706
1761341812276598300,3.987598388671875,-0.07072188795506953,-0.0068265763507224615,0.0029472369996132327
1761341812286664200,3.997664306640625,-0.06728197663426398,-0.0028638101995922625,0.003912985892384313
1761341812296731100,4.007731201171875,-0.05785480759739876,-0.008983498656284063,-0.0005432628641137853
1761341812306797300,4.01779736328125,-0.05845335801243782,-0.00926107348864898,0.002564425394218415
1761341812316863200,4.02786328125,-0.06070026015639305,-0.008001100022811443,0.0036395620787516235
1761341812326929200,4.03792919921875,-0.0601011252194643,-0.006976287019718438,0.0024522154577076433
1761341812336995000,4.0479951171875,-0.07521101606786251,-0.006661686378903686,0.00045487219460774213
1761341812347062000,4.05806201171875,-0.06832593272924423,-0.002938574202544987,0.0013683703103335573
1761341812357128200,4.068128173828125,-0.07640694785416126,-0.00811652482971549,0.0006610394583083689
1761341812367194000,4.078194091796875,-0.06593348463475704,-0.007956493696104735,0.007239892692235298
1761341812377260300,4.08826025390625,-0.05815174471735954,-0.004372424664255231,0.00023387268795631826
1761341812387326200,4.098326171875,-0.06383855818212032,-0.011415639440342783,-0.003476279542129487
1761341812397393200,4.10839306640625,-0.06533493421971798,-0.011889156969916074,-0.0019595046038972212
1761341812407459300,4.118459228515625,-0.06668401074111462,-0.011614961404725909,0.002045479554031044
1761341812417525200,4.128525146484375,-0.06399345648288726,-0.01529399697734043,-0.0011852094628848134
1761341812427591200,4.138591064453125,-0.0665408028781414,-0.013349493579752743,0.01283776293164119
1761341812437657000,4.148656982421875,-0.058765492701530454,-0.006202051244210451,-0.0016465524974744767
1761341812447724000,4.15872412109375,-0.05966331832408905,-0.005495400812197476,-0.009654653083230368
1761341812457790200,4.168790283203125,-0.060412675386667246,-0.011275299387890845,0.0014576834284467622
1761341812467856100,4.178856201171875,-0.0666974547445774,-0.004384590026084333,0.006229711002693511
1761341812477922300,4.18892236328125,-0.05966507188975811,-0.002289462644048035,-0.005166146024945192
1761341812487988200,4.19898828125,-0.05697042597830295,-0.012820008079241961,-0.008795223242300563
1761341812498055200,4.20905517578125,-0.07402911280691624,-0.01254126420309767,0.008676784494402817
1761341812508121300,4.219121337890625,-0.07582417953014374,-0.0075958436901681125,0.0011530881584156305
1761341812518187300,4.229187255859375,-0.06280804609060286,-0.013485869843140244,0.007068682577484287
1761341812528253200,4.239253173828125,-0.068192077216506,-0.007498630393389612,0.00551061664763838
1761341812538320100,4.249320068359375,-0.07327975574433804,-0.0054081243875436485,0.00321858758716844
1761341812548386000,4.259385986328125,-0.06311082842946052,-0.009961184582021087,0.0019983433435205368
1761341812558452200,4.2694521484375,-0.05667758051156997,-0.010957246414665132,-0.003964095025113783
1761341812568518100,4.27951806640625,-0.07059563122689723,-0.016575890014041215,0.001574715670547448
1761341812578584300,4.289584228515625,-0.06955050608813762,-0.011674326909147202,-0.003721550406934693
1761341812588651300,4.2996513671875,-0.06700783586800098,-0.01481907294197008,-0.010045985921798273
1761341812598717200,4.30971728515625,-0.07089549095630646,-0.00984603376975283,-0.005329866952984593
1761341812608783400,4.319783447265625,-0.06909867066740989,-0.01052868227167055,0.0008642841125605628
1761341812618849300,4.329849365234375,-0.06910100875496863,-0.013712025015521793,-0.0022800006959587333
1761341812628915000,4.3399150390625,-0.0708978290438652,-0.005707710122317075,-0.001771283988840878
1761341812638982400,4.349982421875,-0.0714946258932352,-0.0074220580258406695,0.0040006230766419315
1761341812649048000,4.360048095703125,-0.06535889961719513,-0.013251129505503922,0.002260327881108969
1761341812659114200,4.3701142578125,-0.06385960097014903,-0.009305515418574214,-0.008354521136940456
1761341812669180200,4.38018017578125,-0.07492986103892325,-0.010174023615103214,0.0003360909534152597
1761341812679246000,4.39024609375,-0.07552607336640357,-0.005068955561053008,0.008523078070301561
1761341812689313300,4.400313232421875,-0.06535013178884982,-0.00746560490662232,-0.0029715951227350158
1761341812699379200,4.410379150390625,-0.06310615225434303,-0.008787081035040318,-0.0020199295542435718
1761341812709445000,4.420445068359375,-0.06251169349253177,-0.008596837426256387,0.0014768493532203138
1761341812719511300,4.43051123046875,-0.07074351526498794,-0.01402826962415129,0.007036337510729208
1761341812729578200,4.440578125,-0.07178630231618881,-0.015572905250266193,-0.0019921967305243015
1761341812739644200,4.45064404296875,-0.07388122876882552,-0.014064217720367013,-0.0016376933375839143
1761341812749710000,4.4607099609375,-0.07313596335947513,-0.01122976147942245,0.009306730128126219
1761341812759776000,4.47077587890625,-0.07717442509531974,-0.011593041833862661,-0.0005720414340263233
1761341812769842200,4.48084228515625,-0.07074000813364982,-0.00876561812190339,-0.0022332115453202275
1761341812779909000,4.4909091796875,-0.06699965256154537,-0.00936895430991426,-0.00009038626377005129
1761341812789975000,4.50097509765625,-0.06595335837900639,-0.005280570751428603,-0.00389453692024108
1761341812800041000,4.511041015625,-0.06460545090138912,-0.0090883838028647,0.006523944708914496
1761341812810107000,4.52110693359375,-0.06744973441660404,-0.009910751302726567,0.001959810564573854
1761341812820173000,4.531173095703125,-0.07343640761077404,-0.010014777932781726,0.00029591877323109655
1761341812830240000,4.541239990234375,-0.0670031596928835,-0.004886621264088899,-0.0010118073910474776
1761341812840306000,4.551305908203125,-0.061763505473732945,-0.012107147102151066,-0.0014326677181990817
1761341812850372000,4.5613720703125,-0.07238952890634537,-0.011117807271238416,-0.0061589518880005925
1761341812860438000,4.57143798828125,-0.07404021872282028,-0.009372388376016168,0.004799605134339071
1761341812870505200,4.581505126953125,-0.06850479642748833,-0.004661872597504407,0.007658670660154894
1761341812880571100,4.591571044921875,-0.06821078191697597,-0.011052651346847414,-0.0009431169358547776
1761341812890637000,4.601636962890625,-0.06252163036465644,-0.005952095071133226,-0.003586238156049512
1761341812900703000,4.611702880859375,-0.06536123770475387,-0.007600866925157606,-0.002680096796294674
1761341812910769000,4.621768798828125,-0.0655079526990652,-0.01177287364648655,0.002717255035485141
1761341812920836000,4.631836181640625,-0.06984919677376747,-0.005271437596902251,0.001936251592473127
1761341812930902000,4.641902099609375,-0.06611059476733207,-0.005611921597644686,0.0056744974058819935
1761341812940968000,4.651968017578125,-0.06177285782396793,-0.005673497325461357,0.00871262755934149
1761341812951034000,4.6620341796875,-0.06820669026374816,-0.01060065152933821,-0.00880031040937174
1761341812961100000,4.67210009765625,-0.07030278576016426,-0.010250650781579315,-0.003985210878378711
1761341812971167000,4.6821669921875,-0.06656126114428043,-0.009965623295120895,0.010847790124244056
1761341812981233200,4.692233154296875,-0.06117606097459793,-0.0036252595587633546,0.007211675811326131
1761341812991299000,4.702299072265625,-0.06850830355882644,-0.008224551781453192,-0.004733618092886172
1761341813001365000,4.712364990234375,-0.07000584864020347,-0.004136497016530484,0.003777185017731972
1761341813011431000,4.722430908203125,-0.07179799275398253,-0.004309405898023397,-0.0015530335617018863
1761341813021497900,4.732497802734375,-0.07134732637703418,-0.004785060585755854,-0.004664069121167995
1761341813031564000,4.74256396484375,-0.07179740823209285,-0.007268474899325519,-0.0045085954316658895
1761341813041630000,4.7526298828125,-0.06461714133918285,-0.006164495712798089,-0.00380081705506891
1761341813051696000,4.762696044921875,-0.07149813302457332,-0.008986256868951022,0.0056956497917650265
1761341813061762000,4.772761962890625,-0.06790799957811831,-0.0022697898291982707,-0.0007779255699366331
1761341813071829000,4.7828291015625,-0.06970481986701488,-0.005074015328660607,-0.0026538800762267783
1761341813081895200,4.792895263671875,-0.06596329525113105,-0.010038177074678242,0.010454662620811723
1761341813091961000,4.802961181640625,-0.06207271755337715,-0.011076744608487933,0.002615694357152097
1761341813102027000,4.813027099609375,-0.06611001024544239,-0.011031133634783327,-0.000593234919104725
1761341813112093000,4.823093017578125,-0.07403963420093058,-0.009149192345701157,-0.0001891841628588736
1761341813122159900,4.833159912109375,-0.0680523764848709,-0.0033819157895632087,-0.0013235219550319015
1761341813132226000,4.84322607421875,-0.06191489664316177,0.00014209361812099813,-0.00917126261361409
1761341813142292000,4.8532919921875,-0.07134440376758575,-0.0018139540867879987,-0.0010541897946270181
1761341813152358100,4.863358154296875,-0.07314414666593075,-0.008955624268669634,0.011550047508929856
1761341813162424000,4.873424072265625,-0.07479132935106754,-0.007667867746762931,-0.001075017953524366
1761341813172491000,4.883490966796875,-0.06791209123134613,-0.0020666867388412355,0.0019553809846285727
1761341813182557200,4.89355712890625,-0.0644715953886509,-0.008104158538486807,0.004760496966657229
1761341813192623000,4.903623046875,-0.07225450434982776,-0.007294431324489414,0.010118224607524462
1761341813202689300,4.913689208984375,-0.07524491833746433,-0.013772194237541406,-0.00837906648973003
1761341813212755000,4.9237548828125,-0.06626958472132682,-0.0019528328345157205,0.005288909321511164
1761341813222822000,4.93382177734375,-0.07105740351974964,-0.0010738397765904665,0.009965541096730157
1761341813232888000,4.94388818359375,-0.06836509569585322,-0.008956117459014057,0.0076138816703576594
1761341813242954000,4.9539541015625,-0.06881693111658096,-0.005389383154455572,0.0029591968654654917
1761341813253020200,4.964020263671875,-0.06537117457687855,-0.010064918951131404,-0.0006822603428503499
1761341813263086000,4.974086181640625,-0.06252981367111206,-0.010301832979544996,0.010149149468750692
1761341813273153000,4.984153076171875,-0.07405132463872433,-0.0033115357007831333,0.007405974540719762
1761341813283219200,4.99421923828125,-0.06597206307947635,-0.009746208390779793,-0.0008255138715961948
1761341813293285000,5.00428515625,-0.06911386823654174,-0.012928035030979662,0.0019241227632621303
1761341813303351000,5.01435107421875,-0.06806698953211307,-0.004946479958854616,0.0076754482650198035
1761341813313417000,5.0244169921875,-0.07569850732386112,-0.014107234878186136,0.0015627375383861363
1761341813323484000,5.03448388671875,-0.07749357404708862,-0.005666044671367854,-0.002683439530851319
1761341813333550000,5.044550048828125,-0.0674643474638462,0.0015168343037366865,0.0031714924758533014
1761341813343616000,5.054615966796875,-0.06671440587937831,-0.008880220944900066,0.006203206588258035
1761341813353682000,5.064681884765625,-0.057582420396804807,-0.009839165637549012,0.0014986547596519812
1761341813363748000,5.074748046875,-0.06207505564093589,-0.01406372453002259,0.002655473811691627
1761341813373815000,5.08481494140625,-0.06925824514329433,-0.005565707835741341,0.006364388499339111
1761341813383881200,5.094881103515625,-0.0608767857670784,-0.005779642847366631,-0.007798718451661989
1761341813393947100,5.104947021484375,-0.0765881496399641,-0.015070307756680994,-0.0018571402079658583
1761341813404013000,5.115012939453125,-0.06492226176559925,-0.00426001379834488,0.004678992695664056
1761341813414080300,5.125080322265625,-0.0632733255147934,-0.004813647359423339,0.0011843235468957573
1761341813424146200,5.135146240234375,-0.06207739372849464,-0.0077555094975978135,-0.004715178253897465
1761341813434212000,5.145212158203125,-0.06462064847052097,-0.0076084109107963736,0.007410084460256621
1761341813444278000,5.155278076171875,-0.07210311318039894,-0.002927285623550415,0.00790211489405483
1761341813454344000,5.165343994140625,-0.07255377955734729,-0.009274882818292826,-0.013751128616626373
1761341813464411100,5.1754111328125,-0.07150923894047737,-0.014085205709468572,-0.001375453071668744
1761341813474477000,5.18547705078125,-0.06118307523727417,-0.0044042445746250445,0.0032735235116444525
1761341813484543000,5.19554296875,-0.07001520099043845,-0.0018673830407671629,0.005929412881867028
1761341813494609200,5.205609130859375,-0.06268295840620994,-0.009984474126063287,0.000003940956178121268
1761341813504675000,5.215675048828125,-0.06971417221724986,-0.00823635181710124,0.011329906518803909
1761341813514742000,5.225741943359375,-0.06493044507205487,-0.00845251531843096,0.012888488471880554
1761341813524808200,5.23580810546875,-0.0770505064547062,-0.009996000167075544,0.0004327973601175472
1761341813534873900,5.245873779296875,-0.06523088932335376,-0.008559464557934552,-0.008132672246918082
1761341813544940000,5.25593994140625,-0.06852116304039954,-0.0016310352679342031,-0.00007108334167860447
1761341813555006000,5.266005859375,-0.06956745722293853,-0.0115690033711493,0.006454021277860738
1761341813565073000,5.276072998046875,-0.06747311529219151,-0.011540562727954238,-0.0021895276672206816
1761341813575139000,5.28613916015625,-0.06163607970178127,-0.005761467869859188,-0.0030318374099908394
1761341813585205000,5.296205078125,-0.0580447772115469,-0.010707198910042643,0.0007486035773297771
1761341813595271200,5.306271240234375,-0.06941840414106845,-0.007077591969724744,-0.008188078528852201
1761341813605337000,5.316337158203125,-0.06402852779626846,-0.006740596834011375,-0.007702455002954229
1761341813615404000,5.326404052734375,-0.06746785459518433,-0.013715459081623702,0.004322886434104293
1761341813625470200,5.33647021484375,-0.07016366955041885,-0.01305958898877725,0.0037820438559399918
1761341813635536000,5.346535888671875,-0.06223287655115127,-0.004704725358542054,0.0003668148852419108
1761341813645602000,5.35660205078125,-0.06881926920413971,-0.0006898454276844858,-0.004801477431016974
1761341813655668000,5.36666796875,-0.061789808958768844,-0.004566997388284653,-0.0052555139419855545
1761341813665735000,5.37673486328125,-0.07226677930951118,-0.007601159186102449,0.002242125504137948
1761341813675801000,5.386801025390625,-0.0728629916369915,-0.010094071980379522,0.008764261848456226
1761341813685867000,5.396866943359375,-0.06329144569337368,-0.002669821997452527,-0.0007025724785169586
1761341813695933200,5.40693310546875,-0.06194762986898422,-0.008805639605037868,0.0008794999480014667
1761341813705999000,5.4169990234375,-0.06838555396199227,-0.009406272379308939,0.0044619295786134895
1761341813716066000,5.427066162109375,-0.06584171469807625,-0.001625701505690813,0.006562057362752966
1761341813726132200,5.43713232421875,-0.07197510288655758,-0.007901402508001774,-0.0018611816288437693
1761341813736198000,5.447197998046875,-0.07616320222616195,-0.009785060830134898,0.009266475749551318
1761341813746264000,5.45726416015625,-0.07855857293009758,-0.012558032674808055,0.006533429489890113
1761341813756330000,5.467330078125,-0.07107493917644024,-0.00839917769599706,-0.0018062594040995463
1761341813766397000,5.47739697265625,-0.07167115150392055,-0.0030664748985320327,-0.004044617481995374
1761341813776463000,5.487463134765625,-0.06852817730307578,-0.002972092879656702,0.006584127630665898
1761341813786529000,5.497529052734375,-0.06074293025434017,-0.007084898493345826,0.003950299395201727
1761341813796595200,5.50759521484375,-0.06643032824099064,-0.009127638101018964,0.0008994421909097581
1761341813806661000,5.5176611328125,-0.061491118273138995,-0.005736169031821191,0.0025687864755047484
1761341813816728000,5.52772802734375,-0.06613280659914016,-0.012924966291058809,-0.001733267233124934
1761341813826794200,5.537794189453125,-0.07002922951579094,-0.001465597306843847,0.006744843750866129
1761341813836860000,5.54785986328125,-0.07032558211386203,-0.011292725446727126,0.007243084729742258
1761341813846926000,5.557926025390625,-0.06957388696372509,-0.008159541987534612,0.0011165646734647451
1761341813856992000,5.567991943359375,-0.06567980213463306,-0.0013052191133610903,0.0052806392500875515
1761341813867059000,5.578058837890625,-0.05804594625532627,-0.01006294618975371,-0.008141778001980855
1761341813877125000,5.588125,-0.0703179833292961,-0.011774572413228452,-0.0006201868581119925
1761341813887191000,5.59819091796875,-0.06717500912845134,0.00016523703169077635,-0.0008256097697187214
1761341813897257200,5.60825732421875,-0.06627542994022369,-0.010850936495978385,0.004783512516063637
1761341813907323100,5.6183232421875,-0.06866963160037994,-0.012234883401356637,0.008319627920072525
1761341813917390000,5.62839013671875,-0.06223989081382751,-0.007693623242527246,0.002256592420907691
1761341813927456300,5.638456298828125,-0.06986907051801682,-0.006114628689084202,-0.005262720000906847
1761341813937522200,5.648522216796875,-0.06941665057539939,-0.011211860496550798,-0.005357933136844076
1761341813947587800,5.658587890625,-0.06507365293502808,-0.009353775007091463,0.001422064125793986
1761341813957654000,5.668654052734375,-0.06313011765182018,-0.007507105960790067,0.0025733119535725564
1761341813967721000,5.678720947265625,-0.06178337921798229,-0.012993337085843085,-0.0013397241711616515
1761341813977787100,5.688787109375,-0.057146367067098615,-0.004705784804467111,0.0037340034631313753
1761341813987853000,5.69885302734375,-0.06567103430628776,-0.00548745496775955,-0.008756836593826301
1761341813997919000,5.7089189453125,-0.07809504707157612,-0.0003513707209378481,0.004748450335836969
1761341814007985200,5.718985107421875,-0.060438394349813455,-0.01243541094213724,-0.0024156554401386526
1761341814018052000,5.729052001953125,-0.06657645871341228,-0.011886234360467643,0.005603779390384442
1761341814028118000,5.739117919921875,-0.06358546020388603,-0.011373206804413347,-0.00028619196366053075
1761341814038184200,5.74918408203125,-0.06762450646162033,-0.006218746650684625,0.000038007622561417515
1761341814048249900,5.759249755859375,-0.0656733723938465,-0.01334286290956661,0.003976237554056569
1761341814058316000,5.76931591796875,-0.06297814196050167,-0.010112813213467598,0.002066846569045447
1761341814068383000,5.779383056640625,-0.06492459985315799,-0.01127661456214264,0.005034852362051606
1761341814078449000,5.789448974609375,-0.06746668555140495,-0.008202120753936469,-0.004670211167586967
1761341814088515000,5.79951513671875,-0.06492050819993019,-0.007250975775253027,0.002402672660979442
1761341814098581000,5.8095810546875,-0.06641162354052066,-0.003857716607768088,-0.0005007023640209809
1761341814108647200,5.819647216796875,-0.07254384268522263,-0.008651892081741244,0.002457380256592296
1761341814118714000,5.829714111328125,-0.06671031422615051,-0.009763013395108282,0.0001508249138481915
1761341814128780000,5.839780029296875,-0.0661135173767805,-0.006678546182159334,0.00649325730970595
1761341814138846200,5.84984619140625,-0.07149696398079394,-0.005177165175881237,-0.004897581049520522
1761341814148911900,5.859911865234375,-0.06536416031420231,-0.003460241722781211,0.0031980836552567777
1761341814158978000,5.86997802734375,-0.06790799957811831,-0.005241024192329496,-0.008054360013431868
1761341814169045000,5.880044921875,-0.07763327477872371,-0.0076986282112076875,0.004641697459155694
1761341814179111000,5.89011083984375,-0.06371463954150676,-0.011667805836815386,-0.0069607880564872176
1761341814189177000,5.900177001953125,-0.07089666000008582,-0.005741320130974054,0.0005495373412733898
1761341814199243000,5.910242919921875,-0.07343523856699466,-0.012573504238575697,0.006586406352720223
1761341814209309200,5.92030908203125,-0.0681961688697338,-0.008177771763969213,0.011198626555642112
1761341814219376000,5.930376220703125,-0.06759703393280506,-0.011055756619386374,0.0033285873002838343
1761341814229442000,5.940442138671875,-0.06056348203420639,-0.0018108122816309332,-0.0008005529602756723
1761341814239508200,5.95050830078125,-0.06565466769337654,-0.00735549559565261,0.0026920840616105122
1761341814249574000,5.960573974609375,-0.0661053340703249,-0.00744319214541465,0.0018451666423818095
1761341814259640000,5.97064013671875,-0.07029810958504676,-0.006289510331954806,-0.0029399030765285715
1761341814269707000,5.98070703125,-0.07164660158455372,-0.00816114942273125,-0.0007838940864196047
1761341814279773000,5.99077294921875,-0.07089549095630646,-0.003967387527320534,0.009245323363668284
1761341814289839000,6.000839111328125,-0.06476093372404575,-0.007387808696366846,0.00414632429080084
1761341814299905000,6.010905029296875,-0.06999824985563755,-0.00778897337578237,-0.004123642101534642
1761341814309971200,6.02097119140625,-0.07298866384327411,-0.007443046014942228,-0.00036596550187096
1761341814320038100,6.0310380859375,-0.05937105737924576,-0.007460033682361244,0.0023484536891337482
1761341814330104000,6.04110400390625,-0.06505377919077873,-0.0065645461473613975,0.0010005188120529055
1761341814340170200,6.051170166015625,-0.06939385422170162,-0.01104364605648443,0.0008784359354991466
1761341814350236000,6.06123583984375,-0.06669803926646709,-0.0027129487531259654,0.0012232718843733891
1761341814360302000,6.071302001953125,-0.06190671333670616,-0.003868913855217397,0.0024468634291552006
1761341814370369000,6.081369140625,-0.07447334944307804,-0.011028411954734474,0.0004913545803632587
1761341814380435000,6.09143505859375,-0.07432488088309765,-0.016971611333359032,-0.0016119378418195992
1761341814390501000,6.101501220703125,-0.07836626522839069,-0.00708053284548223,-0.005151286382530816
1761341814400567000,6.111567138671875,-0.06879179667532444,-0.005324848284572362,0.001120336666284129
1761341814410633000,6.121633056640625,-0.07388005972504616,-0.009135054222494363,0.0011700484263710677
1761341814420700200,6.1317001953125,-0.06296002178192138,-0.012419482720643282,0.002106274397135712
1761341814430766000,6.14176611328125,-0.06281389130949974,-0.010303732675686478,-0.0001322389443870634
1761341814440832300,6.151832275390625,-0.0668541066110134,-0.010642152583505957,0.003012726284144446
1761341814450898200,6.161898193359375,-0.05832651676237583,-0.0007179207446984946,-0.0024840810338500885
1761341814460963800,6.1719638671875,-0.06865092689990997,-0.010149565027281642,-0.008057547484361566
1761341814471031000,6.182031005859375,-0.07194412322640419,-0.0023244974248111247,0.0008382409224286675
1761341814481097000,6.192096923828125,-0.06521101557910441,-0.01534753552917391,-0.000996153164189309
1761341814491163100,6.2021630859375,-0.06596271072924137,-0.01489394654277712,0.007077546303952112
1761341814501229000,6.21222900390625,-0.07284779406785964,-0.01110189731605351,0.005191796489432454
1761341814511295000,6.222294921875,-0.07254618077278137,-0.005030450181569904,0.00750033829328604
1761341814521362200,6.232362060546875,-0.06595978811979293,-0.015441113830450921,0.007019276778073981
1761341814531428000,6.242427978515625,-0.05862520744800567,-0.013988686532434074,0.002560858897375874
1761341814541494000,6.252493896484375,-0.06206687233448028,-0.00968198404815048,-0.003916830950439907
1761341814551560200,6.262560302734375,-0.07104805116951465,-0.00983361267959699,-0.004035333630419336
1761341814561625900,6.2726259765625,-0.06865735664069653,-0.011754479473270475,0.0006449057408375665
1761341814571693000,6.282693115234375,-0.07285071667730808,-0.007572956004925072,0.002851046616141684
1761341814581759000,6.292759033203125,-0.06985913364589214,-0.010403411924187093,-0.00008018453016411513
1761341814591825000,6.302824951171875,-0.07464987505376339,-0.004739522677287459,-0.0015614269307116047
1761341814601891000,6.31289111328125,-0.07210603578984737,-0.011313530772738159,-0.003639160219952464
1761341814611957000,6.32295703125,-0.06761866124272346,-0.00850322259236127,0.011711037623765878
1761341814622024000,6.33302392578125,-0.06926701297163963,0.000470631452742964,0.006397856944100931
1761341814632090000,6.343090087890625,-0.07300970663130282,-0.0013930983262136578,-0.000107771223410964
1761341814642156000,6.353156005859375,-0.06657528966963291,-0.0062860397332347925,0.001942649367218837
1761341814652222200,6.36322216796875,-0.06702654056847095,-0.007088898815028369,0.0003389176647411659
1761341814662288000,6.373287841796875,-0.06732698481976986,-0.006557367487903684,0.0022537154772318897
1761341814672355000,6.38335498046875,-0.07107026300132274,-0.004226202860288322,0.006243387901596725
1761341814682421000,6.3934208984375,-0.06448211678266524,-0.00647376259136945,0.010490533085213973
1761341814692487000,6.40348681640625,-0.07091828731000423,-0.012236783097498118,-0.0025766912207473066
1761341814702553000,6.413552978515625,-0.062391866505146026,-0.010954360337834805,-0.0019891005911398677
1761341814712619000,6.423618896484375,-0.07331774966716766,-0.0036843876011669633,0.0011371416706126183
1761341814722686000,6.43368603515625,-0.07810849107503891,-0.012281225027423352,0.004220969562744721
1761341814732752100,6.443752197265625,-0.07586217345297336,-0.004129263558145612,0.00989589166031219
1761341814742818600,6.453818603515625,-0.05655716900229454,-0.012307692909240721,0.008024795992230065
1761341814752884700,6.463884765625,-0.0658347004354,-0.00946143663264811,0.00977878178639803
1761341814762950700,6.47395068359375,-0.0661404053837061,0.0017627353562042116,0.009091137448954395
1761341814773016600,6.4840166015625,-0.07631634696125984,-0.0043132600892335175,-0.0007987263293704018
1761341814783083500,6.49408349609375,-0.06718728408813476,-0.007231156829930842,-0.00022937460935208945
1761341814793149400,6.5041494140625,-0.06628653585612773,-0.009744071232620626,0.003560656190221198
1761341814803215600,6.514215576171875,-0.060599722391366954,-0.004641743124928325,-0.0018444725226378067
1761341814813281500,6.524281494140625,-0.06225041220784187,-0.008615268132090568,-0.0013908881028182804
1761341814823348500,6.534348388671875,-0.06300035379230975,-0.008078713569976389,0.005081417750404216
1761341814833414700,6.54441455078125,-0.04624444930255413,-0.0038955826664343472,0.002954516123770736
1761341814843480600,6.55448046875,-0.061360185369849204,-0.010692330134473741,0.0006431887077866121
1761341814853546500,6.56454638671875,-0.07063713228106498,-0.012217329478356987,0.00861298484345898
1761341814863612700,6.57461279296875,-0.0719827016711235,-0.004930533471051603,0.006972455661394633
1761341814873678300,6.58467822265625,-0.06689619218707084,-0.0012768150027841329,0.0032481105091748757
1761341814883745800,6.594745849609375,-0.06106441729366779,-0.004111453906819224,-0.004449586120271124
1761341814893811500,6.6048115234375,-0.06615384938716888,-0.008240900128055364,0.001740897983731702
1761341814903877400,6.61487744140625,-0.06361176368892192,-0.0069462206750176845,0.006456149302865378
1761341814913943600,6.624943603515625,-0.06495791760087014,-0.0013216587915085255,0.0071066582340048624
1761341814924010500,6.635010498046875,-0.05837269399166107,-0.00641651597879827,-0.001908952593593858
1761341814934076700,6.64507666015625,-0.0695949297517538,-0.006467223252728581,-0.002100086684944108
1761341814944142600,6.655142578125,-0.06495616403520107,-0.006175108438357711,-0.0027286623454885555
1761341814954208500,6.66520849609375,-0.06406184554398059,-0.011370156330801545,-0.005920508056203835
1761341814964274700,6.675274658203125,-0.07109539744257927,-0.011044906431809068,-0.012019806745415553
1761341814974340400,6.68534033203125,-0.07648468926548957,-0.0047832156885415315,0.0012049644761253147
1761341814984407600,6.695407470703125,-0.06616027912795543,-0.00868468010649085,0.012150127727352081
1761341814994473500,6.705473388671875,-0.06989888113439083,-0.009683427086565643,0.007852681695180944
1761341815004539400,6.715539306640625,-0.06570785918533802,-0.006464136246498674,0.0010369555320357904
1761341815014605600,6.72560546875,-0.06091711777746677,-0.004348678462486714,-0.003233648158982396
1761341815024671500,6.73567138671875,-0.06495733307898044,-0.010294014999270438,0.0022622412769822404
1761341815034738400,6.745738525390625,-0.06540449232459068,-0.009903974502068012,-0.00034691374152898786
1761341815044804600,6.7558046875,-0.06136427702307701,-0.0058651109074242406,-0.0036576000589411705
1761341815054870500,6.76587060546875,-0.07842179480791091,-0.010380999162979423,-0.0049346251242794095
1761341815064936700,6.775936767578125,-0.06450491313636303,-0.008031586492620408,-0.0040449280092492695
1761341815075003600,6.786003662109375,-0.0701917266011238,-0.003791081112343818,-0.0013362627055961637
1761341815085069600,6.796069580078125,-0.07378478265702725,-0.014179514663107693,-0.00039907775360625234
1761341815095135500,6.806135498046875,-0.07109364387691021,-0.009922058148030191,0.01179449638982769
1761341815105201400,6.816201416015625,-0.06405892293453216,-0.0030786402603611347,0.006995968967722728
1761341815115267600,6.826267578125,-0.07049392441809177,-0.008736026701238006,-0.0019996539511950686
1761341815125333500,6.83633349609375,-0.07468260827958584,0.0004994008895009756,-0.0021408388204406945
1761341815135400400,6.846400390625,-0.06809329301714896,-0.00808918016506359,-0.003107848088536411
1761341815145466600,6.856466552734375,-0.06599661299884318,-0.002008472011890262,-0.00011352511076256632
1761341815155532500,6.866532470703125,-0.06764028855264187,-0.0058368894599378105,-0.0038348060896387323
1761341815165598700,6.8765986328125,-0.06959025357663631,-0.005199651002325117,0.003444523563841358
1761341815175664600,6.88666455078125,-0.0700391663879156,-0.0019203736033290624,-0.001105326326820068
1761341815185731600,6.896731689453125,-0.0728846189469099,-0.013217976154573262,-0.0004116906400071457
1761341815195797500,6.906797607421875,-0.07438099498450755,-0.0013805676382035016,0.009495128839695825
1761341815205863400,6.916863525390625,-0.06360767203569412,-0.0016095358221791683,0.0009810058274073526
1761341815215929600,6.9269296875,-0.05956570316851139,-0.010801745325699448,-0.003417507692752406
1761341815225995500,6.93699560546875,-0.06405600032508373,-0.0026526699332520363,-0.0007277480189688503
1761341815236062500,6.9470625,-0.0692898093253374,-0.011189977458305656,-0.0012737736623268574
1761341815246128600,6.957128662109375,-0.06988426808714866,-0.0042007213591597975,-0.0008976018602726981
1761341815256194600,6.967194580078125,-0.0615039777547121,-0.006123834908846765,0.0007365569465095177
1761341815266260700,6.9772607421875,-0.06419862366616726,-0.0038738457586616273,0.0018301882689585908
1761341815276326700,6.98732666015625,-0.07242576926350593,-0.009980857396870851,0.0037599690214497965
1761341815286393600,6.9973935546875,-0.07062719540894032,-0.011858926228433847,-0.006824736020085402
1761341815296459800,7.007459716796875,-0.07361760939657688,-0.009404646677803248,0.003686985983629711
1761341815306525400,7.017525390625,-0.06778174284994602,-0.014922825577389448,-0.0016382139273919164
1761341815316591600,7.027591552734375,-0.0785579884082079,-0.011379106822237372,-0.002081240420578979
1761341815326657500,7.037657470703125,-0.06763795046508311,-0.006281034764554351,-0.002514526404463686
1761341815336724500,7.047724365234375,-0.06464286030232906,-0.007511252412945032,0.005669501570356078
1761341815346790700,7.057790771484375,-0.06897709011435509,-0.009700707014929503,0.007453581108688377
1761341815356856600,7.067856689453125,-0.06493453672528267,-0.002615461461711675,0.007154703193390742
1761341815366922500,7.077922607421875,-0.05699965207278728,-0.00595050590224564,0.0033824363793712106
1761341815376988700,7.08798876953125,-0.05445756637454033,-0.007516531376261263,0.005198682887945324
1761341815387055600,7.0980556640625,-0.06553133357465267,-0.006727993080765008,0.0010982526986394077
1761341815397121800,7.108121826171875,-0.06523147384524346,-0.00582845042515546,-0.00988231979268603
1761341815407187500,7.1181875,-0.05894610996544361,-0.007898498164862393,-0.001524999343883246
1761341815417253400,7.12825341796875,-0.06433306370079517,0.002880852665938437,0.003193950902833603
1761341815427319600,7.138319580078125,-0.0659784928202629,-0.0010214337359182536,0.010736329106404445
1761341815437386500,7.148386474609375,-0.06059270812869071,-0.0014153466906398533,0.010772998721827753
1761341815447452700,7.15845263671875,-0.061193596631288524,-0.0017515563750639556,-0.0036070754481013862
1761341815457518600,7.1685185546875,-0.07690320693850516,-0.007992587922792881,0.003886458645062521
1761341815467584500,7.17858447265625,-0.06358487568199635,-0.011340601442754268,0.005143541467492468
1761341815477650700,7.188650634765625,-0.065081251719594,-0.011338464284595102,0.0017742750969482585
1761341815487717600,7.198717529296875,-0.0626893881469965,-0.0044995947078801685,0.0006255936855915934
1761341815497783600,7.208783447265625,-0.07092062539756297,0.0015091259213164448,-0.002002512628561817
1761341815507849500,7.218849365234375,-0.057903907436132426,-0.0039245164999738335,0.0064068713676184415
1761341815517915400,7.228915283203125,-0.0588029021024704,-0.008660349382832645,0.001201530410023406
1761341815527981600,7.238981689453125,-0.06912614319622516,-0.004069971118960529,-0.0012246829567477107
1761341815538048500,7.249048583984375,-0.06747896051108837,-0.005432674306910485,0.003974114095629193
1761341815548114400,7.259114501953125,-0.05969955868124961,-0.0075981817777268585,0.005949903114046901
1761341815558180600,7.2691806640625,-0.0724228466540575,-0.016706128797587008,0.004610777164506726
1761341815568246500,7.27924658203125,-0.07616437126994133,-0.012470737983845173,0.0004281988168135285
1761341815578312700,7.289312744140625,-0.06493921290040015,0.0005660363849252462,0.007701208327361382
1761341815588379600,7.299379638671875,-0.06822656400799751,-0.008020370978862046,0.003034385560103692
1761341815598445600,7.309445556640625,-0.06163724874556064,-0.01111013542143628,0.009290148886083625
1761341815608511500,7.319511474609375,-0.06971651030480862,0.001999978178180754,0.004603539139544591
1761341815618577400,7.329577392578125,-0.07600128966271877,-0.002199829865526408,0.0026024375833570957
1761341815628643600,7.3396435546875,-0.06702537152469158,0.002067417391203344,-0.004178235532715916
1761341815638710500,7.34971044921875,-0.060141457229852674,-0.007072221674863249,-0.002614666877267882
1761341815648776400,7.3597763671875,-0.06417991896569729,-0.007131989038083702,-0.0006831645251484588
1761341815658842600,7.369842529296875,-0.06477730033695697,-0.0025809016049839553,0.0021092837715521455
1761341815668908500,7.379908447265625,-0.07106149517297744,-0.003469813268724829,-0.006313073870632797
1761341815678974700,7.389974609375,-0.06462649368941784,-0.008885408576671033,0.0037163764748955144
1761341815689041700,7.400041748046875,-0.06522445958256722,-0.012976641679368912,0.007665922384848818
1761341815699107600,7.410107666015625,-0.06403086588382721,-0.001743208671826869,-0.00023953524376265704
1761341815709173500,7.420173583984375,-0.06792436619102954,-0.012715780519787221,0.008859200989757664
1761341815719239400,7.430239501953125,-0.07451075884401798,-0.009789554342161864,0.011033773116441443
1761341815729305600,7.4403056640625,-0.06612988398969173,-0.013142481499258427,0.001429050989006646
1761341815739372000,7.4503720703125,-0.06552899548709393,-0.009840462545491754,0.002203825620631687
1761341815749438000,7.46043798828125,-0.06418050348758697,-0.007230353112332523,0.01233024723434355
1761341815759504000,7.47050390625,-0.07660217816531657,-0.005089760887064039,0.0004153713012812659
1761341815769569800,7.48056982421875,-0.06702829413414,-0.005834405241906642,0.0013644110878463834
1761341815779636000,7.490635986328125,-0.06792787332236766,-0.0008115903775207698,0.011401656580762937
1761341815789703000,7.500702880859375,-0.07032441307008266,-0.006439641126058995,0.003621405367553234
1761341815799768800,7.510768798828125,-0.06927636532187462,-0.008446761431079357,-0.0011282962104538455
1761341815809835000,7.5208349609375,-0.0691290658056736,-0.008049724937509745,0.0040904750508721915
1761341815819901000,7.53090087890625,-0.0736164403527975,-0.010680511832516639,0.004163741216482594
1761341815829967000,7.540967041015625,-0.06897884368002415,-0.004540182446595281,0.006586566182924435
1761341815840032800,7.55103271484375,-0.06418868679404259,-0.01253788493592292,0.0016280258935177697
1761341815850100000,7.561099853515625,-0.07017535998821259,-0.004226111528743058,0.004601228451449424
1761341815860166000,7.571165771484375,-0.06419102488160133,-0.007068805875070393,0.003223889383370988
1761341815870231800,7.581231689453125,-0.06374152754843235,-0.0011199987395666539,-0.0008486116193933412
1761341815880298000,7.591298095703125,-0.0667372022330761,0.0011245470505207777,-0.007485268588317558
1761341815890364000,7.601364013671875,-0.05237316131591797,-0.009310666517727077,-0.004113686963100918
1761341815900430800,7.611430908203125,-0.06973229239583015,-0.009102138333581387,0.002195920875389129
1761341815910497000,7.6214970703125,-0.06973170787394047,0.001197283493168652,0.0031929827884538096
1761341815920563000,7.63156298828125,-0.06688917792439461,-0.005852689817268401,-0.006167030163179151
1761341815930629000,7.641629150390625,-0.061956982219219206,-0.0029236506280489265,0.004528099283156916
1761341815940695000,7.651695068359375,-0.0588157615840435,-0.006944083516858518,0.005092222272208891
1761341815950762000,7.661761962890625,-0.06375380250811577,-0.003217263279762119,-0.0024220395151525733
1761341815960828000,7.671827880859375,-0.06525076306760311,-0.006492430759221315,-0.00004122705953195691
1761341815970893800,7.681893798828125,-0.06779635589718819,-0.011500248983874917,0.013976046246569602
1761341815980960000,7.6919599609375,-0.0700438425630331,-0.0028235147218219933,0.00805672093387693
1761341815991026000,7.70202587890625,-0.06540449232459068,-0.002864193792082369,0.012521162129985167
1761341816001092900,7.7120927734375,-0.06779694041907787,-0.011141955331806093,0.0021579497854458166
1761341816011159000,7.722158935546875,-0.06361351725459098,-0.0044556825009174645,0.0019463893939973785
1761341816021225000,7.732224853515625,-0.06690496001541614,-0.0023623817497864363,-0.002237339731166139
1761341816031291000,7.742290771484375,-0.08351356498897075,-0.00778053434100002,0.006271262289211154
1761341816041357000,7.752357177734375,-0.06525836185216903,-0.0050817237110808485,0.007276315712486393
1761341816051424000,7.762424072265625,-0.06540741493403911,-0.0018286584655754267,-0.0025705491743283344
1761341816061490000,7.772489990234375,-0.06271569163203239,0.0023971425359137354,0.005420408480381593
1761341816071555800,7.782555908203125,-0.06212064834833145,-0.005885459575708955,0.003852401111833751
1761341816081621800,7.792621826171875,-0.0667629211962223,-0.005270597346685827,-0.0012200935465982183
1761341816091688000,7.80268798828125,-0.06915829190015793,-0.003261942671705037,0.006276541252527385
1761341816101755000,7.8127548828125,-0.06826105079948902,-0.004307305272482335,0.0006806940068490802
1761341816111821000,7.822821044921875,-0.061979194051027295,-0.0056826852789148685,-0.0018667482865275815
1761341816121887000,7.832886962890625,-0.07036065342724322,0.0020284370876848695,-0.0009611275165807455
1761341816131953000,7.842952880859375,-0.06362988386750221,-0.00677121116798371,0.007325511449342593
1761341816142019000,7.85301904296875,-0.07066518933176993,-0.004426931330468505,0.00186446043131873
1761341816152086000,7.8630859375,-0.06811550484895706,-0.001389043205603957,-0.002581618557614274
1761341816162152000,7.87315185546875,-0.06287585062980651,-0.004034223952144384,0.0038031916752457617
1761341816172217900,7.8832177734375,-0.07484744345247744,-0.006868808057252317,-0.0026349790129344907
1761341816182283800,7.89328369140625,-0.06078267774283885,-0.005454703475628048,-0.00039120497440453615
1761341816192350000,7.903349853515625,-0.06990998705029487,-0.007598528837598859,0.002554904080624692
1761341816202417000,7.9134169921875,-0.07724398320019245,-0.0076727265849709505,0.0019186976694734767
1761341816212482800,7.92348291015625,-0.06751286278069019,-0.0006805478763766586,0.006047481737006455
1761341816222549000,7.933549072265625,-0.05464227529168129,-0.005256057364679873,0.008535015103267506
1761341816232615000,7.943614990234375,-0.06422142001986503,0.00021165172299370167,0.0033434058435028416
1761341816242681000,7.95368115234375,-0.07274784082472324,-0.007100059529859573,0.006682934662909246
1761341816252748000,7.963748046875,-0.05882979010939598,-0.006869282981287687,0.006567487023118883
1761341816262814000,7.97381396484375,-0.06765957777500152,-0.004729768468253314,0.0016044943208806215
1761341816272879900,7.9838798828125,-0.06691314332187176,-0.007808700989559292,-0.005314952511643059
1761341816282945800,7.99394580078125,-0.07514087344110011,-0.009109627520292997,-0.006801218147180043
1761341816293012000,8.004011962890624,-0.06600888795852661,-0.004052124935016036,0.003618715653545223
1761341816303078000,8.014077880859375,-0.057924950224161144,-0.003323975057248026,-0.0021595526540651917
1761341816313144000,8.02414404296875,-0.0594213262617588,-0.009323434667754918,-0.00025097451980691404
1761341816323211000,8.0342109375,-0.06585574322342873,-0.0024861725262366233,0.002324967782269232
1761341816333277000,8.04427685546875,-0.0667494771927595,-0.006664590722043067,0.006945901014609262
1761341816343343000,8.054343017578125,-0.059713002684712406,-0.005017316705361008,0.002425679077231325
1761341816353408800,8.06440869140625,-0.06509820285439491,-0.00031534955948591233,0.008428604719880968
1761341816363475000,8.074474853515625,-0.07317980250120162,-0.00233715597698465,0.007884433106891811
1761341816373542000,8.0845419921875,-0.07542261299192905,-0.005105579510703682,-0.005119557803706266
1761341816383607800,8.09460791015625,-0.06749181999266148,-0.00958875280674547,0.0067512734916526825
1761341816393674000,8.104674072265626,-0.06973755309283733,-0.011323120584990829,-0.0033827925723977385
1761341816403740000,8.114739990234375,-0.07213350831866264,0.0010442666222341358,0.00038881208791863173
1761341816413806000,8.12480615234375,-0.06495324142575264,-0.012052713501174003,-0.009408404970890842
1761341816423873000,8.134873046875,-0.0707891079723835,-0.00801364897713065,-0.0034600727594224735
1761341816433939000,8.14493896484375,-0.0642050534069538,-0.0011053308933973312,0.0002106014102231711
1761341816444005000,8.155005126953125,-0.06330255160927772,-0.006097458358574658,-0.004673284474085085
1761341816454071000,8.165071044921875,-0.062251581251621245,-0.008498144558444618,0.012525660208589397
1761341816464137000,8.175136962890624,-0.06269932501912116,-0.001371361418440938,0.00595671644732356
1761341816474204000,8.185203857421875,-0.06164952370524406,-0.0042089046656154094,-0.004544013804919086
1761341816484269800,8.195269775390624,-0.06150339323282242,0.0020379721010103822,0.0036962698352057486
1761341816494336000,8.2053359375,-0.06569149257242679,-0.005201514165848493,0.0014541762971086428
1761341816504402000,8.21540185546875,-0.07093173131346703,-0.015115754333604126,-0.0008498537284089252
1761341816514467800,8.2254677734375,-0.06659574793577194,-0.003414027960877865,-0.0016732121755369006
1761341816524535000,8.23553515625,-0.06943944692909718,-0.001143270017299801,-0.00940194783064071
1761341816534601000,8.24560107421875,-0.07108370700478553,-0.012596848581545054,-0.004469971321173943
1761341816544667000,8.2556669921875,-0.06016133097410201,-0.003992576767504215,0.009690244986419565
1761341816554733000,8.265733154296875,-0.0634556963443756,-0.011071904036588967,-0.0006090763756306842
1761341816564798700,8.275798828125,-0.07378010648190975,-0.005390698328707367,-0.004888831487484276
1761341816574866000,8.285865966796875,-0.06854688200354575,0.0021794994635507465,0.00043664241817314173
1761341816584931800,8.295931884765626,-0.06660510028600693,-0.00457008439451456,0.0013975096398498863
1761341816594997800,8.305997802734375,-0.06121522394120693,-0.007063855705317109,-0.004823538565775379
1761341816605064000,8.31606396484375,-0.0502934324324131,-0.009690751876495778,0.007124002094450407
1761341816615129900,8.3261298828125,-0.06495850212275982,-0.0024659151894971727,0.00489086361436639
1761341816625196000,8.336196044921875,-0.07244447396397591,-0.009758976540807634,-0.003242731081158854
1761341816635263000,8.346262939453124,-0.05613514419794082,-0.009116586984042078,0.004080378348543309
1761341816645329000,8.356328857421875,-0.06376900007724762,-0.0034958244928158817,-0.0033415883457520975
1761341816655395000,8.36639501953125,-0.06407061337232589,-0.011474767482746392,0.010806745727802627
1761341816665460700,8.376460693359375,-0.06437164214551448,-0.01408761686226353,0.004425013368017971
1761341816675527000,8.38652685546875,-0.07035480820834636,-0.0062581836119294165,0.0006938503159442916
1761341816685593900,8.39659375,-0.07140402500033378,-0.007405271287821233,0.009095265634800308
1761341816695659800,8.40665966796875,-0.07439794611930847,-0.008857789917383342,0.004267598883179016
1761341816705726000,8.416725830078125,-0.07320084528923035,-0.01038326418530196,0.004942233041999861
1761341816715793000,8.42679296875,-0.07200549802482127,-0.00942059316560626,-0.002437730274628848
1761341816725858800,8.43685888671875,-0.05883505080640316,-0.008157751889247446,-0.0007455896363360807
1761341816735925000,8.446925048828126,-0.06662146689891815,-0.002568498781137168,0.005951090424135327
1761341816745992700,8.45699267578125,-0.06048749418854713,-0.007768533375952393,-0.0018836537555558606
1761341816756058400,8.467058349609376,-0.06946750397980213,-0.010382770994957536,0.00945746827700641
1761341816766124500,8.47712451171875,-0.07380699448883533,-0.004226714316941798,0.0096445792137878
1761341816776190500,8.4871904296875,-0.07396130826771259,-0.009688011930137873,-0.00401319943042472
1761341816786256600,8.497256591796875,-0.0717214203864336,-0.006942530880589038,-0.0004230705505469814
1761341816796323600,8.507323486328126,-0.05721007995307445,-0.0025669096122495827,0.0008742392509942874
1761341816806389500,8.517389404296875,-0.07950491386950015,-0.005162058938294649,-0.004987720718118362
1761341816816455700,8.52745556640625,-0.07142389874458313,-0.005619483849592506,0.0031713874445762485
1761341816826521600,8.537521484375,-0.06708207014799118,-0.00735401602461934,-0.0014056518471101298
1761341816836587800,8.547587890625,-0.0607984598338604,-0.003444404832832515,-0.0009260379368904978
1761341816846654700,8.55765478515625,-0.06484452035427093,-0.0043666159779764705,0.008615094602154568
1761341816856720400,8.567720458984375,-0.10077624995708465,-0.004904777975287288,-0.004181692431704141
1761341816866786600,8.57778662109375,-0.0009580313771963119,-0.009531560993101448,0.018772262980579397
1761341816876852500,8.5878525390625,-0.08820143054425716,0.004369502054806799,-0.004124011994292959
1761341816886918700,8.597918701171874,-0.0733855542063713,-0.012853691153135149,-0.001596530210133642
1761341816896985600,8.607985595703125,-0.0557265633970499,-0.0063978478109464046,0.004634993723733351
1761341816907051500,8.618051513671874,-0.08504676590561866,-0.008175926866754888,0.0036070389154832807
1761341816917117700,8.62811767578125,-0.06678630207180976,-0.00741740011703223,-0.001496243606857024
1761341816927183600,8.63818359375,-0.0705278266876936,0.004745751488674432,-0.0007082167680142447
1761341816937249500,8.64824951171875,-0.06753741270005703,0.000810275203268975,0.004855203212518245
