time,seconds_elapsed,z,y,x
1761341808370908700,0.08190869140625,0.0009521651081740856,0.0019046785309910774,-0.00037765782326459885
1761341808380974800,0.091974853515625,-0.0010521300137043,-0.0007446333765983582,0.0022096028551459312
1761341808391041800,0.102041748046875,0.0003998391330242157,0.0009312611073255539,-0.0032485886476933956
1761341808401107700,0.112107666015625,0.0010368674993515015,0.0007698731496930122,0.0007922258228063583
1761341808411173600,0.122173583984375,0.0013871658593416214,0.0002670399844646454,-0.0006091240793466568
1761341808421239600,0.132239501953125,-0.0007731905207037926,-0.0006195269525051117,-0.0009801024571061134
1761341808431305700,0.1423056640625,-0.000531722791492939,0.0009207054972648621,0.002292199060320854
1761341808441372700,0.15237255859375,-0.0025115162134170532,-0.000452420674264431,-0.0014985441230237484
1761341808451438600,0.1624384765625,0.0012758895754814148,-0.0010393010452389717,0.001927994191646576
1761341808461504800,0.1725048828125,-0.0024008704349398613,0.0012566102668642998,-0.0003804336301982403
1761341808471570700,0.18257080078125,0.00017749285325407982,-0.0005244854837656021,0.0008633323013782501
1761341808481636900,0.192636962890625,-0.0016134828329086304,0.001509902998805046,0.0008707894012331963
1761341808491703800,0.202703857421875,0.0006004208698868752,-0.0010150102898478508,-0.002810838632285595
1761341808501769700,0.212769775390625,-0.002804163843393326,-0.00118997972458601,0.00029760319739580154
1761341808511835600,0.222835693359375,-0.0011089579202234745,0.0012643570080399513,-0.0011226688511669636
1761341808521901600,0.232901611328125,0.0002604397013783455,0.0017242850735783577,-0.0013735387474298477
1761341808531968500,0.242968505859375,-0.00006539840251207352,-0.0002453317865729332,-0.00012858444824814796
1761341808542034700,0.25303466796875,-0.0004510236904025078,0.00035920552909374237,0.0022773155942559242
1761341808552100600,0.2631005859375,-0.0006982693448662758,0.0017456896603107452,0.0017114104703068733
1761341808562166800,0.273166748046875,0.0010218662209808826,0.0019704606384038925,0.0008794395253062248
1761341808572232700,0.283232666015625,0.0003204816021025181,0.0006278939545154572,0.0008375290781259537
1761341808582299600,0.293299560546875,-0.0005418499931693077,0.00028194859623908997,0.0018940046429634094
1761341808592365800,0.30336572265625,0.0004408261738717556,0.000006216578185558319,-0.0006630891002714634
1761341808602431700,0.313431640625,-0.0014095380902290344,-0.00009338557720184326,0.0010479921475052834
1761341808612497700,0.32349755859375,-0.0020722742192447186,0.0009037768468260765,0.0003550266847014427
1761341808622563600,0.3335634765625,-0.0016677402891218662,0.000029461458325386047,-0.00011901557445526123
1761341808632630500,0.343630615234375,0.0033745563123375177,0.00019423849880695343,-0.0002658329904079437
1761341808642696700,0.35369677734375,0.000742021482437849,0.00012313202023506165,-0.0008274936117231846
1761341808652762600,0.3637626953125,0.0006899740546941757,-0.0011191265657544136,-0.002876411657780409
1761341808662828800,0.373828857421875,-0.0017441553063690662,0.0005762418732047081,-0.0016508251428604126
1761341808672895700,0.383895751953125,-0.0009628608822822571,-0.0030827829614281654,-0.00043167686089873314
1761341808682961700,0.393961669921875,-0.0006022690795361996,-0.0008350750431418419,-0.0018290374428033829
1761341808693027800,0.40402783203125,-0.0008019455708563328,0.0015204092487692833,0.000058317556977272034
1761341808703093800,0.41409375,0.0005040685646235943,0.001697508618235588,-0.000480706337839365
1761341808713159700,0.42415966796875,-0.00039196014404296875,0.000499330461025238,-0.0019645770080387592
1761341808723227000,0.434226806640625,-0.0004108683206140995,0.000708388164639473,-0.0003158138133585453
1761341808733293300,0.444293212890625,-0.0027312380261719227,0.000875452533364296,-0.0010055052116513252
1761341808743359000,0.45435888671875,0.0002397848293185234,0.003083213232457638,0.0017362190410494804
1761341808753425200,0.464425048828125,0.0017865262925624847,-0.002576800063252449,-0.002942262217402458
1761341808763491000,0.474490966796875,0.00032365182414650917,0.00006905104964971542,-0.0022748736664652824
1761341808773558000,0.48455810546875,0.0014435392804443836,0.00019115861505270004,-0.0030315080657601357
1761341808783624200,0.494624267578125,0.0001308671198785305,0.0001653255894780159,0.001328885555267334
1761341808793690000,0.504690185546875,-0.0015947427600622177,-0.0006135404109954834,-0.002473222091794014
1761341808803756300,0.51475634765625,0.001369355246424675,0.00019313115626573563,-0.0010404414497315884
1761341808813823200,0.5248232421875,0.0000168532133102417,-0.0007141102105379105,-0.002838709857314825
1761341808823889200,0.53488916015625,-0.0002784915268421173,0.00017485301941633224,0.00007851701229810715
1761341808833955300,0.544955322265625,-0.0008523929864168167,0.003736601211130619,-0.002538631670176983
1761341808844021000,0.55502099609375,-0.00008087558671832085,0.0017749164253473282,-0.00039372174069285393
1761341808854087200,0.565087158203125,-0.0004974999465048313,-0.0002760794013738632,0.0010065427049994469
1761341808864154000,0.575154052734375,-0.0014325357042253017,-0.0011557219550013542,0.0005559362471103668
1761341808874220000,0.585219970703125,-0.0019025132060050964,0.00200455728918314,-0.0015625827945768833
1761341808884286200,0.5952861328125,-0.000447095837444067,-0.0010088086128234863,-0.001854731235653162
1761341808894352100,0.60535205078125,-0.0004074140451848507,-0.0007037920877337456,-0.00048535270616412163
1761341808904418300,0.615418212890625,-0.002206645905971527,-0.0002316134050488472,0.0006851069629192352
1761341808914485200,0.6254853515625,0.0017401226796209812,-0.000508052296936512,-0.0005949237383902073
1761341808924551200,0.63555126953125,-0.0006705708801746368,0.0009100809693336487,0.00010815076529979706
1761341808934617300,0.645617431640625,-0.0014080069959163666,0.0010820860043168068,0.0022209174931049347
1761341808944683000,0.65568310546875,-0.0011544739827513695,0.00048367399722337723,-0.0014257486909627914
1761341808954750200,0.665750244140625,-0.00008521648123860359,-0.0009254952892661095,0.001906055025756359
1761341808964816100,0.675816162109375,-0.0002612518146634102,0.0007288604974746704,-0.0014364784583449364
1761341808974882000,0.685882080078125,0.0008904645219445229,0.0018578125163912773,0.00021177344024181366
1761341808984948200,0.6959482421875,-0.0011183577589690685,0.001996031031012535,-0.0029105162248015404
1761341808995014100,0.70601416015625,0.00009851111099123955,-0.0022041089832782745,-0.0025346134789288044
1761341809005081000,0.7160810546875,0.00016375863924622536,0.002480391412973404,-0.0012789331376552582
1761341809015147300,0.726147216796875,-0.001471277792006731,0.00044971611350774765,0.0005448367446660995
1761341809025213200,0.736213134765625,-0.00014955084770917892,0.0005615688860416412,-0.0010248301550745964
1761341809035279400,0.746279296875,0.00029159802943468094,-0.0013030776754021645,0.00017219316214323044
1761341809045345000,0.756344970703125,0.0005853446200489998,0.0017710085958242416,0.0012161517515778542
1761341809055412200,0.766412109375,-0.00022141728550195694,0.001262681558728218,0.0021879207342863083
1761341809065478100,0.77647802734375,0.0007780669257044792,-0.0006694411858916283,0.0005593970417976379
1761341809075544000,0.7865439453125,0.0009153401479125023,0.0014324793592095375,0.00045179110020399094
1761341809085610200,0.7966103515625,-0.0034114979207515717,-0.0022642547264695168,-0.0005823145620524883
1761341809095676200,0.80667626953125,0.0004657725803554058,-0.0008472856134176254,-0.0011338787153363228
1761341809105743000,0.8167431640625,0.0016748476773500443,0.001117061823606491,0.001964709721505642
1761341809115809300,0.826809326171875,0.0003374735824763775,-0.0011840471997857094,-0.00117918336763978
1761341809125875200,0.836875244140625,-0.0010015638545155525,0.0007448801770806313,-0.0010617380030453205
1761341809135941400,0.84694140625,0.0012528710067272186,-0.0003470005467534065,-0.0020317616872489452
1761341809146008300,0.85700830078125,0.0023652734234929085,-0.00021277740597724915,0.0015424666926264763
1761341809156074200,0.86707421875,-0.0009541995823383331,-0.00043431390076875687,0.0000014426186680793762
1761341809166140200,0.87714013671875,-0.0020330455154180527,0.0007049860432744026,0.0007298169657588005
1761341809176206000,0.8872060546875,-0.002490496728569269,0.001196693629026413,-0.0013138270005583763
1761341809186272300,0.897272216796875,-0.00015037646517157555,-0.002690722234547138,0.002002607099711895
1761341809196339200,0.907339111328125,0.0013240082189440727,0.002760983072221279,-0.0013998649083077908
1761341809206405000,0.917405029296875,0.0008174749091267586,0.00001419801265001297,0.0030864961445331573
1761341809216471300,0.92747119140625,-0.0017183399759232998,-0.0007812054827809334,0.0019590724259614944
1761341809226537200,0.937537109375,-0.000089284498244524,0.0015754252672195435,0.00030764658004045486
1761341809236603100,0.94760302734375,0.001367118675261736,0.00028746016323566437,0.0007982645183801651
1761341809246670300,0.95767041015625,0.0005473974160850048,-0.0006869900971651077,-0.001910170540213585
1761341809256736300,0.967736328125,-0.0005071032792329788,0.0002991706132888794,-0.0006862310692667961
1761341809266802200,0.97780224609375,0.001389866229146719,-0.000498446635901928,0.0010560089722275734
1761341809276868000,0.9878681640625,0.0014069704338908195,0.0007530134171247482,-0.0008826367557048798
1761341809286935000,0.99793505859375,0.0010652868077158928,-0.0016877735033631325,-0.00006398092955350876
1761341809297001200,1.008001220703125,-0.0006042313762009144,0.0014119409024715424,0.005512993782758713
1761341809307067100,1.018067138671875,0.00008552707731723785,-0.0001627858728170395,0.0007547242566943169
1761341809317133300,1.02813330078125,-0.0003408188931643963,0.00016124173998832703,-0.00138436583802104
1761341809327199200,1.03819921875,-0.00036292290315032005,-0.003209521062672138,0.0025070449337363243
1761341809337266200,1.04826611328125,-0.0015465384349226952,0.00002049282193183899,-0.001116662286221981
1761341809347332400,1.058332275390625,0.0008913194760680199,-0.0011875173076987267,-0.0001336894929409027
1761341809357398300,1.068398193359375,-0.000127334613353014,0.001216377131640911,-0.0005886824801564217
1761341809367464200,1.078464111328125,0.0013557798229157925,0.0016773706302046776,-0.0008022678084671497
1761341809377530000,1.088530029296875,-0.002738473005592823,-0.0010595666244626045,-0.0008145770989358425
1761341809387597000,1.09859716796875,-0.0014740042388439178,-0.0010180212557315826,0.0016416562721133232
1761341809397663200,1.108663330078125,0.000654843170195818,-0.0003160228952765465,-0.0006975899450480938
1761341809407729200,1.118729248046875,0.0004260772839188576,0.001033133827149868,-0.002341026905924082
1761341809417795000,1.128795166015625,-0.0020263646729290485,0.0011107679456472397,0.0009959973394870758
1761341809427862300,1.1388623046875,0.0019297613762319088,-0.0011595766991376877,0.002234633080661297
1761341809437928200,1.14892822265625,0.0002794414758682251,0.002559877000749111,0.0017961394041776657
1761341809447994000,1.158994140625,-0.00014133797958493233,-0.00008517410606145859,-0.001932285726070404
1761341809458060300,1.169060302734375,0.0004627108573913574,-0.000720650888979435,-0.0002582971937954426
1761341809468126200,1.179126220703125,-0.00040574604645371437,0.0012399684637784958,-0.0016724355518817902
1761341809478193400,1.189193359375,-0.0020735240541398525,-0.0012163696810603142,-0.0029029669240117073
1761341809488259000,1.199259033203125,0.0006764563731849194,0.0015354743227362633,0.00048510637134313583
1761341809498325000,1.209324951171875,0.0014529922045767307,-0.0007518194615840912,0.001188310794532299
1761341809508391200,1.21939111328125,0.0023259762674570084,0.0011350298300385475,0.0025800783187150955
1761341809518457000,1.22945703125,-0.000046484172344207764,-0.00033453386276960373,0.0010611973702907562
1761341809528524300,1.239524169921875,0.0009378199465572834,0.0004641478881239891,-0.0009212596341967583
1761341809538590200,1.249590087890625,0.00034258700907230377,0.0032930318266153336,-0.0018363837152719498
1761341809548656000,1.25965625,-0.0007642223499715328,-0.0014700312167406082,-0.0012409007176756859
1761341809558722300,1.269722412109375,0.0012670955620706081,0.0022942926734685898,-0.0013584373518824577
1761341809568789200,1.279789306640625,0.0025611254386603832,0.002815207466483116,-0.00030595622956752777
1761341809578855200,1.289855224609375,-0.00010422291234135628,0.0005934722721576691,-0.00151364179328084
1761341809588921000,1.299921142578125,0.0013607819564640522,0.0008014645427465439,0.000821949914097786
1761341809598987000,1.309987060546875,0.0009141191840171814,0.0003492319956421852,-0.0005515883676707745
1761341809609053200,1.32005322265625,0.0026153463404625654,-0.0018404191359877586,-0.001755337230861187
1761341809619120000,1.3301201171875,0.00007861806079745293,0.0011762725189328194,-0.0007774927653372288
1761341809629186000,1.34018603515625,0.0023830514401197433,0.0016449885442852974,-0.00022302288562059402
1761341809639252200,1.350252197265625,-0.0002708123065531254,0.0007948288694024086,0.002081417478621006
1761341809649318100,1.360318115234375,0.00009723659604787827,0.0012744646519422531,0.0009138872846961021
1761341809659384300,1.37038427734375,0.0005224156193435192,-0.0014249272644519806,0.0033060340210795403
1761341809669451300,1.380451171875,0.0015229652635753155,-0.0010124044492840767,0.0005003940314054489
1761341809679517200,1.39051708984375,-0.0005406835116446018,-0.0022672712802886963,0.00011663511395454407
1761341809689583400,1.400583251953125,0.0005999482236802578,0.0030273599550127983,-0.00002957228571176529
1761341809699649000,1.41064892578125,0.0019716592505574226,0.0010395525023341179,-0.0013666613958775997
1761341809709715200,1.420715087890625,0.00014819297939538956,0.0006850855425000191,-0.0010452177375555038
1761341809719782100,1.4307822265625,-0.00006306031718850136,0.00014602858573198318,-0.0002584909088909626
1761341809729848000,1.44084814453125,0.0003254949115216732,-0.002298487350344658,-0.0013487888500094414
1761341809739914000,1.4509140625,0.0004149237647652626,-0.0006432551890611649,0.0026111900806427
1761341809749980000,1.46097998046875,-0.0013025486841797829,0.0014896700158715248,0.0011595012620091438
1761341809760046000,1.471046142578125,-0.0007284916937351227,0.0005150064826011658,-0.004125471226871014
1761341809770113000,1.481113037109375,-0.00033407751470804214,-0.0002005845308303833,-0.0011413991451263428
1761341809780179000,1.491178955078125,-0.0015985304489731789,-0.0006406772881746292,-0.0017158533446490765
1761341809790244900,1.501244873046875,0.0014755562879145145,0.0007132738828659058,-0.00043167732656002045
1761341809800310800,1.511310791015625,-0.00220504030585289,-0.0005199285224080086,-0.0006373170763254166
1761341809810377700,1.521377685546875,-0.0011416398920118809,0.0004441356286406517,-0.002441608812659979
1761341809820444000,1.53144384765625,-0.0015875604003667831,0.0038518058136105537,0.0010288376361131668
1761341809830509800,1.541509765625,0.0012367218732833862,-0.00092324148863554,-0.0010175351053476334
1761341809840576000,1.551575927734375,0.00017731264233589172,0.0005518104881048203,-0.0009743780829012394
1761341809850642000,1.561641845703125,-0.0013239113613963127,0.0037665115669369698,-0.0009703831747174263
1761341809860708900,1.571708984375,-0.00041314028203487396,-0.0011173412203788757,-0.0017814603634178638
1761341809870775000,1.581775146484375,0.000655053649097681,0.0001649707555770874,-0.0008328426629304886
1761341809880841000,1.591841064453125,0.0009916196577250957,0.0018778014928102493,-0.003908797167241573
1761341809890907100,1.6019072265625,-0.0001543387770652771,0.0009899036958813667,-0.0019050347618758678
1761341809900972800,1.611972900390625,0.0003362665884196758,0.0021587293595075607,-0.0013274266384541988
1761341809911039700,1.622039794921875,-0.000003020279109477997,-0.0009252121672034264,0.0002856496721506119
1761341809921106000,1.63210595703125,-0.00008737295866012573,0.0005989857017993927,0.00022971350699663162
1761341809931171800,1.642171875,0.0014071930199861526,0.002413930371403694,-0.0028390465304255486
1761341809941238000,1.652238037109375,-0.003789002075791359,-0.00042902305722236633,-0.0033758478239178658
1761341809951304000,1.662303955078125,-0.0001066490076482296,-0.0006380816921591759,-0.00359742296859622
1761341809961371000,1.672370849609375,0.0012949579395353794,-0.0008501606062054634,-0.00255270441994071
1761341809971437000,1.68243701171875,0.0019133440218865871,-0.00005627237260341644,0.002138719893991947
1761341809981503000,1.6925029296875,-0.004006970673799515,0.0015550926327705383,0.001543911173939705
1761341809991569200,1.702569091796875,-0.0022532790899276733,0.0017010336741805077,0.0014216722920536995
1761341810001636000,1.712635986328125,0.0011042538098990917,0.0012195035815238953,-0.0014981073327362537
1761341810011701800,1.72270166015625,-0.0004803272895514965,-0.0009360592812299728,-0.0017806687392294407
1761341810021768000,1.732767822265625,-0.00008199550211429596,0.0018558930605649948,-0.0008229915983974934
1761341810031833900,1.742833740234375,0.0003688777796924114,0.001716342754662037,0.00011816993355751038
1761341810041900000,1.752900146484375,0.00047203246504068375,-0.00022076070308685303,0.0019438769668340683
1761341810051967000,1.762967041015625,0.00004113325849175453,-0.00007481873035430908,-0.001908917911350727
1761341810062033000,1.773032958984375,-0.0026897224597632885,-0.003498125821352005,-0.000019973143935203552
1761341810072099000,1.78309912109375,0.00006585055962204933,-0.0012096716091036797,0.0013241246342658997
1761341810082165000,1.7931650390625,-0.0037502972409129143,-0.0011569121852517128,-0.0005738139152526855
1761341810092231000,1.80323095703125,-0.0007909927517175674,-0.0016527920961380005,0.0015058480203151703
1761341810102298000,1.813298095703125,0.00030062487348914146,-0.0009541688486933708,0.00017132051289081573
1761341810112363800,1.82336376953125,-0.0014674477279186249,-0.0011059688404202461,-0.00012109475210309029
1761341810122430000,1.833429931640625,-0.0016535776667296886,0.00042722560465335846,0.001969653181731701
1761341810132496000,1.843495849609375,-0.0020650364458560944,-0.0028956010937690735,-0.002080748323351145
1761341810142561800,1.853561767578125,0.0011561373248696327,-0.0022660456597805023,-0.0010379105806350708
1761341810152629000,1.86362890625,-0.00020580319687724113,0.00030869897454977036,-0.0004323078319430351
1761341810162695000,1.87369482421875,0.001125334296375513,0.00008919835090637207,0.0005133459344506264
1761341810172761000,1.883760986328125,-0.003682736773043871,0.0005371421575546265,-0.00019904924556612968
1761341810182827000,1.893826904296875,0.00008803606033325195,0.0011960305273532867,0.0016765594482421875
1761341810192893000,1.903892822265625,-0.003500572871416807,-0.0021283933892846107,0.0016967998817563057
1761341810202960100,1.913960205078125,-0.0005695382133126259,-0.0012136157602071762,-0.0010636979714035988
1761341810213026000,1.924026123046875,-0.003175441175699234,-0.0020394623279571533,-0.0035388399846851826
1761341810223092000,1.934092041015625,0.0013289251364767551,-0.001429523341357708,0.0009736167266964912
1761341810233158000,1.944157958984375,0.0013534263707697392,0.0017550848424434662,-0.0000040298327803611755
1761341810243224800,1.954224853515625,0.00022908998653292656,-0.0017985450103878975,0.00030267518013715744
1761341810253291000,1.964291015625,0.0026805296074599028,-0.0032089557498693466,-0.0017495565116405487
1761341810263357000,1.97435693359375,-0.0006380169652402401,0.00032028183341026306,0.0014362465590238571
1761341810273422800,1.9844228515625,0.00048450520262122154,0.00035250652581453323,-0.003824828192591667
1761341810283489000,1.994489013671875,-0.0008862167596817017,0.0004447661340236664,-0.001624375581741333
1761341810293556000,2.004555908203125,-0.0002523842267692089,0.00023490935564041138,0.0010747378692030907
1761341810303622000,2.014621826171875,-0.0011365460231900215,-0.00006037019193172455,0.0012805191799998283
1761341810313688000,2.02468798828125,0.0004000980406999588,-0.00072456244379282,0.0013209991157054901
1761341810323753700,2.034753662109375,-0.0007625124417245388,-0.0014608167111873627,-0.0006119045428931713
1761341810333820000,2.04481982421875,0.001225271262228489,0.0008782371878623962,-0.00013892725110054016
1761341810343886800,2.054886962890625,0.0012938729487359524,-0.0027015358209609985,-0.0022404356859624386
1761341810353952800,2.064952880859375,0.0004858695901930332,0.002570989541709423,-0.0002955291420221329
1761341810364019000,2.07501904296875,-0.00034023402258753777,-0.00022392533719539642,0.0003704102709889412
1761341810374084900,2.0850849609375,0.0008581886067986488,0.0015803659334778786,0.0018487311899662018
1761341810384151000,2.095151123046875,0.0005628266371786594,0.0014436636120080948,-0.0031793713569641113
1761341810394218000,2.105218017578125,0.0015585822984576225,-0.0011286837980151176,0.0012561231851577759
1761341810404284000,2.115283935546875,0.00034363334998488426,0.0006100907921791077,-0.00006987759843468666
1761341810414350000,2.12535009765625,0.0008253990672528744,0.0020138435065746307,0.000011082738637924194
1761341810424415700,2.135415771484375,-0.0009837946854531765,0.0004710294306278229,-0.0015153535641729832
1761341810434482000,2.14548193359375,-0.0003299885429441929,0.0012332266196608543,0.0007033259607851505
1761341810444548900,2.155548828125,-0.0018654637970030308,0.0015410622581839561,0.00035460246726870537
1761341810454614800,2.16561474609375,0.00037878192961215973,-0.0015593897551298141,-0.00005152914673089981
1761341810464681000,2.175680908203125,-0.0009237793274223804,-0.0013868734240531921,-0.0011113113723695278
1761341810474747000,2.185746826171875,0.0002661207690834999,-0.0015237601473927498,0.00053052743896842
1761341810484813800,2.195813720703125,-0.000381693709641695,0.0008060233667492867,-0.0017983797006309032
1761341810494880000,2.2058798828125,0.000004464760422706604,0.0018766140565276146,0.0012661200016736984
1761341810504946000,2.21594580078125,-0.0004186062142252922,0.001511959359049797,-0.0012834491208195686
1761341810515012000,2.22601220703125,-0.0025003990158438683,-0.00032828468829393387,-0.0035029277205467224
1761341810525077800,2.236077880859375,-0.0006839921697974205,0.00030803680419921875,0.000079314224421978
1761341810535145000,2.24614501953125,-0.0004499000497162342,-0.0001407051458954811,-0.0007752939127385616
1761341810545211000,2.2562109375,-0.001699057873338461,0.0005127992480993271,-0.00017854757606983185
1761341810555276800,2.26627685546875,-0.001667100004851818,-0.0008872244507074356,-0.002284575253725052
1761341810565343000,2.276343017578125,0.0010842573828995228,-0.00010302942246198654,0.0023537753149867058
1761341810575409000,2.286408935546875,-0.0016891583800315857,-0.003152082674205303,-0.0021083508618175983
1761341810585475800,2.296475830078125,-0.0017297747544944286,-0.0028423042967915535,0.001892204862087965
1761341810595542000,2.3065419921875,-0.0014341636560857296,0.0005385782569646835,0.0005302638746798038
1761341810605608000,2.31660791015625,-0.00011753663420677185,-0.0012485012412071228,0.0020885071717202663
1761341810615674000,2.326674072265625,-0.0025487360544502735,-0.00036912597715854645,0.002987057436257601
1761341810625740000,2.336739990234375,-0.0026605729945003986,0.0005437871441245079,0.00010050646960735321
1761341810635807000,2.346806884765625,0.0005698418244719505,0.0017323559150099754,-0.0011903275735676289
1761341810645873000,2.356872802734375,0.0016901199705898762,-0.0018585706129670143,0.0012557846494019032
1761341810655938800,2.366938720703125,-0.0004396098665893078,0.0012639854103326797,-0.0002353196032345295
1761341810666005000,2.3770048828125,-0.00038661761209368706,-0.0013896487653255463,-0.001294618472456932
1761341810676071000,2.38707080078125,0.00020993035286664963,0.0004210351034998894,0.0011269934475421906
1761341810686137900,2.397137939453125,-0.001700754277408123,-0.00002147909253835678,-0.0005535879172384739
1761341810696204000,2.4072041015625,-0.00022696051746606827,-0.0009051160886883736,-0.001052664127200842
1761341810706270000,2.41727001953125,-0.0022371523082256317,-0.0009414507076144218,-0.0002450537867844105
1761341810716336000,2.427336181640625,-0.0007154224440455437,0.0007621739059686661,0.0008055632933974266
1761341810726403000,2.437403076171875,0.0011225510388612747,-0.002328740432858467,-0.002793021034449339
1761341810736469000,2.447468994140625,0.001060765702277422,0.0018084803596138954,0.003333847038447857
1761341810746535200,2.45753515625,0.0003670118749141693,0.0014947839081287384,-0.00026728305965662
1761341810756601000,2.46760107421875,0.00015262700617313385,0.0003269873559474945,0.001340733841061592
1761341810766667000,2.4776669921875,-0.0010347687639296055,0.002751399762928486,-0.001467166468501091
1761341810776734200,2.487734130859375,0.0017066891305148602,-0.0024593407288193703,-0.0011134985834360123
1761341810786800000,2.497800048828125,0.0014343741349875927,-0.002391076646745205,-0.0003652535378932953
1761341810796866000,2.507865966796875,-0.00007617054507136345,-0.000024857930839061737,-0.0019399803131818771
1761341810806932000,2.517931884765625,-0.00014637690037488937,-0.0009302422404289246,-0.002878120169043541
1761341810816998000,2.527997802734375,-0.0007812744006514549,0.00102238729596138,-0.0021542729809880257
1761341810827065000,2.538065185546875,0.0013582725077867508,-0.0034279311075806618,-0.0009543970227241516
1761341810837131000,2.548131103515625,0.0014568092301487923,0.000349230132997036,0.0012911809608340263
1761341810847197000,2.558197021484375,0.000378479715436697,0.0007346272468566895,0.0011302693746984005
1761341810857263000,2.56826318359375,0.0002104341983795166,-0.002432136796414852,0.000007747206836938858
1761341810867329000,2.5783291015625,0.002155868336558342,0.0017369501292705536,0.0010980265215039253
1761341810877396200,2.588396240234375,0.0008394676260650158,-0.0017086481675505638,-0.0014298460446298122
1761341810887462100,2.598462158203125,-0.0013555977493524551,0.001297956332564354,0.000042747240513563156
1761341810897528000,2.608528076171875,-0.001424840185791254,-0.0000986047089099884,-0.0000014612451195716858
1761341810907594000,2.618593994140625,-0.0006542368791997433,-0.001505184918642044,0.0021655773743987083
1761341810917660000,2.628659912109375,0.0012184977531433105,0.0007545072585344315,-0.0004326025955379009
1761341810927727000,2.63872705078125,0.00037726107984781265,-0.000438859686255455,0.001804362516850233
1761341810937793000,2.64879296875,-0.00009038997814059258,-0.00042607635259628296,0.0006589372642338276
1761341810947859000,2.65885888671875,-0.00035353563725948334,0.00037119071930646896,-0.0025375429540872574
1761341810957925000,2.668925048828125,-0.0001300964504480362,-0.0002557169646024704,-0.001395313534885645
1761341810967991000,2.678990966796875,0.00005431845784187317,0.0005745701491832733,0.0013013407588005066
1761341810978058000,2.68905810546875,0.0009704460389912128,-0.0013458356261253357,-0.002757316455245018
1761341810988124200,2.699124267578125,0.001544890459626913,-0.00021912157535552979,-0.00014296779409050941
1761341810998190000,2.709190185546875,-0.0001022745855152607,0.00029646605253219604,-0.0012487121857702732
1761341811008256000,2.719256103515625,-0.0010847845114767551,-0.0020881211385130882,0.001853959634900093
1761341811018323000,2.729322998046875,-0.0006964956410229206,-0.001346963457763195,-0.0010046777315437794
1761341811028388900,2.739388916015625,-0.0009686490520834923,0.0000035725533962249756,0.0013217618688941002
1761341811038455000,2.749455078125,-0.0024775960482656956,0.0017170505598187447,0.0005459832027554512
1761341811048521000,2.75952099609375,-0.0003177146427333355,0.0025721369311213493,-0.0007711793296039104
1761341811058587100,2.769587158203125,-0.001040496863424778,0.0007268320769071579,0.0006866352632641792
1761341811068654000,2.779654052734375,0.00022285524755716324,0.00010367855429649353,-0.001376135740429163
1761341811078720000,2.789719970703125,-0.00007461989298462868,0.00036067329347133636,-0.0007020896300673485
1761341811088786200,2.7997861328125,0.00032275449484586716,-0.0012019826099276543,-0.0007308661006391048
1761341811098852000,2.80985205078125,-0.0003837817348539829,0.0008137645199894905,0.003109146375209093
1761341811108918000,2.81991796875,-0.000174008309841156,-0.0006240373477339745,0.0015527242794632912
1761341811118985200,2.829985107421875,-0.001725832000374794,-0.0007774354889988899,-0.0030348370783030987
1761341811129051000,2.84005078125,0.0010852203704416752,0.0013464707881212234,-0.0037651890888810158
1761341811139117000,2.850116943359375,0.0005155699327588081,0.0002391282469034195,0.0006716367788612843
1761341811149183000,2.860182861328125,-0.0003677094355225563,0.0012289723381400108,0.0009399116970598698
1761341811159249200,2.870249267578125,0.00020007649436593056,0.0014444217085838318,-0.0011610561050474644
1761341811169316000,2.880316162109375,0.0010231295600533485,-0.00039027445018291473,0.0012523536570370197
1761341811179382000,2.890382080078125,-0.0006578578613698483,-0.00008427724242210388,0.00018629012629389763
1761341811189448200,2.9004482421875,0.0025229710154235363,0.0011848080903291702,0.00006529036909341812
1761341811199514000,2.91051416015625,0.0010984460823237896,0.00018745474517345428,0.0015041958540678024
1761341811209580000,2.920580078125,-0.0005178838036954403,0.0019886400550603867,-0.0012742518447339535
1761341811219647200,2.930647216796875,0.0008230176754295826,-0.0013216696679592133,0.0019665490835905075
1761341811229713000,2.940712890625,-0.00032387394458055496,-0.0018545063212513924,-0.0005783485248684883
1761341811239779000,2.950779052734375,0.00020210025832057,0.0013596629723906517,-0.00006941845640540123
1761341811249845000,2.960844970703125,-0.00006084702908992767,0.00007623899728059769,-0.0006112633273005486
1761341811259911200,2.9709111328125,-0.002457159571349621,-0.0006936807185411453,-0.002323942258954048
1761341811269978000,2.98097802734375,-0.0003229239955544472,0.0004926761612296104,-0.001661249902099371
1761341811280044000,2.9910439453125,-0.0007458338513970375,-0.0014194734394550323,-0.0008785468526184559
1761341811290110200,3.001110107421875,0.0002144118770956993,0.0017311563715338707,-0.00098484568297863
1761341811300176100,3.011176025390625,-0.000018347986042499542,-0.0016907397657632828,-0.0003640628419816494
1761341811310242300,3.0212421875,-0.00005113938823342323,-0.0011701276525855064,0.001984617207199335
1761341811320309200,3.031309326171875,-0.00039841560646891594,0.0004413509741425514,-0.002472182735800743
1761341811330375000,3.041375,-0.0005249883979558945,0.00028965063393116,-0.0015776688233017921
1761341811340441000,3.051441162109375,-0.0023513836786150932,-0.00008026231080293655,-0.002973431721329689
1761341811350507000,3.061507080078125,0.0008924799039959908,-0.0012700138613581657,0.0010704807937145233
1761341811360574000,3.071573974609375,-0.0009600152261555195,0.0021899640560150146,0.002935493364930153
1761341811370640100,3.08164013671875,-0.0003623371012508869,-0.0010189181193709373,-0.001274213194847107
1761341811380706000,3.0917060546875,-0.0002206568606197834,0.0011225296184420586,-0.000008945353329181671
1761341811390772200,3.101772216796875,-0.000403065700083971,0.0021519511938095093,-0.000041672028601169586
1761341811400838100,3.111838134765625,0.00006192177534103394,-0.00009469129145145416,-0.001464066095650196
1761341811410905000,3.121905029296875,-0.0012123286724090576,0.0035488931462168694,0.0009787138551473618
1761341811420971300,3.13197119140625,-0.0004517300985753536,0.001530483365058899,0.0017214687541127205
1761341811431037000,3.142036865234375,0.000324212945997715,-0.0013021985068917274,-0.0003643869422376156
1761341811441103000,3.15210302734375,0.0017340900376439095,-0.0020353663712739944,0.003739810548722744
1761341811451169000,3.1621689453125,0.00018975045531988144,-0.0009472360834479332,0.0024092812091112137
1761341811461236000,3.172236083984375,0.0002392851747572422,0.00008154287934303284,0.0010670479387044907
1761341811471302100,3.18230224609375,0.0003086770884692669,-0.0001155901700258255,-0.0012235348112881184
1761341811481368000,3.1923681640625,0.0007656756788492203,-0.00046712812036275864,0.00351902237161994
1761341811491434000,3.20243408203125,0.0008343956433236599,0.002993740141391754,0.0006328732706606388
1761341811501500200,3.212500244140625,0.0009992453269660473,0.0017575016245245934,0.0010006553493440151
1761341811511567000,3.222567138671875,0.0009030010551214218,0.003826211206614971,-0.0011528260074555874
1761341811521633000,3.232633056640625,0.001445487141609192,-0.0006236638873815536,-0.0024995864368975163
1761341811531699000,3.242698974609375,0.00035254238173365593,0.0003264518454670906,0.00043505337089300156
1761341811541764900,3.252764892578125,0.002455906942486763,0.0008271262049674988,-0.0006392654031515121
1761341811551831000,3.2628310546875,-0.0024607498198747635,-0.00019184313714504242,0.0008579869754612446
1761341811561898000,3.27289794921875,-0.0018650013953447342,0.002764265052974224,-0.000020856503397226334
1761341811571964000,3.2829638671875,0.00046528223901987076,-0.0013527609407901764,-0.0028909603133797646
1761341811582030000,3.293030029296875,-0.0008457917720079422,-0.0006555458530783653,-0.0013889377005398273
1761341811592096000,3.303095947265625,0.001212062779814005,0.001528737135231495,-0.0014763157814741135
1761341811602162200,3.313162109375,0.0007175137288868427,-0.0005804868414998055,0.0019996422342956066
1761341811612229000,3.32322900390625,0.00011142389848828316,0.0005992650985717773,0.00009855255484580994
1761341811622295000,3.333294921875,0.002595887053757906,-0.0012191412970423698,-0.0033981776796281338
1761341811632361200,3.343361328125,-0.001291053369641304,0.0009533436968922615,-0.002078587654978037
1761341811642427000,3.353427001953125,-0.0008668117225170135,-0.0009311093017458916,0.0010900413617491722
1761341811652494000,3.363494140625,-0.0009261677041649818,-0.0024207038804888725,0.002029797527939081
1761341811662560000,3.37356005859375,-0.0002872752957046032,-0.00195491686463356,-0.0011449563317000866
1761341811672626000,3.3836259765625,-0.0031256889924407005,-0.0023344187065958977,0.000012726522982120514
1761341811682692000,3.393692138671875,-0.0001959456130862236,-0.0015498511493206024,0.0007786513306200504
1761341811692758000,3.403758056640625,-0.0004256861284375191,0.0025250641629099846,-0.0017121722921729088
1761341811702825000,3.413824951171875,-0.00018040882423520088,0.0006259642541408539,-0.002376098185777664
1761341811712891100,3.42389111328125,-0.00016404641792178154,-0.002482164651155472,-0.0021512098610401154
1761341811722957000,3.43395703125,0.00015340233221650124,-0.0017418060451745987,0.00008105207234621048
1761341811733023200,3.444023193359375,0.0016794512048363686,-0.0031085582450032234,0.00035635940730571747
1761341811743089200,3.454089111328125,-0.0009179296903312206,0.003115781582891941,0.00015049707144498825
1761341811753156000,3.464156005859375,0.00020121270790696144,-0.0014283088967204094,0.002119926270097494
1761341811763222300,3.47422216796875,0.0016563641838729382,-0.0009550657123327255,-0.000993042252957821
1761341811773288200,3.4842880859375,-0.00106110330671072,0.0008490299805998802,0.001082153059542179
1761341811783354400,3.494354248046875,-0.0009204884991049767,0.00025141704827547073,-0.002437214832752943
1761341811793420000,3.504419921875,0.00017880555242300034,0.00048341602087020874,0.0012047537602484226
1761341811803487200,3.5144873046875,-0.0006249365396797657,-0.00020074937492609024,-0.0002514631487429142
1761341811813553200,3.52455322265625,-0.0001915949396789074,0.00047683436423540115,-0.00001798989251255989
1761341811823619000,3.534619140625,-0.0009460686706006527,0.00017136987298727036,-0.0015967115759849548
1761341811833685200,3.544685302734375,-0.000027256086468696594,0.00020588655024766922,-0.001696273684501648
1761341811843751200,3.554751220703125,0.002181569579988718,0.0006098877638578415,-0.0004991828463971615
1761341811853818000,3.564818115234375,-0.001595478504896164,0.0019836723804473877,-0.0013695689849555492
1761341811863884300,3.57488427734375,-0.00015364261344075203,0.0008512958884239197,-0.001982895191758871
1761341811873950200,3.5849501953125,-0.0012643174268305302,-0.0007586926221847534,0.0013834950514137745
1761341811884016400,3.595016357421875,0.001091781072318554,-0.0007411157712340355,-0.003766791895031929
1761341811894082000,3.60508203125,0.0006207381375133991,0.0011192597448825836,0.0007128315046429634
1761341811904149200,3.615149169921875,-0.0005561127327382565,-0.000718320719897747,0.0001690145581960678
1761341811914215200,3.625215087890625,0.0002812296152114868,-0.0022300947457551956,0.0009551332332193851
1761341811924281000,3.635281005859375,0.0007475488819181919,0.00002506934106349945,0.0009764390997588634
1761341811934347300,3.64534716796875,-0.00008725747466087341,0.00011721812188625336,0.0005640406161546707
1761341811944413200,3.6554130859375,-0.0001969798468053341,0.0010567810386419296,0.0017467504367232323
1761341811954480000,3.665480224609375,-0.0011854437179863453,-0.002516515552997589,-0.002394475508481264
1761341811964546300,3.67554638671875,-0.00044987862929701805,0.0000025685876607894897,0.0013637775555253029
1761341811974612200,3.6856123046875,-0.0012634973973035812,0.0007206257432699203,0.0002461518160998821
1761341811984678100,3.69567822265625,-0.00002059992402791977,-0.0037377718836069107,-0.00041431235149502754
1761341811994744300,3.705744384765625,-0.0007137465290725231,-0.0024867765605449677,-0.0025427532382309437
1761341812004811300,3.715811279296875,-0.00033531105145812035,-0.00024892203509807587,0.0006895251572132111
1761341812014877200,3.725877197265625,-0.000019857659935951233,-0.0008454397320747375,-0.0005837255157530308
1761341812024943000,3.735943115234375,0.0021455585956573486,0.0006059836596250534,-0.0007642880082130432
1761341812035009000,3.746009033203125,0.0015092738904058933,0.0010345373302698135,-0.0015786164440214634
1761341812045076200,3.756076171875,0.0009598634205758572,-0.0015833498910069466,0.0005463194102048874
1761341812055142100,3.76614208984375,0.0014924886636435986,0.002306695096194744,-0.0021736305207014084
1761341812065208300,3.776208251953125,-0.000980788841843605,-0.0022036349400877953,-0.0004007644020020962
1761341812075274200,3.786274169921875,-0.001459913793951273,-0.0005639847368001938,-0.002436777576804161
1761341812085340200,3.796340087890625,-0.0007895962335169315,0.00037291552871465683,-0.0004109111614525318
1761341812095407400,3.806407470703125,0.00006523774936795235,-0.001955048181116581,-0.0009394828230142593
1761341812105473300,3.816473388671875,0.000016767997294664383,-0.0010234741494059563,-0.0003772894851863384
1761341812115539200,3.826539306640625,-0.00022249901667237282,0.000922798179090023,-0.0010117064230144024
1761341812125605000,3.836605224609375,0.001171932090073824,-0.00096085574477911,-0.00504586286842823
1761341812135671000,3.846671142578125,0.0011180355213582516,0.0006617996841669083,0.0019582570530474186
1761341812145738200,3.85673828125,-0.0003277943469583988,-0.0014370372518897057,-0.002194942906498909
1761341812155804200,3.86680419921875,0.0002021845430135727,0.00007030460983514786,0.0006029601208865643
1761341812165870000,3.8768701171875,0.0010338895954191685,-0.001678592525422573,-0.0001549758017063141
1761341812175936300,3.886936279296875,0.0019115996547043324,0.0004280712455511093,-0.00006992695853114128
1761341812186002200,3.897002197265625,0.000636211596429348,0.002590823918581009,-0.0024148402735590935
1761341812196069000,3.907069091796875,0.002040878403931856,-0.000021972693502902985,0.0011970964260399342
1761341812206135300,3.91713525390625,0.0005694818682968616,-0.0009681936353445053,0.00008735712617635727
1761341812216201000,3.927200927734375,-0.00045089563354849815,-0.0033306609839200974,0.002355496399104595
1761341812226267100,3.93726708984375,0.00035471050068736076,0.0005927076563239098,-0.0022547016851603985
1761341812236333000,3.9473330078125,0.0006615999154746532,0.0018375637009739876,0.0003466494381427765
1761341812246400000,3.95739990234375,-0.0015104743652045727,-0.00023144669830799103,0.003160012885928154
1761341812256466200,3.967466064453125,0.0007918728515505791,0.00017357710748910904,0.004483136814087629
1761341812266532000,3.977531982421875,0.0008083842694759369,-0.000873844139277935,-0.0004445095546543598
1761341812276598300,3.987598388671875,0.0009790877811610699,0.0015955865383148193,0.00304836081340909
1761341812286664200,3.997664306640625,-0.0025458727031946182,0.000852830708026886,-0.000689385924488306
1761341812296731100,4.007731201171875,0.0010959398932754993,0.00024142581969499588,-0.0011123912408947945
1761341812306797300,4.01779736328125,0.0015750424936413765,-0.0005796262994408607,-0.00021756906062364578
1761341812316863200,4.02786328125,0.0019883555360138416,0.0010423604398965836,-0.00017009209841489792
1761341812326929200,4.03792919921875,0.0008591753430664539,-0.0007544746622443199,-0.0020723878405988216
1761341812336995000,4.0479951171875,-0.0008247722871601582,-0.0011682063341140747,-0.0010687285102903843
1761341812347062000,4.05806201171875,-0.002142770681530237,-0.002722427248954773,0.0006000087596476078
1761341812357128200,4.068128173828125,0.00009915884584188461,0.000605572946369648,-0.00002488633617758751
1761341812367194000,4.078194091796875,0.0002658730372786522,-0.00011481158435344696,0.0010659443214535713
1761341812377260300,4.08826025390625,-0.0003626197576522827,0.0006071161478757858,0.0009100590832531452
1761341812387326200,4.098326171875,0.0016011949628591537,0.0015501417219638824,0.0005462714470922947
1761341812397393200,4.10839306640625,-0.0008959807455539703,0.0004360117018222809,-0.0005533602088689804
1761341812407459300,4.118459228515625,-0.001245387364178896,0.0012831632047891617,0.001953206490725279
1761341812417525200,4.128525146484375,0.0003362218849360943,0.003112753853201866,0.0005203359760344028
1761341812427591200,4.138591064453125,-0.0012520872987806797,-0.0014537684619426727,0.002985358703881502
1761341812437657000,4.148656982421875,0.0011974847875535488,0.0011683953925967216,0.00031783245503902435
1761341812447724000,4.15872412109375,-0.0006488845683634281,0.0002759704366326332,-0.0001887003891170025
1761341812457790200,4.168790283203125,-0.00009693484753370285,-0.00030166469514369965,-0.00015537161380052567
1761341812467856100,4.178856201171875,0.0008652652613818645,0.0012368429452180862,-0.0003236834891140461
1761341812477922300,4.18892236328125,-0.0006545591168105602,0.0012310771271586418,-0.0021093091927468777
1761341812487988200,4.19898828125,-0.0016287434846162796,0.0009266780689358711,0.0008191023953258991
1761341812498055200,4.20905517578125,-0.0014729551039636135,-0.000538194552063942,-0.00046199560165405273
1761341812508121300,4.219121337890625,0.0016432092525064945,0.00016967393457889557,0.0010512126609683037
1761341812518187300,4.229187255859375,-0.0010987678542733192,0.0015083588659763336,-0.0030865343287587166
1761341812528253200,4.239253173828125,-0.003551006317138672,-0.0009665163233876228,-0.0002723722718656063
1761341812538320100,4.249320068359375,0.0008839508518576622,0.0023604026064276695,0.0005715317092835903
1761341812548386000,4.259385986328125,0.00019232789054512978,0.00038859806954860687,0.0020953924395143986
1761341812558452200,4.2694521484375,-0.001229842659085989,0.00041298940777778625,0.0009308727458119392
1761341812568518100,4.27951806640625,-0.0019531571306288242,-0.000605936162173748,0.0007657567039132118
1761341812578584300,4.289584228515625,0.0005955742672085762,0.0027995584532618523,0.0011242474429309368
1761341812588651300,4.2996513671875,0.0021077170968055725,-0.0009083608165383339,-0.0017357212491333485
1761341812598717200,4.30971728515625,-0.0009556724689900875,-0.00150383822619915,0.0003886613994836807
1761341812608783400,4.319783447265625,0.0034731642808765173,0.0002218903973698616,0.000978018157184124
1761341812618849300,4.329849365234375,0.0008263895288109779,-0.00006322283297777176,0.001363102812319994
1761341812628915000,4.3399150390625,-0.0004945383407175541,0.000030520372092723846,-0.0022175172343850136
1761341812638982400,4.349982421875,-0.0016638198867440224,-0.0010441001504659653,0.0012213168665766716
1761341812649048000,4.360048095703125,-0.0004731202498078346,-0.0008329115808010101,-0.002386201173067093
1761341812659114200,4.3701142578125,-0.001241403166204691,-0.000792638398706913,0.001261343713849783
1761341812669180200,4.38018017578125,-0.0019404832273721695,0.000524827279150486,-0.0005048648454248905
1761341812679246000,4.39024609375,0.000055758748203516006,-0.00123699102550745,-0.0021606148220598698
1761341812689313300,4.400313232421875,-0.0008142958395183086,0.0004836777225136757,-0.0012847012840211391
1761341812699379200,4.410379150390625,-0.001624113880097866,-0.0019209058955311775,0.001337941735982895
1761341812709445000,4.420445068359375,0.0005146707408130169,-0.0009083719924092293,0.0006399275735020638
1761341812719511300,4.43051123046875,0.001304549165070057,-0.0008640103042125702,-0.0011988375335931778
1761341812729578200,4.440578125,-0.00003821635618805885,-0.0008243294432759285,-0.0029482683166861534
1761341812739644200,4.45064404296875,-0.0011156662367284298,-0.0009498735889792442,0.0005977200344204903
1761341812749710000,4.4607099609375,0.0006044693291187286,0.00020806863903999329,0.0021327659487724304
1761341812759776000,4.47077587890625,-0.00017884839326143265,0.0005146153271198273,-0.0016608834266662598
1761341812769842200,4.48084228515625,-0.0011572940275073051,-0.00027687661349773407,0.000521576963365078
1761341812779909000,4.4909091796875,-0.0012831962667405605,0.0018407292664051056,0.0010387925431132317
1761341812789975000,4.50097509765625,0.0013919491320848465,-0.0002626357600092888,-0.0006544454954564571
1761341812800041000,4.511041015625,-0.0005132709629833698,-0.00029918644577264786,0.0002573402598500252
1761341812810107000,4.52110693359375,0.00010990863665938377,0.0018403967842459679,0.0007257908582687378
1761341812820173000,4.531173095703125,-0.00006657512858510017,0.00099190603941679,-0.0007045464590191841
1761341812830240000,4.541239990234375,-0.001401351299136877,-0.00040385685861110687,0.0012057386338710785
1761341812840306000,4.551305908203125,-0.0016804789192974567,-0.00017672311514616013,0.00019943248480558395
1761341812850372000,4.5613720703125,0.0002452526241540909,-0.00007632188498973846,0.0035558147355914116
1761341812860438000,4.57143798828125,0.0008947970345616341,-0.0008689220994710922,-0.002435151021927595
1761341812870505200,4.581505126953125,0.0011224974878132343,0.0006815697997808456,0.002993170637637377
1761341812880571100,4.591571044921875,-0.0001223711296916008,0.001032141037285328,-0.0006212042644619942
1761341812890637000,4.601636962890625,-0.001103479415178299,0.0007213503122329712,-0.0014827367849647999
1761341812900703000,4.611702880859375,0.0018074922263622284,-0.0011440897360444069,-0.0010477122850716114
1761341812910769000,4.621768798828125,0.00059868348762393,-0.0009065363556146622,-0.0007180129177868366
1761341812920836000,4.631836181640625,-0.0005262969061732292,-0.0012157624587416649,0.004219707101583481
1761341812930902000,4.641902099609375,0.0006034160032868385,0.0013701673597097397,0.0003346875309944153
1761341812940968000,4.651968017578125,0.0002286345697939396,-0.0013307547196745872,0.003504347987473011
1761341812951034000,4.6620341796875,-0.0006976127624511719,-0.0003096992149949074,-0.002576447557657957
1761341812961100000,4.67210009765625,0.0004348563961684704,-0.000512923114001751,0.0010414882563054562
1761341812971167000,4.6821669921875,0.0003709401935338974,0.0006077345460653305,-0.002089856192469597
1761341812981233200,4.692233154296875,0.0014852117747068405,0.0006841057911515236,0.0013759327121078968
1761341812991299000,4.702299072265625,0.0014061159454286098,-0.0012605348601937294,-0.0003308868035674095
1761341813001365000,4.712364990234375,-0.0006049787625670433,0.001623823307454586,0.00021485937759280205
1761341813011431000,4.722430908203125,-0.0005703573115170002,0.0003100857138633728,-0.00014839554205536842
1761341813021497900,4.732497802734375,-0.0005222097970545292,-0.0011371998116374016,0.0018349378369748592
1761341813031564000,4.74256396484375,-0.000898248516023159,0.0005102315917611122,0.0010423813946545124
1761341813041630000,4.7526298828125,0.0009000995196402073,-0.00002483464777469635,0.0017478442750871181
1761341813051696000,4.762696044921875,0.0025067843962460756,0.00016558170318603516,-0.005655477289110422
1761341813061762000,4.772761962890625,0.0013573304750025272,0.0030367858707904816,0.002090760972350836
1761341813071829000,4.7828291015625,0.0003583785146474838,-0.0004474278539419174,-0.0005425731651484966
1761341813081895200,4.792895263671875,0.0013614599592983723,0.0005014184862375259,-0.0016285786405205727
1761341813091961000,4.802961181640625,-0.000060401856899261475,-0.0021335138007998466,-0.0013769101351499557
1761341813102027000,4.813027099609375,-0.0016684778966009617,-0.0007804529741406441,0.0014956071972846985
1761341813112093000,4.823093017578125,0.0006583258509635925,0.0007005315274000168,-0.00016354210674762726
1761341813122159900,4.833159912109375,0.0002952222712337971,0.0007027368992567062,0.0004272935912013054
1761341813132226000,4.84322607421875,0.002371688839048147,-0.00018382910639047623,0.0022331830114126205
1761341813142292000,4.8532919921875,-0.00012076273560523987,-0.002037336118519306,0.002072450239211321
1761341813152358100,4.863358154296875,0.0010635452345013618,-0.00033557601273059845,0.003312684129923582
1761341813162424000,4.873424072265625,-0.000734472181648016,-0.0017385762184858322,0.0011909911409020424
1761341813172491000,4.883490966796875,0.0018642405048012733,-0.0016749268397688866,0.0008186809718608856
1761341813182557200,4.89355712890625,-0.0026881471276283264,-0.0002513052895665169,-0.00021593831479549408
1761341813192623000,4.903623046875,-0.0018425937741994858,0.0008075674995779991,-0.0009680148214101791
1761341813202689300,4.913689208984375,-0.0009746253490447998,-0.0007396349683403969,0.00002531660720705986
1761341813212755000,4.9237548828125,0.00039450591430068016,-0.000033630989491939545,0.0025489283725619316
1761341813222822000,4.93382177734375,-0.0016952455043792725,-0.0004874560981988907,-0.0008357027545571327
1761341813232888000,4.94388818359375,0.00041770655661821365,-0.0006094286218285561,0.002459692768752575
1761341813242954000,4.9539541015625,0.0003115125000476837,-0.000210469588637352,-0.000013550277799367905
1761341813253020200,4.964020263671875,-0.0003497502766549587,-0.0012288624420762062,-0.0017139785923063755
1761341813263086000,4.974086181640625,-0.0006480892188847065,0.0015124641358852386,-0.0006304997950792313
1761341813273153000,4.984153076171875,-0.0017144186422228813,0.0028823930770158768,-0.0013665976002812386
1761341813283219200,4.99421923828125,-0.0017076153308153152,0.0023723840713500977,-0.0012876568362116814
1761341813293285000,5.00428515625,0.0014053531922399998,0.00040830299258232117,0.0008908086456358433
1761341813303351000,5.01435107421875,0.003570681670680642,0.00012137182056903839,0.0008036778308451176
1761341813313417000,5.0244169921875,-0.0001782500185072422,0.0037770941853523254,0.0009432272054255009
1761341813323484000,5.03448388671875,0.00022206641733646393,-0.0008352315053343773,-0.002539773005992174
1761341813333550000,5.044550048828125,0.0011826688423752785,0.0028463220223784447,-0.0011884849518537521
1761341813343616000,5.054615966796875,0.0002897195518016815,-0.000252310186624527,-0.006208848208189011
1761341813353682000,5.064681884765625,0.00018798653036355972,0.0006955089047551155,0.0008983300067484379
1761341813363748000,5.074748046875,-0.0013689068146049976,0.0036857612431049347,0.0030611008405685425
1761341813373815000,5.08481494140625,0.00022073416039347649,-0.0006679752841591835,-0.00298800365999341
1761341813383881200,5.094881103515625,0.0008861073292791843,0.000713275745511055,-0.0022714724764227867
1761341813393947100,5.104947021484375,0.0016304608434438705,0.00044403038918972015,-0.0005864906124770641
1761341813404013000,5.115012939453125,-0.000753527507185936,-0.0007652034983038902,0.0022268975153565407
1761341813414080300,5.125080322265625,0.0015090941451489925,-0.0007268544286489487,-0.0003174864687025547
1761341813424146200,5.135146240234375,0.0013074320740997791,-0.00014439597725868225,0.0010614492930471897
1761341813434212000,5.145212158203125,-0.0011469367891550064,0.0003706589341163635,0.0006659696809947491
1761341813444278000,5.155278076171875,-0.00008078012615442276,-0.003076666034758091,0.00016357563436031342
1761341813454344000,5.165343994140625,0.00039912154898047447,0.0009899809956550598,-0.0001165890134871006
1761341813464411100,5.1754111328125,0.0011954703368246555,0.00009805895388126373,-0.0005381321534514427
1761341813474477000,5.18547705078125,0.000009831041097640991,-0.0007275212556123734,0.001432074699550867
1761341813484543000,5.19554296875,0.0012195291928946972,0.0015631942078471184,-0.0005822605453431606
1761341813494609200,5.205609130859375,-0.00005692429840564728,0.0006966022774577141,7.05476850271225e-7
1761341813504675000,5.215675048828125,-0.00008556526154279709,-0.0008988520130515099,-2.4400651454925537e-7
1761341813514742000,5.225741943359375,0.0002465308643877506,0.000941125676035881,0.0008040303364396095
1761341813524808200,5.23580810546875,0.0009840703569352627,0.00027451571077108383,0.0017059696838259697
1761341813534873900,5.245873779296875,-0.00024524470791220665,-0.0009116558358073235,-0.000546265859156847
1761341813544940000,5.25593994140625,-0.000877769198268652,0.0023326529189944267,-0.003918907139450312
1761341813555006000,5.266005859375,0.00019015837460756302,0.0011880258098244667,0.00033522630110383034
1761341813565073000,5.276072998046875,-0.0004573618061840534,-0.00013882853090763092,0.001206765417009592
1761341813575139000,5.28613916015625,-0.00033166026696562767,0.0019144685938954353,-0.0008398741483688354
1761341813585205000,5.296205078125,-0.0020174188539385796,0.0003379182890057564,0.0005633183754980564
1761341813595271200,5.306271240234375,0.0010729129426181316,0.0016982611268758774,0.0017782519571483135
1761341813605337000,5.316337158203125,-0.0011811517179012299,-0.00041504669934511185,0.0008446890860795975
1761341813615404000,5.326404052734375,-0.0018277671188116074,0.0012619458138942719,-0.0003840932622551918
1761341813625470200,5.33647021484375,-0.0021832562051713467,0.00013840943574905396,0.0012778770178556442
1761341813635536000,5.346535888671875,-0.00024740444496273994,0.0014233840629458427,0.0004347199574112892
1761341813645602000,5.35660205078125,0.00043508782982826233,-0.0008686920627951622,0.0026250057853758335
1761341813655668000,5.36666796875,0.0005850237794220448,-0.00016801431775093079,0.0004968740977346897
1761341813665735000,5.37673486328125,-0.002207232639193535,-0.0009807450696825981,-0.0003207894042134285
1761341813675801000,5.386801025390625,0.0022636817302554846,0.0009340671822428703,-0.0007950984872877598
1761341813685867000,5.396866943359375,0.0008515529334545135,-0.0009975060820579529,0.0011563976295292377
1761341813695933200,5.40693310546875,-0.000672041904181242,0.0018422231078147888,0.0021297833882272243
1761341813705999000,5.4169990234375,0.0019264682196080685,-0.00025440845638513565,0.000707465223968029
1761341813716066000,5.427066162109375,0.0022817337885499,0.001428975723683834,0.0013990877196192741
1761341813726132200,5.43713232421875,-0.0008274340070784092,0.002164672128856182,-0.004235811531543732
1761341813736198000,5.447197998046875,-0.00022129854187369347,0.0006360188126564026,-0.001028300728648901
1761341813746264000,5.45726416015625,-0.0012193657457828522,-0.0006454996764659882,-0.00023122038692235947
1761341813756330000,5.467330078125,0.0030371644534170628,-0.004364337772130966,0.0018186145462095737
1761341813766397000,5.47739697265625,0.0011422759853303432,0.0016459524631500244,0.0007046293467283249
1761341813776463000,5.487463134765625,0.0016623917035758495,0.001313856802880764,-0.0028586802072823048
1761341813786529000,5.497529052734375,-0.0007633497007191181,0.0003996100276708603,-0.0034709046594798565
1761341813796595200,5.50759521484375,0.0011906116269528866,0.00009174831211566925,-0.0015912456437945366
1761341813806661000,5.5176611328125,0.0018392079509794712,-0.0006165839731693268,0.0013169273734092712
1761341813816728000,5.52772802734375,0.001143590547144413,-0.0014988891780376434,0.0027507729828357697
1761341813826794200,5.537794189453125,-0.0009681130759418011,0.0017851125448942184,-0.00024360977113246918
1761341813836860000,5.54785986328125,-0.0013055354356765747,-0.0012668706476688385,-0.001355745829641819
1761341813846926000,5.557926025390625,0.0010910364799201488,0.0011546453461050987,-0.001904425211250782
1761341813856992000,5.567991943359375,0.0001943502575159073,-0.0005236789584159851,-0.0022684792056679726
1761341813867059000,5.578058837890625,-0.0029121143743395805,-0.0011644894257187843,-0.0013271714560687542
1761341813877125000,5.588125,-0.0014503048732876778,0.00010424014180898666,-0.0003995923325419426
1761341813887191000,5.59819091796875,-0.002222656272351742,0.0008582528680562973,-0.0013021226041018963
1761341813897257200,5.60825732421875,0.0001456928439438343,-0.00017665140330791473,-0.001619038637727499
1761341813907323100,5.6183232421875,-0.0018833749927580357,0.002220066264271736,-0.00009639421477913857
1761341813917390000,5.62839013671875,0.0001273113302886486,-0.0015594922006130219,0.0021715532056987286
1761341813927456300,5.638456298828125,0.00046720169484615326,-0.0011184345930814743,-0.001458305399864912
1761341813937522200,5.648522216796875,-0.0014441488310694695,-0.0019189808517694473,-0.000383986160159111
1761341813947587800,5.658587890625,0.0006922944448888302,-0.0007468443363904953,-0.0007428331300616264
1761341813957654000,5.668654052734375,-0.000316510908305645,0.000475812703371048,0.000970910768955946
1761341813967721000,5.678720947265625,0.0013509681448340416,-0.001330123282968998,0.0023006852716207504
1761341813977787100,5.688787109375,-0.0015891613438725471,-0.0018877889961004257,-0.0017800764180719852
1761341813987853000,5.69885302734375,0.0001758071593940258,-0.0013439031317830086,0.0014328379184007645
1761341813997919000,5.7089189453125,0.0003529074601829052,-0.0013007596135139465,-0.00048357341438531876
1761341814007985200,5.718985107421875,0.0010381406173110008,0.00005364418029785156,0.002022423315793276
1761341814018052000,5.729052001953125,-0.0013235504738986492,-0.0007394459098577499,0.0010948446579277515
1761341814028118000,5.739117919921875,-0.002076145727187395,0.0004934929311275482,-0.0016466667875647545
1761341814038184200,5.74918408203125,0.00017449213191866875,0.001279924064874649,-0.002611530013382435
1761341814048249900,5.759249755859375,-0.000013197772204875946,-0.0011948691681027412,-0.0022289790213108063
1761341814058316000,5.76931591796875,0.001072040293365717,0.000359085388481617,-0.000677687581628561
1761341814068383000,5.779383056640625,0.0001862645149230957,0.0002569621428847313,0.0005660150200128555
1761341814078449000,5.789448974609375,-0.0017988556064665318,0.0009307423606514931,-0.0012398739345371723
1761341814088515000,5.79951513671875,0.0014179241843521595,-0.0018636547029018402,-0.0027822465635836124
1761341814098581000,5.8095810546875,-0.001078256405889988,-0.0004604347050189972,-0.0024943589232861996
1761341814108647200,5.819647216796875,0.0003489255905151367,0.0005252677947282791,0.0007089897990226746
1761341814118714000,5.829714111328125,-0.0008875797502696514,-0.002769063226878643,0.0009569302201271057
1761341814128780000,5.839780029296875,0.0008341190405189991,0.00043816864490509033,0.0008010193705558777
1761341814138846200,5.84984619140625,-0.002922269981354475,0.0017319330945611,0.0025171609595417976
1761341814148911900,5.859911865234375,-0.0015225540846586227,0.0005166893824934959,-0.00023425836116075516
1761341814158978000,5.86997802734375,0.0005720220506191254,0.0006511788815259933,0.0003313971683382988
1761341814169045000,5.880044921875,-0.0005816537886857986,-0.0013847332447767258,-0.0012278496287763119
1761341814179111000,5.89011083984375,-0.0019220230169594288,0.0017713792622089386,-0.001207076944410801
1761341814189177000,5.900177001953125,-0.0013680951669812202,0.0003063362091779709,0.00005123065784573555
1761341814199243000,5.910242919921875,-0.0010272101499140263,0.00009408220648765564,-0.0008734189905226231
1761341814209309200,5.92030908203125,-0.0005439571104943752,0.0013138484209775925,-0.0016317390836775303
1761341814219376000,5.930376220703125,0.0011058715172111988,0.0011894786730408669,-0.003567857202142477
1761341814229442000,5.940442138671875,-0.0011710627004504204,0.0009835241362452507,0.0016435068100690842
1761341814239508200,5.95050830078125,-0.0025042416527867317,0.0013952488079667091,0.001024588942527771
1761341814249574000,5.960573974609375,0.0009622811339795589,-0.0006626518443226814,0.0011878237128257751
1761341814259640000,5.97064013671875,0.0013079592026770115,-0.0006203074008226395,0.001806476153433323
1761341814269707000,5.98070703125,-0.00018667476251721382,0.0006834631785750389,0.00037386221811175346
1761341814279773000,5.99077294921875,0.0013507679104804993,0.0009391261264681816,-0.00372207909822464
1761341814289839000,6.000839111328125,-0.0010469499975442886,-0.0022191815078258514,-0.0003322269767522812
1761341814299905000,6.010905029296875,0.0011512227356433868,0.0013190936297178268,-0.0024297325871884823
1761341814309971200,6.02097119140625,-0.000651506707072258,-0.0007294025272130966,-0.0015572216361761093
1761341814320038100,6.0310380859375,-0.002021969761699438,-0.003190961666405201,-0.002596653066575527
1761341814330104000,6.04110400390625,-0.0006368206813931465,-0.000421987846493721,-0.0030252146534621716
1761341814340170200,6.051170166015625,-0.0013185897842049599,-0.0001439535990357399,-0.0004640528932213783
1761341814350236000,6.06123583984375,-0.0003713429905474186,-0.0010945042595267296,0.00007272325456142426
1761341814360302000,6.071302001953125,0.0007013785652816296,0.00013454444706439972,-0.0015528704971075058
1761341814370369000,6.081369140625,-0.0003139786422252655,0.0014864737167954445,-0.002348550595343113
1761341814380435000,6.09143505859375,-0.0004322226159274578,-0.001953531987965107,0.001993201207369566
1761341814390501000,6.101501220703125,0.0001178346574306488,0.0022900132462382317,0.001044712495058775
1761341814400567000,6.111567138671875,-0.001006019301712513,-0.000679943710565567,0.0005064881406724453
1761341814410633000,6.121633056640625,0.0014173579402267933,-0.0006440598517656326,0.0021407264284789562
1761341814420700200,6.1317001953125,0.00096115842461586,0.0007788669317960739,0.0015092906542122364
1761341814430766000,6.14176611328125,-0.0012472178786993027,-0.0008514542132616043,-0.0007715220563113689
1761341814440832300,6.151832275390625,-0.0006775679066777229,0.0026660487055778503,-0.0005366313271224499
1761341814450898200,6.161898193359375,-0.0011731269769370556,0.0008469130843877792,-0.0007503954693675041
1761341814460963800,6.1719638671875,-0.001773935742676258,0.000029589049518108368,-0.0008670422248542309
1761341814471031000,6.182031005859375,0.0007775570265948772,0.00010679941624403,0.0003291699104011059
1761341814481097000,6.192096923828125,0.0007213642820715904,-0.00042530056089162827,0.0008940263651311398
1761341814491163100,6.2021630859375,0.00020982744172215462,0.0009529693052172661,0.003525686450302601
1761341814501229000,6.21222900390625,0.001437278464436531,-0.002965872175991535,-0.0003257771022617817
1761341814511295000,6.222294921875,-0.0013911430723965168,-0.00040516629815101624,-0.0006603114306926727
1761341814521362200,6.232362060546875,-0.00008965609595179558,-0.0016597816720604897,0.00011200504377484322
1761341814531428000,6.242427978515625,-0.0003576194867491722,-0.000870000571012497,-0.0007730517536401749
1761341814541494000,6.252493896484375,-0.0007693441584706306,0.0013793054968118668,-0.001528057735413313
1761341814551560200,6.262560302734375,0.0011365031823515892,-0.0015710461884737015,0.0004898863844573498
1761341814561625900,6.2726259765625,0.0012744548730552197,0.00072513148188591,0.001116261351853609
1761341814571693000,6.282693115234375,-0.0025911577977240086,0.0010309452190995216,0.00046415580436587334
1761341814581759000,6.292759033203125,0.00010955426841974258,-0.00023671891540288925,-0.00078992685303092
1761341814591825000,6.302824951171875,-0.0013006147928535938,-0.00004626624286174774,0.0007013347931206226
1761341814601891000,6.31289111328125,-0.002013010438531637,-0.0019688019528985023,-0.0003641960211098194
1761341814611957000,6.32295703125,-0.000040743034332990646,-0.001873767003417015,0.001975539606064558
1761341814622024000,6.33302392578125,0.0004823016934096813,0.0008120313286781311,0.0014426414854824543
1761341814632090000,6.343090087890625,-0.0012638713233172894,-0.002010282129049301,0.001636347733438015
1761341814642156000,6.353156005859375,0.0012296466156840324,-0.00033755041658878326,0.0012632394209504128
1761341814652222200,6.36322216796875,-0.00012107053771615028,0.00048153381794691086,-0.0012493510730564594
1761341814662288000,6.373287841796875,0.00012660352513194084,-0.0007304707542061806,0.0016060899943113327
1761341814672355000,6.38335498046875,0.0008123274892568588,0.001056784763932228,0.00039034662768244743
1761341814682421000,6.3934208984375,0.0019047562964260578,0.0004043104127049446,-0.001110078301280737
1761341814692487000,6.40348681640625,0.0008352641016244888,0.001666688360273838,0.00007154978811740875
1761341814702553000,6.413552978515625,-0.0007660947740077972,0.001654171384871006,0.0012326878495514393
1761341814712619000,6.423618896484375,0.00020607281476259232,0.0014841649681329727,-0.00035183317959308624
1761341814722686000,6.43368603515625,-0.0019622729159891605,-0.0003334423527121544,-0.000407493207603693
1761341814732752100,6.443752197265625,-0.0011194502003490925,0.0009871544316411018,-0.00012008612975478172
1761341814742818600,6.453818603515625,-0.003574618138372898,0.0006606513634324074,-0.0005278163589537144
1761341814752884700,6.463884765625,-0.0005643204785883427,0.0001764930784702301,0.003281333949416876
1761341814762950700,6.47395068359375,-0.0009171892888844013,-0.0034688422456383705,0.0025215339846909046
1761341814773016600,6.4840166015625,-0.0004894002340734005,0.0002772752195596695,-0.003663604147732258
1761341814783083500,6.49408349609375,-0.00017088605090975761,0.0008381372317671776,-0.0008784704841673374
1761341814793149400,6.5041494140625,0.002990406472235918,-0.00245481263846159,-0.001749249640852213
1761341814803215600,6.514215576171875,-0.0013465513475239277,-0.0023951586335897446,-0.00010927533730864525
1761341814813281500,6.524281494140625,-0.0018507800996303558,-0.0017459578812122345,0.0024691056460142136
1761341814823348500,6.534348388671875,0.0008344855159521103,0.00014968030154705048,0.001436064951121807
1761341814833414700,6.54441455078125,-0.0023355609737336636,-0.00009211990982294083,0.000261734239757061
1761341814843480600,6.55448046875,-0.0010556457564234734,0.0012573031708598137,0.001482526771724224
1761341814853546500,6.56454638671875,-0.001849941909313202,-0.0012304382398724556,-0.001523126382380724
1761341814863612700,6.57461279296875,0.0015943245962262154,-0.00045705586671829224,-0.00043282797560095787
1761341814873678300,6.58467822265625,-0.0016822763718664646,0.0008141538128256798,-0.0011947117745876312
1761341814883745800,6.594745849609375,0.000024543609470129013,-0.0020418204367160797,0.0003603077493607998
1761341814893811500,6.6048115234375,0.001188734546303749,-0.0006138421595096588,0.0018168599344789982
1761341814903877400,6.61487744140625,0.0001748688519001007,-0.0012769689783453941,0.0015303031541407108
1761341814913943600,6.624943603515625,-0.0008022226393222809,-0.000593133270740509,0.001421918161213398
1761341814924010500,6.635010498046875,-0.0013609537854790688,-0.0008791564032435417,-0.0015432452782988548
1761341814934076700,6.64507666015625,0.0008768006227910519,0.001025395467877388,-0.00015661446377635002
1761341814944142600,6.655142578125,0.0001849113032221794,0.000483708456158638,0.0004308787174522877
1761341814954208500,6.66520849609375,-0.0020544864237308502,-0.0023085186257958412,0.00019361823797225952
1761341814964274700,6.675274658203125,-0.0011921543627977371,-0.0011612288653850555,0.0017646169289946556
1761341814974340400,6.68534033203125,0.002215694636106491,0.0007298709824681282,0.0019388091750442982
1761341814984407600,6.695407470703125,-0.0001760902814567089,0.0023938147351145744,-0.0021920204162597656
1761341814994473500,6.705473388671875,-0.0001781894825398922,-0.000104585662484169,0.0013061724603176117
1761341815004539400,6.715539306640625,-0.0005417107604444027,0.00018996000289916992,-0.0020992113277316093
1761341815014605600,6.72560546875,-0.0008974261581897736,-0.000022784806787967682,-0.0015337648801505566
1761341815024671500,6.73567138671875,-0.0024532442912459373,-0.00157061405479908,0.00045508379116654396
1761341815034738400,6.745738525390625,0.000782244373112917,-0.00016464944928884506,-0.0019506532698869705
1761341815044804600,6.7558046875,0.0005580061115324497,0.0014590797945857048,-0.002898206003010273
1761341815054870500,6.76587060546875,-0.0018537575379014015,-0.0021866457536816597,0.00012047030031681061
1761341815064936700,6.775936767578125,-0.0004707779735326767,0.0007079439237713814,-0.0006108335219323635
1761341815075003600,6.786003662109375,0.0024061028379946947,0.00003746151924133301,-0.002447230275720358
1761341815085069600,6.796069580078125,-0.00125574367120862,0.00005477201193571091,-0.0004874099977314472
1761341815095135500,6.806135498046875,-0.002296243794262409,0.0005867006257176399,0.0011315061710774899
1761341815105201400,6.816201416015625,-0.0009119324386119843,-0.00009347032755613327,0.00037596700713038445
1761341815115267600,6.826267578125,-0.0016246712766587734,0.0011772261932492256,-0.0019314908422529697
1761341815125333500,6.83633349609375,-0.0019157552160322666,-0.0011826008558273315,-0.0022654514759778976
1761341815135400400,6.846400390625,0.0005074343644082546,-0.000018980354070663452,-0.0038447349797934294
1761341815145466600,6.856466552734375,-0.0008313367143273354,-0.0007196580991148949,-0.001668133307248354
1761341815155532500,6.866532470703125,-0.0005026957951486111,0.0001665055751800537,0.000554987695068121
1761341815165598700,6.8765986328125,0.0009327479638159275,0.0012759789824485779,0.0021566119976341724
1761341815175664600,6.88666455078125,0.0022354009561240673,-0.0007613617926836014,-0.0005541197024285793
1761341815185731600,6.896731689453125,-0.0017931628972291946,-0.0009118299931287766,0.004377255216240883
1761341815195797500,6.906797607421875,-0.0001386767253279686,-0.0014561954885721207,-0.0008445312269032001
1761341815205863400,6.916863525390625,-0.0025680121034383774,-0.000543530099093914,-0.0026160660199820995
1761341815215929600,6.9269296875,-0.00020034145563840866,0.0007094815373420715,0.0014497172087430954
1761341815225995500,6.93699560546875,-0.0013015586882829666,-0.000683085061609745,-0.001162577886134386
1761341815236062500,6.9470625,0.0020585060119628906,0.0007586916908621788,-0.0027183936908841133
1761341815246128600,6.957128662109375,0.0022848749067634344,-0.0011321529746055603,0.0007362584583461285
1761341815256194600,6.967194580078125,0.0024540210142731667,-0.0010103313252329826,0.0003161495551466942
1761341815266260700,6.9772607421875,-0.0015263394452631474,0.0011415034532546997,0.000058088917285203934
1761341815276326700,6.98732666015625,-0.000056362245231866837,-0.001853342168033123,-0.002392948605120182
1761341815286393600,6.9973935546875,0.00027546752244234085,-0.0016751764342188835,-0.00012207124382257462
1761341815296459800,7.007459716796875,0.0009517380967736244,-0.0029978398233652115,0.0007503759115934372
1761341815306525400,7.017525390625,-0.00010820012539625168,-0.0009325584396719933,-0.001046991441398859
1761341815316591600,7.027591552734375,-0.0003142845816910267,0.0005346657708287239,0.0018332679755985737
1761341815326657500,7.037657470703125,-0.000539055559784174,-0.00047706905752420425,0.0022537806071341038
1761341815336724500,7.047724365234375,0.0000967690721154213,-0.0032231630757451057,-0.0036461451090872288
1761341815346790700,7.057790771484375,0.0013417969457805157,0.001558808609843254,-0.000003473367542028427
1761341815356856600,7.067856689453125,0.00014906935393810272,0.0013048592954874039,-0.0022289613261818886
1761341815366922500,7.077922607421875,0.00033282767981290817,0.0005045793950557709,0.00043180305510759354
1761341815376988700,7.08798876953125,0.00029080919921398163,-0.0018626805394887924,0.0014108624309301376
1761341815387055600,7.0980556640625,0.00009506708011031151,0.000655071809887886,0.0009224386885762215
1761341815397121800,7.108121826171875,-0.0019507035613059998,-0.0005780551582574844,0.001579452771693468
1761341815407187500,7.1181875,0.0004139174707233906,-0.00032771844416856766,0.00025426363572478294
1761341815417253400,7.12825341796875,-0.00010398775339126587,-0.001142127439379692,0.0007446743547916412
1761341815427319600,7.138319580078125,-0.00032875873148441315,-0.0011692913249135017,-0.0005991565994918346
1761341815437386500,7.148386474609375,0.0014341813512146473,-0.0014831135049462318,-0.0004470124840736389
1761341815447452700,7.15845263671875,0.0011438969522714615,0.0022029681131243706,0.001461142674088478
1761341815457518600,7.1685185546875,0.00032834848389029503,-0.001296723261475563,-0.002347745932638645
1761341815467584500,7.17858447265625,-0.0004990957677364349,0.0027752500027418137,-0.00030403630807995796
1761341815477650700,7.188650634765625,-0.001237959135323763,0.0002494165673851967,0.00222072284668684
1761341815487717600,7.198717529296875,-0.00013567646965384483,-0.00008667446672916412,0.001209787093102932
1761341815497783600,7.208783447265625,-0.0013869386166334152,-0.00008877180516719818,0.00034586433321237564
1761341815507849500,7.218849365234375,-0.0010170252062380314,-0.0011148881167173386,-0.0005897036753594875
1761341815517915400,7.228915283203125,0.0008036834187805653,-0.001805933192372322,0.0006809830665588379
1761341815527981600,7.238981689453125,0.0012998301535844803,-0.0021939557045698166,-0.0008093221113085747
1761341815538048500,7.249048583984375,0.0006525232456624508,0.0005868785083293915,0.00010708905756473541
1761341815548114400,7.259114501953125,0.0004908693954348564,0.0014481451362371445,0.001278080977499485
1761341815558180600,7.2691806640625,-0.0009764223359525204,-0.000041740015149116516,0.0023376988247036934
1761341815568246500,7.27924658203125,-0.0003425898030400276,0.00018462911248207092,-0.0005129491910338402
1761341815578312700,7.289312744140625,0.00246506673283875,0.0005997400730848312,-0.0038644098676741123
1761341815588379600,7.299379638671875,0.0006272192113101482,-0.0011787191033363342,-0.0035240580327808857
1761341815598445600,7.309445556640625,0.0021506096236407757,0.001611480489373207,-0.001397542655467987
1761341815608511500,7.319511474609375,0.0018456773832440376,0.0002218428999185562,-0.0022281822748482227
1761341815618577400,7.329577392578125,0.00044860923662781715,0.002711527980864048,0.0012280954979360104
1761341815628643600,7.3396435546875,0.002070208080112934,0.001265963539481163,0.002029439900070429
1761341815638710500,7.34971044921875,-0.0007000439800322056,-0.0016508745029568672,-0.000533390324562788
1761341815648776400,7.3597763671875,-0.0021456079557538033,0.0014876611530780792,-0.0006148833781480789
1761341815658842600,7.369842529296875,0.0013081668876111507,-0.000058679841458797455,-0.0010466822423040867
1761341815668908500,7.379908447265625,-0.0006444626487791538,0.00020683743059635162,-0.0015982231125235558
1761341815678974700,7.389974609375,0.0006881286390125751,0.0015979781746864319,-0.0006511197425425053
1761341815689041700,7.400041748046875,-0.0010791448876261711,0.0008208677172660828,0.0006000334396958351
1761341815699107600,7.410107666015625,-0.0005747312679886818,0.0003123646602034569,0.0020196735858917236
1761341815709173500,7.420173583984375,-0.00026766862720251083,0.004896198399364948,0.0010135313495993614
1761341815719239400,7.430239501953125,-0.0002864026464521885,-0.000917418859899044,-0.002684785518795252
1761341815729305600,7.4403056640625,0.0013381256721913815,0.002086094580590725,0.0005972939543426037
1761341815739372000,7.4503720703125,0.0005229683592915535,0.000474320724606514,0.0006659762002527714
1761341815749438000,7.46043798828125,-0.0012224670499563217,0.0011393120512366295,-0.0001707891933619976
1761341815759504000,7.47050390625,0.0013618720695376396,-0.0006951224058866501,0.0004039658233523369
1761341815769569800,7.48056982421875,-0.00034042075276374817,0.0007166191935539246,0.0010942565277218819
1761341815779636000,7.490635986328125,-0.002901468425989151,0.0018943902105093002,0.0005489946343004704
1761341815789703000,7.500702880859375,0.0022355029359459877,0.0005974313244223595,0.0005521909333765507
1761341815799768800,7.510768798828125,0.0002690870314836502,-0.0000983942300081253,0.0002719741314649582
1761341815809835000,7.5208349609375,-0.00011307653039693832,0.0008105430752038956,-0.0006076684221625328
1761341815819901000,7.53090087890625,0.0005895006470382214,0.0006726263090968132,-0.0006429399363696575
1761341815829967000,7.540967041015625,-0.0005332883447408676,0.0022846385836601257,-0.002165202982723713
1761341815840032800,7.55103271484375,0.001000057440251112,0.00039091985672712326,0.00012873439118266106
1761341815850100000,7.561099853515625,-0.0014569750055670738,0.0006777429953217506,-0.0005176151171326637
1761341815860166000,7.571165771484375,-0.00036200275644659996,0.0015854639932513237,0.0019026980735361576
1761341815870231800,7.581231689453125,0.0010361564345657825,0.00019263103604316711,-0.001975397113710642
1761341815880298000,7.591298095703125,0.0002374914474785328,-0.0003430880606174469,0.0030691800639033318
1761341815890364000,7.601364013671875,0.0009472239762544632,0.0004713060334324837,-0.0000696214847266674
1761341815900430800,7.611430908203125,-0.0015377718955278397,0.0012288019061088562,0.0007918472401797771
1761341815910497000,7.6214970703125,-0.00007303338497877121,0.00176303181797266,-0.002556544728577137
1761341815920563000,7.63156298828125,-0.0024153986014425755,-0.001638590358197689,0.0013602981343865395
1761341815930629000,7.641629150390625,0.0015473845414817333,0.0012219110503792763,0.001028468832373619
1761341815940695000,7.651695068359375,-0.0008630966767668724,0.0016686096787452698,-0.0006248136050999165
1761341815950762000,7.661761962890625,-0.0022620554082095623,-0.001992703415453434,0.000017274636775255203
1761341815960828000,7.671827880859375,-0.001498558558523655,0.0024723028764128685,0.0021061492152512074
1761341815970893800,7.681893798828125,0.0008322400972247124,-0.000907248817384243,0.0019319788552820683
1761341815980960000,7.6919599609375,-0.001315197441726923,-0.0008100057020783424,-0.0009328383021056652
1761341815991026000,7.70202587890625,0.00047231605276465416,0.00018601678311824799,0.00047277798876166344
1761341816001092900,7.7120927734375,-0.0013912753202021122,0.0002976981922984123,0.00021997187286615372
1761341816011159000,7.722158935546875,0.001217557117342949,0.0010401876643300056,0.0021587535738945007
1761341816021225000,7.732224853515625,0.0018674819730222225,-0.0014323526993393898,-0.0015307790599763393
1761341816031291000,7.742290771484375,0.0008432301692664623,0.0008875271305441856,-0.0016631386242806911
1761341816041357000,7.752357177734375,-0.0013871686533093452,0.0019259676337242126,0.0014853132888674736
1761341816051424000,7.762424072265625,0.0011588134802877903,-0.0005057649686932564,-0.000708065927028656
1761341816061490000,7.772489990234375,0.001849899534136057,0.0025116335600614548,0.0008863704279065132
1761341816071555800,7.782555908203125,-0.000008454546332359314,0.001235978677868843,0.001037904992699623
1761341816081621800,7.792621826171875,0.0006626136600971222,-0.002278805710375309,0.000578426755964756
1761341816091688000,7.80268798828125,0.0018732869066298008,0.00015132874250411987,-0.0010423730127513409
1761341816101755000,7.8127548828125,0.00028697773814201355,-0.0008101910352706909,0.0022501670755445957
1761341816111821000,7.822821044921875,-0.00038014398887753487,-0.00039899908006191254,0.0023689442314207554
1761341816121887000,7.832886962890625,-0.0027207056991755962,0.0005987174808979034,0.001192291732877493
1761341816131953000,7.842952880859375,0.000619963277131319,-0.00024656951427459717,0.000009049195796251297
1761341816142019000,7.85301904296875,-0.000777300912886858,0.00007611885666847229,-0.000879575964063406
1761341816152086000,7.8630859375,-0.0004497319459915161,-0.0005896715447306633,-0.001138435211032629
1761341816162152000,7.87315185546875,0.0011496273800730705,0.0014751013368368149,0.00022662105038762093
1761341816172217900,7.8832177734375,0.001038840040564537,-0.00099258404225111,0.000559250358492136
1761341816182283800,7.89328369140625,0.00009181024506688118,0.0006490694358944893,0.0005857176147401333
1761341816192350000,7.903349853515625,0.0008790409192442894,0.0002674385905265808,0.0008754688315093517
1761341816202417000,7.9134169921875,-0.0019818246364593506,-0.0007005389779806137,0.00043653929606080055
1761341816212482800,7.92348291015625,-0.0005879257805645466,-0.0011993488296866417,-0.0034269080497324467
1761341816222549000,7.933549072265625,0.0013644210994243622,0.0026010600849986076,0.0010774447582662106
1761341816232615000,7.943614990234375,-0.0014132559299468994,0.0000010151416063308716,-0.0019945111125707626
1761341816242681000,7.95368115234375,-0.0005609029904007912,-0.00008210260421037674,-0.0005471189506351948
1761341816252748000,7.963748046875,0.00004736287519335747,0.000005248934030532837,-0.00004005292430520058
1761341816262814000,7.97381396484375,-0.0006881845183670521,0.0006838450208306313,-0.0003427746705710888
1761341816272879900,7.9838798828125,-0.001774221658706665,-0.000894877128303051,0.0002865302376449108
1761341816282945800,7.99394580078125,0.0005188616923987865,-0.00011721532791852951,-0.0024293437600135803
1761341816293012000,8.004011962890624,0.0008613439276814461,-0.0006927251815795898,-0.0021265423856675625
1761341816303078000,8.014077880859375,0.003194814082235098,0.00016986392438411713,-0.0034607965499162674
1761341816313144000,8.02414404296875,-0.0009139110334217548,0.0026854854077100754,0.00022555142641067505
1761341816323211000,8.0342109375,-0.001326773315668106,0.0008683940395712852,0.00017947936430573463
1761341816333277000,8.04427685546875,-0.0011142534203827381,-0.001979590393602848,0.0010679098777472973
1761341816343343000,8.054343017578125,-0.0011149928905069828,0.0016096578910946846,-0.0002293814904987812
1761341816353408800,8.06440869140625,0.00013109995052218437,0.0005667638033628464,0.001269445288926363
1761341816363475000,8.074474853515625,-0.00003144051879644394,-0.0014148876070976257,0.0019180350936949253
1761341816373542000,8.0845419921875,0.0010106544941663742,0.0013899542391300201,-0.00046123284846544266
1761341816383607800,8.09460791015625,-0.00035601574927568436,-0.002212872728705406,-0.00029650144279003143
1761341816393674000,8.104674072265626,-0.001064683310687542,0.0008942373096942902,0.0024268468841910362
1761341816403740000,8.114739990234375,0.0016549527645111084,-0.0006056167185306549,0.0003059292212128639
1761341816413806000,8.12480615234375,0.00011191749945282936,0.0006186384707689285,0.0005008717998862267
1761341816423873000,8.134873046875,-0.0005116588436067104,-0.001080579124391079,0.00035552307963371277
1761341816433939000,8.14493896484375,-0.0011204574257135391,-0.0019730040803551674,-0.001535321120172739
1761341816444005000,8.155005126953125,-0.0005411640740931034,0.0002323351800441742,-0.0020189587958157063
1761341816454071000,8.165071044921875,-0.001188045833259821,-0.0015266826376318932,-0.001235456671565771
1761341816464137000,8.175136962890624,-0.0013743545860052109,0.0017255591228604317,-0.00031178398057818413
1761341816474204000,8.185203857421875,0.0012246244587004185,0.002602006308734417,-0.0009706499986350536
1761341816484269800,8.195269775390624,-0.000997084192931652,-0.000051501207053661346,0.0018242555670440197
1761341816494336000,8.2053359375,0.001674865372478962,0.0000731348991394043,0.0016314429230988026
1761341816504402000,8.21540185546875,-0.0009326147846877575,-0.0005823299288749695,0.00039068469777703285
1761341816514467800,8.2254677734375,-0.001079354900866747,-0.0002923114225268364,0.0013315803371369839
1761341816524535000,8.23553515625,-0.0006783478893339634,-0.000803050585091114,-0.004848530050367117
1761341816534601000,8.24560107421875,-0.0008847429417073727,-0.000790000893175602,-0.00042848149314522743
1761341816544667000,8.2556669921875,-0.001565782818943262,-0.0028313063085079193,0.0012822002172470093
1761341816554733000,8.265733154296875,0.00030322326347231865,0.001569567248225212,-0.001017172820866108
1761341816564798700,8.275798828125,0.0002252832055091858,-0.003349202685058117,0.00027690082788467407
1761341816574866000,8.285865966796875,-0.0007025622762739658,-0.002310037612915039,0.002399972639977932
1761341816584931800,8.295931884765626,-0.0004999041557312012,0.0009407456964254379,-0.0026761721819639206
1761341816594997800,8.305997802734375,0.0006287433207035065,0.0006123781204223633,-0.0012391302734613419
1761341816605064000,8.31606396484375,0.0010514413006603718,0.0014595072716474533,-0.00010159146040678024
1761341816615129900,8.3261298828125,0.0012903264723718166,0.0006624236702919006,-0.00023501552641391754
1761341816625196000,8.336196044921875,-0.0016060639172792435,-0.002099251374602318,0.0030416524969041348
1761341816635263000,8.346262939453124,-0.0006017857231199741,-0.0010955054312944412,-0.0001000789925456047
1761341816645329000,8.356328857421875,0.00006718793883919716,0.0013247914612293243,-0.00037142448127269745
1761341816655395000,8.36639501953125,-0.0016135326586663723,-0.0005575306713581085,0.0004243282601237297
1761341816665460700,8.376460693359375,0.0016836556605994701,0.0005024708807468414,-0.00031375279650092125
1761341816675527000,8.38652685546875,0.0012719309888780117,-0.0004927525296807289,-0.0016298871487379074
1761341816685593900,8.39659375,0.0012083761394023895,0.0009758705273270607,0.0007173349149525166
1761341816695659800,8.40665966796875,0.0008501806296408176,0.0009047640487551689,-0.001989235170185566
1761341816705726000,8.416725830078125,-0.0008154036477208138,0.001767551526427269,0.0006990805268287659
1761341816715793000,8.42679296875,0.00005731452256441116,0.0006282506510615349,-0.00195369403809309
1761341816725858800,8.43685888671875,-0.0005266987718641758,-0.0012718383222818375,-0.00066736014559865
1761341816735925000,8.446925048828126,-0.0005362858064472675,-0.0007155034691095352,0.0009984471835196018
1761341816745992700,8.45699267578125,0.0002037319354712963,0.001972679980099201,-0.00012653972953557968
1761341816756058400,8.467058349609376,-0.0013488908298313618,0.001742582768201828,0.0019749607890844345
1761341816766124500,8.47712451171875,0.0011921534314751625,-0.0023666881024837494,-0.0013975291512906551
1761341816776190500,8.4871904296875,0.0010491418652236462,-0.00004840642213821411,0.002840625122189522
1761341816786256600,8.497256591796875,-0.0006496282294392586,0.0003750482574105263,0.0035643470473587513
1761341816796323600,8.507323486328126,0.0003306814469397068,-0.0010039368644356728,-0.0012128311209380627
1761341816806389500,8.517389404296875,-0.002345462329685688,0.00033144373446702957,0.0020585921593010426
1761341816816455700,8.52745556640625,-0.0016959179192781448,-0.0011205114424228668,0.0003911876119673252
1761341816826521600,8.537521484375,0.00039889244362711906,-0.0008598901331424713,0.00022361613810062408
1761341816836587800,8.547587890625,-0.0023422990925610065,0.001755068078637123,0.0010872790589928627
1761341816846654700,8.55765478515625,-0.0010784952901303768,0.021424993872642517,0.006924219895154238
1761341816856720400,8.567720458984375,0.00047812238335609436,-0.028342297300696373,-0.009730922989547253
1761341816866786600,8.57778662109375,0.0016745603643357754,-0.007896482944488525,-0.004061353392899036
1761341816876852500,8.5878525390625,-0.0005904585123062134,-0.006832549814134836,-0.0018828879110515118
1761341816886918700,8.597918701171874,0.0016765277832746506,-0.008018611930310726,0.00018378673121333122
1761341816896985600,8.607985595703125,0.0001595914363861084,-0.0014581810683012009,-0.0008886680006980896
1761341816907051500,8.618051513671874,0.002222067676484585,0.0005037244409322739,-0.0031943051144480705
1761341816917117700,8.62811767578125,-0.000481307040899992,0.0025045564398169518,-0.00028639938682317734
1761341816927183600,8.63818359375,0.0030447752214968204,0.0004353336989879608,0.0033139060251414776
1761341816937249500,8.64824951171875,-0.0016165557317435741,-0.002345006912946701,0.0011658002622425556
