time,seconds_elapsed,z,y,x
1761340695528068900,0.07506884765625,-0.499041993060708,0.06332300987541675,-0.3231264770977199
1761340695538136000,0.085135986328125,-0.5406751491755247,-0.007960530550405383,-0.35974969609603286
1761340695548201700,0.09520166015625,-0.44991059014499185,-0.10302201958987861,-0.2648920225329697
1761340695558268700,0.1052685546875,-0.24264088162779807,-0.1740454112421721,-0.07540230085626244
1761340695568336100,0.115336181640625,0.049210897892713545,-0.1915577966550365,0.15627718790471554
1761340695578403000,0.125403076171875,0.3004682166963816,-0.2198399978853762,0.29213629555031656
1761340695588470000,0.135469970703125,0.46500294533669945,-0.5073224032152444,0.06743614428266882
1761340695598537000,0.145536865234375,0.4471329421252012,-0.6425671052895486,-0.2084668093472719
1761340695608604000,0.15560400390625,0.54859132912755,-0.576609180333279,-0.23837577152922748
1761340695618670800,0.1656708984375,0.8039210119366645,-0.4498034765087068,-0.06437821801677346
1761340695628738000,0.175738037109375,1.0347820239216088,-0.36067302148602903,0.1910737759977579
1761340695638804700,0.1858046875,1.2886995018452405,-0.24410098077561704,0.4482243906237185
1761340695648870700,0.19587060546875,1.5913047305703163,-0.12215274518588558,0.6229261468827724
1761340695658937600,0.2059375,1.7574767050236462,-0.2244357099114917,0.3859744168072939
1761340695669004800,0.2160048828125,1.8666291536599398,-0.3987921415979042,0.16494345557168125
1761340695679071700,0.22607177734375,1.8366607163757085,-0.6345995604764669,0.08337671380154787
1761340695689138700,0.236138671875,1.7332032645106314,-0.8344982287690043,-0.16458835852369666
1761340695699205600,0.24620556640625,1.689395102444291,-0.8325875728420913,-0.559527368357405
1761340695709272600,0.2562724609375,1.9954373198807238,-0.5592216999417171,-0.6237156898252666
1761340695719339500,0.266339599609375,2.581912681722641,-0.32909316694978624,-0.4641458170507103
1761340695729406700,0.27640673828125,3.335363151094317,-0.25809896485935896,-0.1574732658214867
1761340695739473700,0.2864736328125,4.133246051910519,-0.23643464739881453,0.2243859707519412
1761340695749540600,0.29654052734375,4.7561172537356615,-0.20941081219911575,0.45339280623756345
1761340695759606500,0.3066064453125,4.905891051095724,-0.10464936506338417,0.3789928873568773
1761340695769673500,0.316673583984375,4.801245266228914,0.16798618426844478,0.1124677106641233
1761340695779740700,0.32674072265625,4.824139235082268,0.7346692695993929,0.08872706185355782
1761340695789807600,0.3368076171875,4.944563019317388,1.060312624888867,0.29868191780149933
1761340695799874600,0.34687451171875,4.923001760372519,1.0658259814828634,0.5742665261972695
1761340695809941500,0.35694140625,4.574072002846003,1.0460257408611475,0.7991948601976037
1761340695820008400,0.367008544921875,3.912105054429173,1.401990365460515,1.2426295323267578
1761340695830075400,0.377075439453125,2.4934879638165235,1.7709155939199028,1.2400780942782759
1761340695840142600,0.387142578125,0.4638596205204725,2.038207371070981,0.8157673709444702
1761340695850209800,0.397209716796875,-1.6989578805595635,2.42878752810806,0.6753115100931376
1761340695860275500,0.407275390625,-4.441713450667262,1.9181642567165196,1.4301494152352212
1761340695870342400,0.41734228515625,-8.507459499278664,-0.2867014110200107,2.9262887214675546
1761340695880409600,0.42740966796875,-13.81363406304121,-2.4819281666651367,4.413924987770617
1761340695890476800,0.437476806640625,-19.76924576399326,-3.1393080795526505,3.7279926418766376
1761340695900543700,0.447543701171875,-25.12750882691145,-2.501638829307258,0.05965235853865743
1761340695910610700,0.457610595703125,-28.643485150265693,-1.6385311766475439,-4.499688085252046
1761340695920677600,0.467677734375,-29.708701475417612,-1.4208290675736963,-7.837284109964966
1761340695930744600,0.47774462890625,-28.0409576482892,-2.3035145502761005,-8.992967472505569
1761340695940811500,0.4878115234375,-23.900356557440755,-3.6533252311661837,-8.457718440032005
1761340695950878700,0.497878662109375,-18.371183970153332,-4.337279847246408,-7.1923273330599065
1761340695960945700,0.507945556640625,-12.883037805259226,-4.54223952525556,-5.978820727103948
1761340695971011600,0.518011474609375,-8.113098946920037,-4.58501512940377,-4.706260459154844
1761340695981078500,0.52807861328125,-4.14413627923727,-4.564493734900653,-3.256926743239164
1761340695991145700,0.538145751953125,-1.1419921063184737,-4.52242510997802,-1.56560710247308
1761340696001212700,0.548212646484375,1.1277496459543703,-4.26989382571578,-0.1020714043341577
1761340696011279600,0.558279541015625,2.8252976597160098,-3.584871288143098,1.0624160269089042
1761340696021346600,0.5683466796875,4.297182814657688,-2.849920936580002,1.6031868915438652
1761340696031413500,0.57841357421875,5.569459589490294,-2.1799822786316274,1.1740911258906126
1761340696041480400,0.58848046875,6.154054544413089,-1.3815744771584868,0.29386063512489197
1761340696051547600,0.598547607421875,5.8071069006144995,-0.26801994529515505,-0.7460328865915536
1761340696061613600,0.608613525390625,4.49242773886025,1.0703189089879392,-1.6301276515699923
1761340696071680500,0.618680419921875,2.8002023814260957,2.1883871188834307,-1.9812018737792967
1761340696081747500,0.62874755859375,1.432061678597331,2.6881223549053073,-1.4081613091804086
1761340696091814400,0.638814453125,1.0108078586161136,2.7252237128093837,-0.14419029813930392
1761340696101881600,0.648881591796875,1.934990157702565,2.719163974379003,1.0389861245479435
1761340696111948500,0.658948486328125,4.198516688722372,2.9314392360985275,1.577970324961841
1761340696122015700,0.669015625,6.8045017354279755,3.145834266451001,1.7622716842152177
1761340696132082700,0.679082763671875,9.047693334427475,3.2012916575178503,1.8863449308685958
1761340696142149600,0.689149658203125,10.873840840095282,3.3028795161187645,1.9776501726470888
1761340696152216600,0.699216552734375,12.284195129275322,3.444000051423907,2.105813318962604
1761340696162283800,0.70928369140625,13.337284963303803,3.542204112805426,2.314361084591597
1761340696172349700,0.719349609375,14.424531918478012,3.70732394785732,2.4225033332720396
1761340696182416600,0.729416748046875,15.272522373765707,3.8256858311265707,2.48909294372797
1761340696192483600,0.739483642578125,15.79471669435501,3.7778263478428125,2.580484110224247
1761340696202550500,0.749550537109375,15.785083773612975,3.5602824980705976,2.7312670846268534
1761340696212617700,0.75961767578125,15.283415523701905,3.3670115042895077,2.7797344706758853
1761340696222684700,0.7696845703125,14.26852770229578,3.2914863077059384,2.6224565812960265
1761340696232751600,0.779751708984375,12.652457948303223,3.1629616346016522,2.245151062504202
1761340696242818600,0.789818603515625,10.919228964829443,3.1785105013892054,1.9141276946768164
1761340696252885500,0.799885498046875,9.224572580856083,3.2116324342682954,1.4098822877541184
1761340696262952400,0.809952392578125,7.550123703131079,3.2142481697246432,0.7512498905874788
1761340696273018600,0.8200185546875,6.097789636355638,3.4209874246269463,0.418476281559281
1761340696283085600,0.83008544921875,5.0742736873358485,3.5313673692315817,0.3965783380059525
1761340696293152500,0.840152587890625,4.383066031387448,3.3839626390904187,0.527050857242383
1761340696303219500,0.850219482421875,3.964178356015682,3.123114485120773,0.7118132216036319
1761340696313286700,0.86028662109375,3.7605958115786313,2.7793858033686876,0.7461739024974405
1761340696323353600,0.870353515625,3.9298686746567486,2.6670135159030557,0.5508165308963507
1761340696333420500,0.880420654296875,4.5503737318724395,2.723103067393601,0.39796968276649713
1761340696343487500,0.890487548828125,5.30532642250061,2.637853472392261,0.36804859175533056
1761340696353554700,0.9005546875,5.870381395173072,2.4316721436336635,0.2685884658981115
1761340696363621600,0.91062158203125,6.115635089647769,2.380719370509684,-0.02613229318745434
1761340696373687600,0.9206875,6.184163266950845,2.648890414713323,-0.30435733308941126
1761340696383754500,0.93075439453125,6.220062263327836,2.9898928863719103,-0.34398455620929597
1761340696393821700,0.94082177734375,6.100902215418219,3.106115127263963,-0.16793284664601085
1761340696403888600,0.950888671875,5.5256315536797045,2.6289430207058784,-0.11242445604428648
1761340696413955600,0.96095556640625,4.399028739672899,2.209450365178287,-0.39358105588611214
1761340696424022800,0.971022705078125,2.624140296599269,1.5231661371067164,-1.1999033933434635
1761340696434089700,0.98108984375,0.30873218717277046,0.09629588967263698,-2.3570827665954828
1761340696444156700,0.99115673828125,-2.1317443174242974,-2.0380229544147848,-2.5921640266239643
1761340696454223600,1.0012236328125,-4.0641444586336615,-6.13909546021223,-0.29485726321311667
1761340696464290600,1.01129052734375,-8.486973176088929,-14.097234731566905,4.839023500481248
1761340696474356700,1.021356689453125,-21.796814252150057,-19.59147862881422,6.952936393138766
1761340696484423700,1.031423583984375,-44.59909500188827,-14.334617254275082,-3.0463699758753178
1761340696494490600,1.04149072265625,-65.87880611910819,-5.479364308023452,-18.64938833259344
1761340696504557600,1.0515576171875,-69.78358068451881,-0.5591664991557598,-26.238727024781703
1761340696514624500,1.06162451171875,-61.42613814370632,-1.7237439467698334,-24.66942603622675
1761340696524691500,1.07169140625,-42.89560181598663,-4.990055188947916,-19.114471357429025
1761340696534758700,1.081758544921875,-24.4953600936532,-5.802412605318427,-13.918569770765304
1761340696544825600,1.09182568359375,-10.89034890730381,-4.785542085662484,-9.619067573249339
1761340696554892500,1.101892578125,-1.9729601151347158,-3.4973698225617404,-6.187811852586269
1761340696564959500,1.11195947265625,4.100743712234497,-2.070680192391574,-3.5968864278465507
1761340696575025700,1.122025634765625,8.584092072582244,-0.30859160965830085,-1.1948305470585823
1761340696585092600,1.132092529296875,11.989420740306377,1.0733885256916285,1.3280354869335889
1761340696595159600,1.14215966796875,14.265959313112496,2.193150095501542,3.109212508757412
1761340696605226500,1.1522265625,15.433161848533153,3.4472295348644253,3.7401582959666846
1761340696615293400,1.16229345703125,15.416975268363952,4.673952473007143,3.591955401185155
1761340696625360400,1.1723603515625,14.345081365144251,5.479138682574034,3.268014246703684
1761340696635427800,1.182427734375,12.89185473344326,5.95490910564065,3.1730922757327553
1761340696645494800,1.192494873046875,11.52362810589671,6.13495587618947,3.395292134617269
1761340696655561700,1.202561767578125,10.515046106636524,5.791036055779457,3.637731940715015
1761340696665627600,1.212627685546875,10.049895277261733,5.305090275657177,3.703975806473195
1761340696675694600,1.222694580078125,10.078888732033967,4.7692061601504685,3.4942458453223106
1761340696685761800,1.23276171875,10.470359408169983,4.237598699049651,3.105288905572891
1761340696695828700,1.242828857421875,11.095296310353278,3.778526312805712,2.6737705889478325
1761340696705895700,1.252895751953125,11.805274133223294,3.401138814818859,2.255308445511758
1761340696715962600,1.262962646484375,12.471470097512006,3.080304101920128,1.8556553397029638
1761340696726029600,1.273029541015625,13.047634493219851,2.809869788959622,1.4130693933576344
1761340696736096500,1.283096435546875,13.374789056789874,2.7294766940787434,1.1263616256620734
1761340696746164000,1.2931640625,13.205109366476535,2.6832953731402753,0.9805347392968833
1761340696756231000,1.30323095703125,12.531139261054992,2.5701374882549044,0.8020238730784505
1761340696766296600,1.313296630859375,11.547684688788651,2.4963635192528364,0.5790543084630743
1761340696776363800,1.32336376953125,10.533294880032539,2.4348443439289924,0.3976939345650375
1761340696786430700,1.3334306640625,9.563351531246305,2.292860469792783,0.28917934544086454
1761340696796498000,1.343497802734375,8.7534987911731,2.023333627066016,0.241294782514777
1761340696806564900,1.35356494140625,8.060613557401298,1.7556237706333397,0.2898977776422165
1761340696816631800,1.3636318359375,7.34612731719613,1.5823396260872482,0.34917722948156293
1761340696826698800,1.37369873046875,6.6194006040990345,1.5400279861889778,0.4410656049102544
1761340696836765700,1.383765625,5.884945342576503,1.5597858489736913,0.5635979787971824
1761340696846832600,1.39383251953125,4.922812375280261,1.5168487706534564,0.4830699324250221
1761340696856898800,1.40389892578125,4.109778082561492,1.468767753573507,0.30518775603156534
1761340696866965800,1.4139658203125,3.8171646710187193,1.586007647075504,0.22668210059879346
1761340696877032700,1.42403271484375,4.0268560537248845,1.7399857642576098,0.181419374076277
1761340696887099600,1.434099609375,4.765099017092585,1.7679010684043168,0.22913391419770196
1761340696897166800,1.444166748046875,5.672854497513175,1.688898843359947,0.3482221937790513
1761340696907233800,1.45423388671875,6.669857118138671,1.5710837803184985,0.5080304053541272
1761340696917300700,1.46430078125,7.6526920972019425,1.4250593986198306,0.5967846474755555
1761340696927367700,1.47436767578125,8.447865739059448,1.236659518006444,0.5163980188680812
1761340696937434600,1.4844345703125,8.980699527084827,1.1060071852236986,0.261712333050929
1761340696947501600,1.49450146484375,9.122616181203723,0.78451488519907,-0.3172054164856672
1761340696957567700,1.504567626953125,8.365046586075424,0.337726518727839,-1.299121819399297
1761340696967634700,1.514634765625,6.73170070311129,0.1822591859012842,-2.53154033883512
1761340696977701600,1.52470166015625,4.269536098319292,0.12432546784877777,-3.3954067009076474
1761340696987768600,1.5347685546875,0.8468313483804464,-0.24915216321796177,-3.6116599263474343
1761340696997835500,1.54483544921875,-3.0784839007556437,-1.168068212339282,-1.5817720553323626
1761340697007902700,1.55490283203125,-6.437551168042421,-4.227783407478034,3.3830987157374617
1761340697017970000,1.564969970703125,-12.03042611991167,-10.669592525225877,9.85086791191101
1761340697028036900,1.575036865234375,-26.567997557592392,-11.211424443221091,10.538624550622702
1761340697038103800,1.585103759765625,-46.63172077343464,0.009149228878319263,0.7464103416018187
1761340697048170800,1.595170654296875,-62.32575474133491,12.302801630067824,-11.031747090506553
1761340697058237000,1.60523681640625,-65.2616679079771,14.66398481771946,-16.070110675549508
1761340697068304000,1.615303955078125,-57.13678090810775,8.394518764275311,-15.928767437404392
1761340697078370800,1.625370849609375,-41.48280773243904,2.906167432197928,-14.161023605388403
1761340697088437800,1.635437744140625,-26.6919980312705,0.71403615835011,-11.66477377564311
1761340697098504700,1.645504638671875,-16.001486636656523,-1.4618211493059992,-8.803486518657207
1761340697108571600,1.655571533203125,-8.58255127288103,-3.301791136360168,-6.568240325704217
1761340697118638800,1.665638916015625,-3.120912006640434,-3.451978775218129,-5.240323496714234
1761340697128705800,1.675705810546875,1.061625022661686,-2.49685188729167,-4.114372132353484
1761340697138772700,1.685772705078125,4.540056920519471,-1.714887855619192,-2.579920631122589
1761340697148838700,1.695838623046875,7.815190936100483,-1.1410276452004908,-0.7633977167598903
1761340697158905900,1.70590576171875,10.807452012908458,-0.6343883288785814,1.019114645320922
1761340697168972800,1.715972900390625,13.25355454069376,-0.29207082909867166,1.966532274044305
1761340697179039700,1.726039794921875,15.074275929659605,0.3692269878849387,2.1627632866747675
1761340697189106700,1.736106689453125,16.191282063281534,0.9311030382603407,2.049806477319449
1761340697199173600,1.746173583984375,16.65590214678049,1.1786999348603189,1.9622125111490487
1761340697209240600,1.756240478515625,16.52781235796213,1.1042724703855813,1.81180655336529
1761340697219307800,1.766307861328125,16.079398728376628,0.8713697234399617,1.4332353985518216
1761340697229374700,1.776374755859375,15.390393550908565,0.7224078269846737,0.9779474262174218
1761340697239440600,1.786440673828125,14.720166723668575,0.6663698595508932,0.6366008172962814
1761340697249507600,1.796507568359375,14.122420610749721,0.528606964110583,0.4191179769963026
1761340697259574500,1.806574462890625,13.49152743051052,0.3657975248929113,0.39151480753868817
1761340697269641700,1.816641845703125,12.806385942733288,0.17988310441970823,0.5346218404859304
1761340697279708700,1.826708740234375,12.028808163321017,0.031287483993545175,0.7751573473323136
1761340697289775900,1.83677587890625,11.229474479174613,-0.11823263086639343,1.036148270773515
1761340697299842800,1.8468427734375,10.302315210103988,-0.2252042283322662,1.295052670264244
1761340697309909800,1.85690966796875,9.004873014354706,-0.24190021932832895,1.4873374294869601
1761340697319976700,1.866976806640625,7.508897374251484,-0.3033736192816868,1.6951146491348743
1761340697330043000,1.87704296875,6.230815712532401,-0.44518896845057604,2.054879542800039
1761340697340109800,1.88710986328125,5.2627673837125295,-0.5390773951226845,2.2570519281782206
1761340697350176800,1.8971767578125,4.680376076313853,-0.5319613525724038,2.1756975870497524
1761340697360243700,1.90724365234375,4.323424340373277,-0.4630076798662543,1.9873159727454184
1761340697370310700,1.917310546875,4.118371138861775,-0.5017610062284394,1.7142852135509252
1761340697380377900,1.9273779296875,4.145187249594927,-0.5821411685625091,1.419813899181783
1761340697390444800,1.93744482421875,4.47832673279345,-0.5857630123214795,1.1797911641631276
1761340697400511700,1.94751171875,5.057436534303426,-0.6412172981157899,1.0467115311682225
1761340697410578700,1.95757861328125,5.657331349688768,-0.7939938574884087,0.9682583183087408
1761340697420644900,1.967644775390625,6.259606338208913,-0.863547066990286,0.9167480574324727
1761340697430711800,1.9777119140625,6.836957897874712,-0.8787513581238686,0.7822302083279937
1761340697440778800,1.98777880859375,7.31585902018249,-0.9021491848461329,0.5177639369264245
1761340697450845700,1.997845703125,7.720167550581693,-0.9333435837287455,0.0932216698590666
1761340697460912600,2.00791259765625,8.094196678051352,-0.8709074396904557,-0.3634272886302322
1761340697470979600,2.0179794921875,8.489681850525736,-0.8573536191776394,-0.6671455931637436
1761340697481046800,2.028046875,8.792662342303991,-0.9795644329600035,-0.8512741531334816
1761340697491113700,2.03811376953125,9.008917905831336,-1.0832540861457585,-1.038923215379566
1761340697501180700,2.0481806640625,9.059774817365408,-0.90448128105551,-1.3458745104849337
1761340697511246600,2.05824658203125,8.438451429504155,-0.6703473848797381,-1.8401961970254779
1761340697521313800,2.068313720703125,7.432748785072564,-0.5384769084788859,-2.389900455830991
1761340697531380700,2.078380615234375,5.798689200881123,-0.1551245107382536,-2.9005799874544143
1761340697541447700,2.08844775390625,2.8313807790219783,0.767288586718589,-3.543111875300109
1761340697551514600,2.0985146484375,-0.6989554935961961,1.353994396315515,-3.241123024907708
1761340697561581800,2.108581787109375,-4.665358539924025,-0.686140654882416,-0.1189446515932679
1761340697571648800,2.118648681640625,-12.221620891940592,-4.519159386180341,6.0051779881536955
1761340697581715700,2.1287158203125,-27.203545870161054,-2.4473960747271777,10.034045381700992
1761340697591783000,2.138782958984375,-45.43892670063972,7.990232445707917,6.409136389940977
1761340697601849900,2.148849853515625,-60.01198796937465,18.55658496121168,-0.26984694152660665
1761340697611915800,2.158915771484375,-65.68605418076515,20.108107131969927,-2.527500708055496
1761340697621982700,2.168982666015625,-59.353287913799285,13.631430406719446,-1.7080863589107989
1761340697632050000,2.1790498046875,-44.77593859248161,8.670939750429987,-2.558803024291992
1761340697642117000,2.1891171875,-30.672528971672055,5.238752886396647,-3.5722879931628704
1761340697652184000,2.19918408203125,-20.216933417391775,1.299672439019382,-4.009567649793625
1761340697662251000,2.2092509765625,-12.75826342459917,-1.5844384980626403,-5.254205307072401
1761340697672318200,2.219318115234375,-6.823786866134404,-2.509846977943182,-7.098211710035801
1761340697682385200,2.22938525390625,-1.910032826578617,-2.4379797193452712,-8.521549983951449
1761340697692451000,2.239451171875,2.010944685614109,-2.039011819321662,-9.032704439610242
1761340697702518300,2.249518310546875,5.248523754304647,-1.333430916236341,-8.33996942796409
1761340697712585200,2.259585205078125,8.11061180627942,-0.8033942115835845,-6.942859820282459
1761340697722652200,2.269652099609375,10.826467679023741,-0.2212529334232211,-5.261337058648467
1761340697732719000,2.279718994140625,13.686087879580258,0.30834362624660133,-3.273738469569385
1761340697742786000,2.2897861328125,16.36761127461195,0.7330901106491684,-1.2178346982881425
1761340697752853200,2.299853271484375,18.49957186513543,1.0975997146233916,0.60742316506356
1761340697762920200,2.309920166015625,19.773084903764722,1.3106835162468253,1.765623771122098
1761340697772987100,2.319987060546875,20.096907692563533,1.357917268847674,2.076578310519457
1761340697783053000,2.330052978515625,19.61475429046154,1.2713581986829638,1.5493226148873567
1761340697793120300,2.340120361328125,18.60607993674278,1.196065349550545,0.18826456379592418
1761340697803187200,2.350187255859375,17.298386396092177,1.0997859726212917,-1.277301324996352
1761340697813254100,2.360254150390625,15.905153922104834,0.8314307309571654,-2.341056637685001
1761340697823321000,2.370321044921875,14.43221721228361,0.47116702092438933,-2.899227988323569
1761340697833388000,2.380387939453125,13.03551501635909,0.06839819424785673,-3.0648189480185506
1761340697843455000,2.390455078125,11.824999408912658,-0.18215462954826653,-2.950758269074559
1761340697853522200,2.400522216796875,10.780133797872066,-0.321699001577869,-2.683225230513513
1761340697863589000,2.410589111328125,9.794181563571096,-0.3681774057667702,-2.210124172786623
1761340697873655000,2.420655029296875,8.997799714967607,-0.3725600412977859,-1.5281972631417213
1761340697883722000,2.430721923828125,8.319217147314548,-0.4781443491237238,-0.8527762282595038
1761340697893789000,2.440788818359375,7.772080108648538,-0.6701157680809497,-0.3878087926276028
1761340697903856000,2.450856201171875,7.274473116827011,-0.8861167723253369,-0.1829436610341072
1761340697913923000,2.460923095703125,6.79369334116578,-0.9724986592922359,-0.25342194949164987
1761340697923990000,2.470989990234375,6.523156152352691,-0.9121412212241441,-0.38359380528107284
1761340697934057000,2.481056884765625,6.401666200190782,-0.926741920441389,-0.4262281012624502
1761340697944124200,2.491124267578125,6.433649484428763,-1.0990220755767077,-0.2993438888415694
1761340697954191000,2.501191162109375,6.627842269229888,-1.3586536202982067,-0.1980569128833711
1761340697964257000,2.511257080078125,6.925497182071209,-1.5285406697519122,-0.2826939289443195
1761340697974324000,2.521323974609375,7.272358316630124,-1.4540826640084386,-0.42835912194177506
1761340697984391200,2.53139111328125,7.561408482733368,-1.436498199740052,-0.4868972356282174
1761340697994458000,2.5414580078125,7.700593081539869,-1.5653089963093398,-0.5060675808485597
1761340698004525300,2.551525390625,7.790920418196916,-1.5872344123914837,-0.5160914736695588
1761340698014592300,2.56159228515625,7.939133542111516,-1.5289178325012325,-0.5049343390349298
1761340698024659200,2.5716591796875,8.075819309839606,-1.5251090878680347,-0.5110843130320311
1761340698034726100,2.58172607421875,8.110663244205712,-1.6991364519968628,-0.5473457860458641
1761340698044793000,2.59179296875,7.817542467662691,-1.8279484176099299,-0.707206239264831
1761340698054859300,2.601859375,6.754674166941642,-1.85871151240319,-1.1158109324879943
1761340698064926200,2.61192626953125,4.985595286929607,-1.594061335802078,-1.0572500955130903
1761340698074993200,2.6219931640625,2.400648936599493,-0.783426359310001,-0.8088233970254659
1761340698085060000,2.63206005859375,-1.4758125575184822,0.492237391079776,0.405734909940511
1761340698095127000,2.642126953125,-7.262711951884627,1.555464624773711,2.9410440997898575
1761340698105194000,2.652194091796875,-14.088541722023486,0.531139697458595,5.056213714510202
1761340698115261200,2.66226123046875,-22.009470329880713,-2.7101170368313787,5.170375515741109
1761340698125328100,2.672328125,-32.02139038901329,-2.8758982584014534,2.9742718311309813
1761340698135395000,2.68239501953125,-43.20463620097637,2.781693203528225,-0.9674738899327814
1761340698145461000,2.6924609375,-52.88186837842464,8.487500999355316,-4.8781063875913615
1761340698155528200,2.702528076171875,-55.602551232934,10.753314764529465,-6.834941297355294
1761340698165595100,2.71259521484375,-50.44891525506973,8.996708412599563,-7.440099732357263
1761340698175662000,2.722662109375,-40.27776675701141,5.921313710030913,-7.549238736990094
1761340698185729000,2.73272900390625,-29.67582796434164,3.1446377501428127,-7.033950542527437
1761340698195796000,2.7427958984375,-21.05004545249939,1.1332559882856905,-5.995411211898922
1761340698205863000,2.75286279296875,-14.408880760359763,0.20315737782754004,-5.086842661529779
1761340698215930000,2.76293017578125,-9.126226772916317,0.09683635322488844,-4.603690019257367
1761340698225997300,2.772997314453125,-4.413958013257384,0.22554266650639473,-4.226897564554214
1761340698236063000,2.78306298828125,-0.08303425703942775,0.3244152017340064,-3.856165140542388
1761340698246130000,2.7931298828125,4.0191339350402355,0.5260638554990291,-3.203675337783992
1761340698256197000,2.803197021484375,7.8408368340104815,0.49214375797957177,-2.683981894099712
1761340698266264300,2.813264404296875,11.355443622577189,0.476915501448512,-2.08310888133198
1761340698276331300,2.823331298828125,14.534491007322073,0.8111158918768167,-1.3932403650328515
1761340698286398200,2.833398193359375,16.98544857392311,1.5330375427797436,-0.9436211590498685
1761340698296465200,2.843465087890625,18.49461395046711,2.3922929039254783,-0.37008199727907776
1761340698306532000,2.853531982421875,19.191104515254498,2.9705560254782437,0.4248267830971628
1761340698316598300,2.863598388671875,19.152614917862415,3.088110391756892,1.2718408676333726
1761340698326665200,2.873665283203125,18.54162353892326,2.7923773868888615,1.9871606360532341
1761340698336732200,2.883732177734375,17.47297723932266,2.343500815966725,2.4023164314202963
1761340698346799000,2.893799072265625,16.302023242414,1.8841991510115563,2.367617604613304
1761340698356866000,2.903865966796875,15.226034178835153,1.5192242676131427,2.0522791510432956
1761340698366933000,2.91393310546875,14.226569552010297,1.395087015812844,1.7150421693980693
1761340698377000200,2.924000244140625,13.336357911586761,1.267045888441801,1.4344664016515016
1761340698387067100,2.934067138671875,12.475407436960936,0.8561243696436286,1.3869279670156538
1761340698397134000,2.944134033203125,11.637756004858016,0.395237627454102,1.4500544314056634
1761340698407200000,2.954199951171875,10.804470951271057,0.07655424737036227,1.5354880046717823
1761340698417267200,2.96426708984375,9.972982717972993,-0.1694864327635616,1.564065864380449
1761340698427334100,2.974334228515625,9.169790020310879,-0.40989619433842595,1.3871658674247562
1761340698437401000,2.984401123046875,8.131991278916598,-0.6406350412484259,1.1001610164787619
1761340698447468000,2.994468017578125,6.899808614063263,-0.6651843030281365,0.8327210630286485
1761340698457535000,3.004534912109375,6.056779580575228,-0.5014267693053931,0.6584283990271389
1761340698467602000,3.014601806640625,5.691489055356383,-0.6784279616132378,0.4963002200718969
1761340698477669000,3.024669189453125,5.653737124589085,-1.0869208650249986,0.32794359505586324
1761340698487735000,3.034735107421875,5.911077562698722,-1.2653574969634414,0.19606449695713818
1761340698497802000,3.044802001953125,6.328496334561705,-1.352858378022909,0.17904753037840127
1761340698507869000,3.054868896484375,6.697133247599005,-1.4720894453421234,0.3449408340208232
1761340698517935900,3.064935791015625,6.926324865067005,-1.6683698500722646,0.4669957265891134
1761340698528003300,3.07500341796875,7.018840067157149,-1.6275601391695438,0.6094853948229924
1761340698538070300,3.0850703125,7.041190430653095,-1.456881062555313,0.7692620787486434
1761340698548137200,3.09513720703125,6.997299266478419,-1.4217039507120848,0.9709800714228302
1761340698558204200,3.1052041015625,6.912188203164935,-1.3442486628487706,1.17712201801911
1761340698568271000,3.11527099609375,6.809817962014675,-1.159269112072885,1.3627715770110487
1761340698578337300,3.125337158203125,6.649864131423831,-1.0334707221273332,1.5721400113731623
1761340698588404200,3.135404296875,6.302411460712552,-0.9185452430475503,1.7424550769805907
1761340698598471200,3.14547119140625,5.747136708298325,-0.8485920744426548,1.7305100799039006
1761340698608538000,3.1555380859375,5.1092865485280745,-1.1053836464978755,1.4073402020558714
1761340698618605000,3.16560498046875,3.9918928768932815,-1.3798308483615518,0.7567198464311659
1761340698628672000,3.175672119140625,1.4764426721155643,-0.710443248424679,0.1305717052945867
1761340698638739000,3.185739013671875,-1.766822625517845,0.8619755798898637,-0.06361291446639225
1761340698648806000,3.195805908203125,-5.347129674485325,1.8305138841837643,-0.06518957093227655
1761340698658872800,3.205872802734375,-6.728741853305697,-0.16402809429243206,0.0414430403701961
1761340698668938800,3.215938720703125,-8.394882921412586,-7.494848390632868,3.285842164339125
1761340698679006000,3.226005859375,-21.442133383750914,-11.367682341903448,7.936647570514679
1761340698689073000,3.236072998046875,-47.02500112934112,-0.20328524199090897,4.3950744490891696
1761340698699139800,3.246139892578125,-68.01304517595767,16.173940467858312,-6.539557252055406
1761340698709206800,3.256206787109375,-69.49483154718875,22.953620481240748,-13.323462189656496
1761340698719273700,3.266273681640625,-63.212544590616226,14.55441268236637,-12.171792738932371
1761340698729340700,3.276340576171875,-42.95859457099437,6.574002542492747,-11.72239945065975
1761340698739408100,3.286408203125,-24.2861410046339,2.8284225137382744,-13.143117312943934
1761340698749473800,3.296473876953125,-11.438597706604003,-0.2529366501927376,-12.698223674178124
1761340698759540700,3.306540771484375,-3.570437981382012,-2.1378703990891577,-10.448629222398996
1761340698769607700,3.316607666015625,0.9615390930563211,-2.4131487910799683,-7.62675569191277
1761340698779675000,3.3266748046875,3.9181507643342015,-1.0416685685649514,-4.915469611302018
1761340698789742000,3.3367421875,6.2098939205348485,0.40963966229408977,-2.461932841862738
1761340698799809000,3.34680908203125,8.287972698745131,1.1149854414492846,-0.5593874118974432
1761340698809876000,3.3568759765625,10.321150843477248,1.5684659990355372,0.7934858349010347
1761340698819943000,3.36694287109375,12.047445059251785,2.212016708534956,1.382120420603454
1761340698830009900,3.377009765625,13.389462894308567,2.930681695729494,1.3233857614316045
1761340698840076000,3.387075927734375,14.2702438585639,3.3645898301005364,0.9875918182015418
1761340698850143000,3.39714306640625,14.659575184583662,3.5548797622442243,0.5134145826105028
1761340698860210000,3.4072099609375,14.684185894227028,3.471287286800146,-0.202517253293097
1761340698870276900,3.41727685546875,14.513748663544654,3.4037063272193073,-0.9014715778455138
1761340698880343800,3.42734375,14.188915820920467,3.355270797613263,-1.4087497765928505
1761340698890411000,3.437410888671875,13.95309630974531,3.136981682431698,-1.6061384348258376
1761340698900478000,3.44747802734375,14.01703014499545,2.673230490721762,-1.6313810126319526
1761340698910545000,3.457544921875,14.45517489402294,2.215450628506392,-1.3720613834038375
1761340698920610800,3.46761083984375,15.052701226711273,1.9574210390888154,-0.8226528196092695
1761340698930678000,3.477677978515625,15.474581069636343,1.7913789746254682,-0.36123167828209696
1761340698940745000,3.487744873046875,15.145532655143738,1.2638378861807287,-0.10237037814757786
1761340698950812000,3.49781201171875,14.24373812895417,0.7098791848011314,-0.12119508826802484
1761340698960878800,3.50787890625,13.219123863303661,0.6464845709942281,-0.29801004642192275
1761340698970945800,3.51794580078125,12.347563147336244,0.5634883078776299,-0.6946079659111798
1761340698981012700,3.5280126953125,11.691997298133373,0.48214331909939645,-0.971027490761131
1761340698991079700,3.53807958984375,11.127529185438155,0.49211789288595315,-1.0081940959211437
1761340699001147000,3.54814697265625,10.666501573473214,0.49726957656070586,-0.6110536670530214
1761340699011212800,3.558212890625,10.151923573106528,0.23618439896479249,-0.18870067192455753
1761340699021279700,3.56827978515625,9.620118543606996,-0.060108066416904325,0.17517154746158048
1761340699031346700,3.5783466796875,9.113653122547268,-0.31737858109548683,0.6408687769390642
1761340699041414000,3.588413818359375,8.529786481899022,-0.5532023300543427,1.0675089661337434
1761340699051481000,3.598481201171875,7.980263424879312,-0.5405721271924674,1.3768930413439868
1761340699061548000,3.608548095703125,7.678480033931136,-0.5416769466292113,1.4790281585641205
1761340699071615000,3.618614990234375,7.480559753039479,-0.6760071642071008,1.3722519375398754
1761340699081682000,3.628681884765625,7.315576111587881,-0.7699140398513525,1.3980673467978835
1761340699091748000,3.638748046875,7.217844051632285,-0.9645047379288821,1.3463881590954958
1761340699101815000,3.64881494140625,6.962543010395765,-1.2581880437254904,1.0703410477545112
1761340699111882000,3.658882080078125,6.57686845331788,-1.4687491950035094,0.6306291224755346
1761340699121949000,3.668948974609375,6.082972006452083,-1.5109779789239168,0.02987038373723626
1761340699132015900,3.679015869140625,5.582403826737403,-1.0949695853155106,-0.5074960792817175
1761340699142082800,3.689082763671875,4.95019196511507,-0.5625494195923209,-0.6153374453194439
1761340699152150000,3.69914990234375,3.966782401034236,0.2593495859749615,-0.10476999576836823
1761340699162217000,3.709217041015625,2.443241877657175,0.7596759197577834,1.3665792987309395
1761340699172283000,3.719282958984375,-0.5314011248737573,0.8581438197072595,3.1618852375417945
1761340699182349800,3.729349853515625,-4.907917588487267,1.2585495705142618,4.563076561579108
1761340699192417000,3.7394169921875,-9.016285219728946,1.4893417550466954,4.493797273647785
1761340699202484000,3.74948388671875,-11.726571767908334,0.29431002286020663,3.293203340756893
1761340699212551000,3.759551025390625,-14.36004278743267,-3.0139807411849495,3.09894918115735
1761340699222617900,3.769617919921875,-19.453700974196195,-6.163689803242683,4.490390095552802
1761340699232684800,3.779684814453125,-29.87927665326595,-5.777348306688666,3.4832466046631336
1761340699242751700,3.789751708984375,-45.44753553903102,0.22667700429856777,-3.765505503191054
1761340699252818000,3.79981787109375,-61.35647716298103,8.562737734386324,-13.964444217711685
1761340699262884900,3.809884765625,-64.43138495881557,12.10522972422242,-20.72700592303276
1761340699272951800,3.819951904296875,-53.172993012714386,7.416852127760649,-19.899937844264507
1761340699283018800,3.830018798828125,-37.07062140502929,1.8553249387048183,-15.729318047249317
1761340699293085700,3.840085693359375,-23.32368596577644,0.18680135937556624,-12.540787379366158
1761340699303153000,3.85015283203125,-13.364206872498988,-0.20348646365143358,-9.692233931747078
1761340699313219800,3.8602197265625,-6.29100042438209,-0.3976201386764645,-6.821944453138113
1761340699323287000,3.870287109375,-1.0691337908565997,-0.3851658769033849,-4.147973665443063
1761340699333354000,3.88035400390625,2.968664512643218,-0.17814765892922876,-1.7204557188794016
1761340699343420000,3.890419921875,6.3323910039126865,0.2521244570270181,0.471450733236596
1761340699353487000,3.900487060546875,9.300219065731763,0.8922240031592548,2.0340449906945226
1761340699363554000,3.910553955078125,11.570243726599216,1.4448046941839157,2.594440154862404
1761340699373621000,3.92062109375,13.23669459130764,2.3503137108519674,2.3744123793199656
1761340699383688000,3.93068798828125,14.450374800264834,3.2206904777318237,1.9173491409413514
1761340699393755000,3.9407548828125,15.291004955917597,3.6765839416787025,1.6918766901269555
1761340699403821800,3.95082177734375,15.949593952333926,3.9755911459118125,1.77366766910702
1761340699413889000,3.960888916015625,16.28297601211667,3.776369134771824,2.0096677975460886
1761340699423955000,3.970954833984375,16.469727248740195,3.4344030787780877,2.2612273141667245
1761340699434022000,3.98102197265625,16.49975998343229,2.9898569382756945,2.2561159625023604
1761340699444088800,3.9910888671875,16.36906088889837,2.5154037352874874,1.9982110223777592
1761340699454156000,4.001156005859375,16.04977165187597,2.158612450605631,1.569397142405808
1761340699464223000,4.011222900390625,15.684560037112234,2.0440055359557268,1.1804271970443427
1761340699474289000,4.021288818359375,15.394944638341665,2.1549109657391905,0.7997008369583636
1761340699484355800,4.03135595703125,14.904320345014332,2.2224685444444416,0.49494391009211536
1761340699494423000,4.041423095703125,14.159301603901385,2.073011119557172,0.4882110216405242
1761340699504490000,4.051489990234375,13.181291268515587,1.7047490311816333,0.49856750741675493
1761340699514557000,4.061556884765625,11.762662487465143,1.3474322613209486,0.47028410061001774
1761340699524624000,4.071623779296875,9.910729967677593,1.3144120352506636,0.4720069058146327
1761340699534690800,4.08169091796875,8.303387710019946,1.4520916363216936,0.7139796058572828
1761340699544757800,4.0917578125,7.182961538821458,1.452212047830969,1.1334667084269225
1761340699554824000,4.101823974609375,6.404153925353288,1.263721566324681,1.4812760836213825
1761340699564891000,4.111890869140625,5.8627925474792715,1.245439621311426,1.676734504444152
1761340699574957800,4.121957763671875,5.349710923150181,1.5737797414042054,1.7071682211525738
1761340699585024800,4.132024658203125,4.868538348779082,2.0400423314131797,1.6296362147912382
1761340699595091700,4.142091796875,4.686365087595582,2.4156473298974332,1.3739933743797241
1761340699605159000,4.152158935546875,4.948330847418308,2.657107915699482,0.9975313206747174
1761340699615225900,4.162225830078125,5.567364663037657,2.5546938354074955,0.5527086282532662
1761340699625293000,4.17229296875,6.486776678982377,2.361225419358164,0.25385321704838426
1761340699635359500,4.182359375,7.543219915091991,2.150489496035129,0.08072965162517502
1761340699645425700,4.19242578125,8.531233173575997,1.9387401578858494,-0.05706863935550209
1761340699655492600,4.20249267578125,9.30859877154231,1.962857969445735,0.015563242372777312
1761340699665559600,4.2125595703125,9.734562668910621,2.155377560337633,0.2650875268387608
1761340699675626500,4.22262646484375,9.653886957696079,2.45117793135345,0.5351598198201507
1761340699685693400,4.232693359375,9.064794691354036,2.394728606639802,0.675644029983133
1761340699695760400,4.242760498046875,8.251564583802223,2.0087026057757438,0.4509865853460505
1761340699705827800,4.252827880859375,7.166075285950303,1.64659041833207,-0.021015114570502192
1761340699715894800,4.262894775390625,6.2225669396251435,1.300637630789727,-0.701411946837604
1761340699725960400,4.27296044921875,5.223430229580402,0.35117066832110283,-0.8933540301024914
1761340699736027600,4.283027587890625,3.5807308273375034,-1.7836672312043607,-0.07287702016234397
1761340699746094600,4.293094482421875,0.5253051460862159,-4.745453236380219,2.230438208149373
1761340699756161800,4.303161865234375,-6.647508508208394,-7.158615617594123,6.005028935071826
1761340699766228700,4.313228759765625,-23.894579143083096,-5.203914212727546,9.166748752918839
1761340699776295700,4.323295654296875,-50.78944367947578,3.647282443870604,4.457406694361567
1761340699786362600,4.333362548828125,-68.8646608360052,15.487428860771654,-7.0543071018576615
1761340699796429600,4.3434296875,-68.92305223469734,17.271905216401816,-11.913220128679274
1761340699806495700,4.353495849609375,-63.85592082033157,9.73036872435212,-8.348956452018022
1761340699816562700,4.363562744140625,-43.05140261855125,4.802029694604873,-6.917535993933678
1761340699826629600,4.373629638671875,-24.931027638912198,0.9735635851100086,-5.769722634115815
1761340699836696600,4.383696533203125,-15.135834267950058,-2.6616800459206105,-3.6687820357561107
1761340699846763500,4.393763427734375,-9.64566331923008,-3.8742128384083507,-2.4896324574321507
1761340699856830700,4.403830810546875,-6.20569471527934,-3.586937865284085,-2.078989463314414
1761340699866897700,4.413897705078125,-3.6471488806188104,-2.853470445755124,-1.523639015315473
1761340699876965600,4.423965576171875,-1.3357996911942958,-1.9445714943878352,-0.7122939908578991
1761340699887032600,4.434032470703125,1.0035539419651032,-0.9036530135378241,0.05897548219040036
1761340699897098500,4.444098388671875,3.4983284384608266,0.027296295465528964,0.3159994016967714
1761340699907165400,4.45416552734375,5.8859343536138535,0.5221592492759227,-0.09358721523582934
1761340699917232600,4.464232666015625,8.095666166082024,0.9566568739727139,-0.8421076077941805
1761340699927299600,4.474299560546875,10.127190113866329,1.4979466479152441,-1.4627954011656343
1761340699937366800,4.48436669921875,12.058522918105124,1.8200088567823172,-1.702056723357737
1761340699947433700,4.494433837890625,13.875672878324984,2.127714623516798,-1.4795681106597185
1761340699957500700,4.504500732421875,15.609376493573189,2.4389196305438876,-1.0838747753273694
1761340699967567600,4.514567626953125,17.097482715475557,2.470402271783352,-0.5757440514039248
1761340699977633800,4.5246337890625,18.33522885967493,2.3998908117085693,-0.03250540841594338
1761340699987700700,4.53470068359375,19.02059948003292,2.3691981518030167,0.24740371211543677
1761340699997767700,4.544767578125,19.269991589486597,2.4645892015904187,0.3154986856330186
1761340700007834600,4.554834716796875,18.891473918426037,2.4067539754763243,0.2053870365757495
1761340700017901600,4.564901611328125,17.773315107637643,2.295442595240474,0.14691555838473142
1761340700027968800,4.57496875,16.02378147057295,2.2014649193823335,0.09296762203276157
1761340700038035700,4.58503564453125,13.935907859057187,2.1644296124517917,-0.14030271611623465
1761340700048102700,4.5951025390625,11.859476848053932,2.2600277291186153,-0.24362090564109384
1761340700058168600,4.60516845703125,10.18442649730444,2.3181612075269222,-0.07316518945395946
1761340700068235500,4.615235595703125,8.84424932167828,2.242266593109071,0.14535075675342232
1761340700078302700,4.625302734375,7.54454619525969,2.203976609942317,0.3726781877847388
1761340700088369700,4.63536962890625,6.368173680433631,2.2967979553721842,0.5893635575640946
1761340700098436600,4.6454365234375,5.699973975107073,2.4052077689476308,0.7367261290639638
1761340700108503600,4.655503662109375,5.5051370471835135,2.246300963191688,0.8344774051766842
1761340700118570500,4.665570556640625,5.713764015528559,1.9821362320199607,0.9218802326891571
1761340700128637400,4.675637451171875,6.208864577487111,1.7926593698248265,1.0275932814612985
1761340700138703600,4.68570361328125,6.73906743248701,1.6779733985893428,1.1552392720349132
1761340700148770600,4.6957705078125,7.16488636842668,1.5779548351317643,1.2287751944974064
1761340700158837500,4.70583740234375,7.622081270360947,1.5299353389807044,1.1327405861094593
1761340700168904400,4.715904541015625,8.053683465877175,1.395320240046829,0.8490869452875107
1761340700178971600,4.7259716796875,8.466721830698848,1.2483927720285952,0.6157919110886753
1761340700189038600,4.73603857421875,8.83996126909554,1.1409512189634143,0.5743252341145649
1761340700199105500,4.74610546875,9.187152658522129,0.9037997285321354,0.6373736282996832
1761340700209172700,4.7561728515625,9.443338081377744,0.6411617685362696,0.7795451339624822
1761340700219238400,4.76623828125,9.355116192567348,0.4612557216323912,0.8829021941930055
1761340700229305600,4.7763056640625,8.909383764889835,0.32585341784358024,0.5971196515835822
1761340700239372500,4.78637255859375,8.33159556737244,0.403642321575433,0.22132099369075148
1761340700249439700,4.796439697265625,7.336521868982911,0.6307992183454334,-0.16685787435825913
1761340700259506700,4.806506591796875,6.208520294094085,0.873557735003531,-0.2094425773105584
1761340700269573600,4.81657373046875,4.659299970537424,1.0013650536186993,-0.23369992520529775
1761340700279640600,4.826640625,2.4152824421077965,1.529788916247338,0.09746705234386026
1761340700289707800,4.836707763671875,-0.7572036844253539,2.437410248894244,1.0382036689333618
1761340700299774700,4.846774658203125,-6.552465833467244,2.563891287341714,2.1513176174223423
1761340700309840600,4.856840576171875,-14.606442144811153,2.064885096246749,3.4007430934995413
1761340700319907600,4.866907470703125,-23.90197451403141,0.370379774649255,5.464184859070182
1761340700329974500,4.876974609375,-35.075199282717705,-0.6969437153823673,6.757272366741299
1761340700340041700,4.887041748046875,-49.074189913153646,3.1180130703285336,3.000514818151295
1761340700350108700,4.897108642578125,-61.98798526024818,9.714321844914554,-3.5306022300779816
1761340700360175600,4.907175537109375,-64.66697066123486,10.937480076313019,-8.705411928874254
1761340700370242600,4.91724267578125,-55.803262021327015,6.366586118981242,-11.811650097995996
1761340700380309500,4.9273095703125,-40.39078055725098,1.7826599538579582,-12.334493237882851
1761340700390375700,4.937375732421875,-25.906045222222804,-1.4669535437583923,-10.99309265794158
1761340700400442600,4.947442626953125,-15.31925372980237,-3.8090629053667184,-8.607453658947348
1761340700410509600,4.957509521484375,-8.000140091738105,-4.820212124766409,-6.618741847929358
1761340700420576500,4.967576416015625,-2.7413451187878843,-4.365098997542262,-4.991877728199959
1761340700430643500,4.9776435546875,1.247845513409376,-3.2465555713504552,-2.9194714426681396
1761340700440710700,4.987710693359375,4.587848014742136,-2.0405431205421687,-0.4400938372686505
1761340700450777600,4.997777587890625,7.401923438698053,-0.8810776091143488,1.5247905234381556
1761340700460844500,5.007844482421875,9.854290872097014,0.20445435883551835,2.616565769691765
1761340700470910500,5.017910400390625,12.463078701263665,1.874959175109863,3.4319589004963635
1761340700480977400,5.027977294921875,14.912763179188966,2.859727460323274,3.8157694172680374
1761340700491044600,5.038044677734375,16.578979066097734,3.0809640271335836,3.517991170307994
1761340700501111600,5.048111572265625,17.391055327439307,3.3317063821524378,2.659295196610689
1761340700511178500,5.058178466796875,17.444401133179664,3.715765028466284,1.5465319612555204
1761340700521245700,5.06824560546875,16.97036089490652,3.8888685557484624,0.5503121615707874
1761340700531312600,5.078312744140625,16.233430767703055,3.7666082037359474,-0.08523432436697184
1761340700541378600,5.088378662109375,15.540262625336647,3.6219498496934768,-0.16333755474500358
1761340700551445800,5.09844580078125,15.008098699396848,3.46355815385282,0.1092712527103722
1761340700561512700,5.1085126953125,14.599072492825984,3.359769278076291,0.43331952082812786
1761340700571579600,5.11857958984375,14.203542896687983,3.2548505214869974,0.6431406673938036
1761340700581646600,5.128646484375,13.842949004852771,3.0516128449648616,0.7027024250395596
1761340700591713800,5.1387138671875,13.483175781750678,2.89609261290729,0.7796731442563235
1761340700601780700,5.14878076171875,12.970589831984043,2.703132000249624,0.8466644673809408
1761340700611847700,5.15884765625,12.349301515436172,2.5424577464297413,0.7375324770107865
1761340700621913600,5.16891357421875,11.647087312304972,2.589469380712509,0.5724865839779376
1761340700631980800,5.178980712890625,10.959013862729073,2.6854639493510124,0.3865238673835993
1761340700642048000,5.189048095703125,10.267869335144757,2.7078736418187614,0.22652707443386316
1761340700652115000,5.199114990234375,9.452944114112853,2.652829215466976,0.22572423361837862
1761340700662182100,5.20918212890625,8.555928054371476,2.5052052896171806,0.4088847522735595
1761340700672249000,5.2192490234375,7.6978031585603945,2.1366798741303383,0.5657459506113082
1761340700682316000,5.22931591796875,6.896689605259895,1.7138002065129576,0.6568690407559276
1761340700692383000,5.239383056640625,6.120668407639861,1.4880473313219844,0.6493262241609394
1761340700702449200,5.24944921875,5.503311585322022,1.3421445301763713,0.5289936253406107
1761340700712516000,5.25951611328125,5.13712148091495,1.1885977901488542,0.5139123760648071
1761340700722583000,5.2695830078125,5.061005624961853,1.0485286635927855,0.7594233332362026
1761340700732650000,5.27964990234375,5.2202235424935814,0.8369140577390789,1.1472650052201
1761340700742717000,5.289717041015625,5.644017110085487,0.6287567527323961,1.5781374982222913
1761340700752784100,5.2997841796875,6.249895676055551,0.5007714472018182,1.8928468601085244
1761340700762851000,5.30985107421875,6.7263441445142025,0.3819216342851519,1.9560830684833228
1761340700772918000,5.31991796875,7.201538228997587,0.2715431509852409,1.8607713675424455
1761340700782984000,5.32998388671875,7.765602437067032,0.3501388410553336,1.871139909082651
1761340700793051000,5.34005078125,8.325223109731077,0.19997633663862943,1.710259026774764
1761340700803118000,5.3501181640625,8.587902570781111,-0.12018062312901019,1.2210250918272882
1761340700813185000,5.36018505859375,8.359009059476852,-0.2718881650306284,0.611599354769662
1761340700823252000,5.370251953125,6.91904172232151,-0.3096571930631995,-0.10268456779643893
1761340700833319000,5.38031884765625,3.5497225256115197,0.04563011679649353,-0.6268840907283127
1761340700843385900,5.3903857421875,-1.9350690681576728,0.16251315968483684,0.024648959294520316
1761340700853452800,5.400452880859375,-9.465551082229613,-0.8633063901022076,2.378433451529592
1761340700863519000,5.41051904296875,-20.907230388236044,-2.7601407124117014,6.941137234273553
1761340700873586000,5.4205859375,-39.279777463436126,-2.9570301889508963,9.381007005149126
1761340700883652900,5.43065283203125,-57.65738416011333,3.0912057274237275,2.246734240042418
1761340700893719800,5.4407197265625,-67.23120272483825,11.010087047362328,-8.836376396346092
1761340700903787000,5.450787109375,-66.16532472090721,10.371817200875281,-14.408838674783706
1761340700913854000,5.46085400390625,-54.95931061229705,4.470166222691535,-15.92038071733117
1761340700923921000,5.4709208984375,-38.884112258219716,0.8071008110165595,-16.3463662420094
1761340700933988000,5.480988037109375,-24.89562899327278,-1.589433529870957,-14.936444499027727
1761340700944054000,5.491053955078125,-14.939376460826397,-3.3517984453275798,-11.847556108635663
1761340700954121000,5.501120849609375,-8.010194452762603,-3.9458220305919647,-8.882031063061952
1761340700964188200,5.511188232421875,-2.523978379148245,-3.180389154742658,-6.47179479842782
1761340700974255000,5.521255126953125,2.0616437762379647,-1.8923177216678857,-4.351325908255577
1761340700984322000,5.531322021484375,5.945103166419267,-0.8039478999435902,-2.373867020396888
1761340700994389000,5.541388916015625,9.05078019452691,-0.12407704604566097,-0.5739222793368622
1761340701004456000,5.5514560546875,11.743236486983298,-0.00995586908608675,0.350784628145583
1761340701014522000,5.561522216796875,13.854407971978187,0.018441373358666895,0.18772757084239272
1761340701024589000,5.571589111328125,15.35860374341607,0.7293450789019466,-0.5543229315821081
1761340701034656000,5.581656005859375,16.17812330650091,2.0268629702359435,-0.8884648698214441
1761340701044723000,5.591722900390625,16.3125703553915,2.9352722383901475,-0.5985458849944174
1761340701054790100,5.6017900390625,15.925960563290118,3.1881913529261943,0.18666516577526926
1761340701064857000,5.611857177734375,15.323582698917388,3.071221216276288,0.8628296394359319
1761340701074924000,5.621924072265625,14.6129174783051,2.9292028553485867,1.1531135851178318
1761340701084991000,5.631990966796875,13.974391611230372,2.8456945510566234,1.1703256358772516
1761340701095057000,5.642056884765625,13.480248496127128,2.729765155631304,0.9995866457693279
1761340701105124000,5.6521240234375,13.031086678522824,2.396589578206092,0.6060915146009996
1761340701115191000,5.66219091796875,12.539653406900166,1.918784142180532,0.27376838928665964
1761340701125258000,5.672258056640625,11.936007130026816,1.4741425784796476,0.14753891444746403
1761340701135325000,5.682324951171875,11.1236783552289,1.2277116569191218,0.1611653618050739
1761340701145391900,5.692391845703125,10.207193624907731,1.2546522708147763,0.23563195271380244
1761340701155458800,5.702458740234375,9.258495893245934,1.3774778554946183,0.3033325931515545
1761340701165525000,5.71252490234375,8.400929800361395,1.368441585471481,0.3511347202248871
1761340701175592000,5.722592041015625,7.710526446533203,1.1386316899746656,0.33809929756298657
1761340701185659000,5.732658935546875,7.286960842478275,0.9921741775557398,0.36203108503147957
1761340701195725800,5.742725830078125,7.269211835297941,0.9813964706927537,0.5007371065407991
1761340701205793000,5.75279296875,7.4815271367669105,0.8689438114672898,0.6730007489327341
1761340701215860000,5.76285986328125,7.7127429535388945,0.6893949074380099,0.8428290539365262
1761340701225927000,5.772927001953125,7.949020145353675,0.5908346530299633,1.0283942225806415
1761340701235994000,5.782994140625,8.06505183210969,0.6443479973569513,1.1396890170078724
1761340701246059800,5.793059814453125,7.896545277228951,0.7737650892563164,1.138946893403679
1761340701256127000,5.803126953125,7.475092135283351,0.7547606021221727,0.9197028155848384
1761340701266194000,5.81319384765625,6.97370328683555,0.6704694768894464,0.5150929641515016
1761340701276261000,5.82326123046875,6.696684334787726,0.5943880346626043,0.1946948891043663
1761340701286328000,5.833328125,6.820453337797522,0.45761736513003703,0.015383885484188795
1761340701296395000,5.84339501953125,7.177178863766789,0.3103391839779913,-0.05652465497218072
1761340701306462000,5.8534619140625,7.654546785157918,0.272991157836467,-0.005290361493080854
1761340701316528000,5.863528076171875,8.190337084901332,0.2765240081377327,0.07754303921200334
1761340701326595000,5.873594970703125,8.785083431482315,0.22564751512035727,0.16815635320357977
1761340701336662000,5.883662109375,9.327588134172558,0.23228636861294508,0.07933116473779082
1761340701346729000,5.89372900390625,9.48402022037804,0.2177592460885644,-0.07216302667409182
1761340701356796000,5.9037958984375,9.148062172627448,0.1967168964512646,-0.5282500404316932
1761340701366863000,5.913863037109375,8.286848078629374,0.5209015042997897,-1.3904770377993583
1761340701376930000,5.923929931640625,7.220342298188805,1.3529602309621869,-2.0780434146359563
1761340701386997000,5.9339970703125,5.483663466522097,1.6089531999856233,-1.965498108690977
1761340701397063000,5.94406298828125,2.647974176651239,-0.29271146508976814,-0.32874782411083575
1761340701407130000,5.954130126953125,-2.6027625775277614,-4.946765497797728,3.6001708563446995
1761340701417197000,5.964197021484375,-16.535546751606464,-8.733464887925981,8.796458811977505
1761340701427264000,5.974263916015625,-42.16760084517002,-3.4609541088342666,7.230044777035713
1761340701437331000,5.9843310546875,-65.75656622536182,10.080837528014182,-4.5642447285756464
1761340701447398000,5.99439794921875,-69.38655471234321,18.645352793467044,-13.744766863042114
1761340701457464800,6.00446484375,-68.31114666352272,12.942476667177676,-12.160550044906138
1761340701467532000,6.014531982421875,-57.226787926769255,5.989343290162086,-9.593447394302487
1761340701477598000,6.024597900390625,-37.104582126820084,3.9169402195006606,-9.21447321164608
1761340701487665000,6.034664794921875,-22.713952477943895,1.7046365107178687,-7.581919355842471
1761340701497731800,6.04473193359375,-13.210393444359301,-0.44221031796596943,-5.771294413477182
1761340701507798800,6.054798828125,-6.598256693783402,-1.449066589412093,-4.924222826600074
1761340701517866000,6.064865966796875,-1.4287205514758825,-1.1724614788621663,-4.510019801913201
1761340701527933000,6.074932861328125,3.0216391469836235,-0.4894299689762294,-3.6726696908444163
1761340701538000000,6.084999755859375,6.7095999304622405,-0.480540267816931,-2.3282902412228283
1761340701548065800,6.095065673828125,10.04665702599287,-0.521117192877084,-1.0148287846952677
1761340701558133000,6.105133056640625,13.227203124862909,-0.09171981392875313,0.19147245645914227
1761340701568200000,6.115199951171875,15.876713425040244,0.468788747485727,0.8940753301143646
1761340701578267100,6.12526708984375,17.597362328404188,1.1419631724849342,1.213633008814603
1761340701588334000,6.135333984375,18.443572330015897,1.7029229847982525,1.239057811319828
1761340701598401000,6.145401123046875,18.503485823708772,1.9671156268902121,1.1440177669271827
1761340701608468000,6.155468017578125,17.831929793691636,1.8690318308874965,0.896193345181644
1761340701618535200,6.16553515625,16.608988419914244,1.5748564307250081,0.6447934761021286
1761340701628601000,6.17560107421875,15.242987651723622,1.2201980664186178,0.4343935067351907
1761340701638667300,6.185667236328125,14.030786283147334,1.0058560814276336,0.27620427466407416
1761340701648734200,6.195734130859375,13.048061194199322,0.9261943695612251,0.3048551265437156
1761340701658801400,6.205801513671875,12.308705301153658,0.752860832915455,0.4396828453149646
1761340701668868400,6.215868408203125,11.810362980794906,0.6055808981977403,0.668957611021772
1761340701678935300,6.225935302734375,11.393292583978175,0.3973929057918489,0.9610086394414306
1761340701689002500,6.23600244140625,10.995821206122637,0.25343524736464024,1.2540703792735934
1761340701699068400,6.246068359375,10.590731169956921,0.2283908224791288,1.5227645705685018
1761340701709135400,6.25613525390625,10.147670591837167,0.20876498857624828,1.5874790348023176
1761340701719202300,6.266202392578125,9.758350956255198,0.2096049465317279,1.331374422097951
1761340701729269500,6.27626953125,9.437378880712389,0.1836748248528689,0.800637387156114
1761340701739336400,6.28633642578125,9.016802521601319,0.11430354778915643,0.35847836098596453
1761340701749403400,6.2964033203125,8.48441413925588,-0.037205475865677,0.15463665415607392
1761340701759470300,6.30647021484375,7.887467652282118,-0.2401958996284753,0.03195715428288094
1761340701769537500,6.31653759765625,7.267803722065687,-0.44396030343845483,-0.1511092380817514
1761340701779603500,6.326603515625,6.816227829056978,-0.5994003098666668,-0.3324760143211111
1761340701789670400,6.33667041015625,6.585318886277079,-0.6745316117618233,-0.4908983610283583
1761340701799737300,6.3467373046875,6.527349512389302,-0.746196918046847,-0.5581542168406769
1761340701809804500,6.356804443359375,6.609254473137855,-0.7675383967611938,-0.5125734190786257
1761340701819871500,6.36687158203125,6.707056091198325,-0.6567459258329122,-0.40146738868914544
1761340701829938400,6.3769384765625,6.774108350729942,-0.6215658913802355,-0.2479131046759896
1761340701840005400,6.38700537109375,7.107629526722431,-0.680926135104522,0.04109285695934668
1761340701850071600,6.397071533203125,7.717645923149585,-0.874754470507428,0.6586820084620266
1761340701860138500,6.407138427734375,8.413575346922874,-1.2603015287481247,1.4272840889319776
1761340701870205400,6.417205322265625,9.089459177011252,-1.6747037292689084,2.2378191121809183
1761340701880272400,6.4272724609375,9.670142511448264,-1.9496553735233841,3.070010963703692
1761340701890339300,6.43733935546875,9.728648476430774,-1.8764543821036814,4.013856286898255
1761340701900406300,6.44740625,8.798322267761826,-1.7491775171034036,4.861400751984119
1761340701910473500,6.457473388671875,6.9666673968493935,-1.7605035054989158,5.688050313079357
1761340701920540400,6.46754052734375,4.366317141160368,-1.7326777793318031,6.659326371774077
1761340701930606300,6.4776064453125,1.4817664974868296,-0.7907626935474574,7.051465740951896
1761340701940673300,6.48767333984375,-0.6715443395793438,-0.36315044445022937,7.3030147361785165
1761340701950740200,6.497740234375,-3.539266598048806,-2.848076770018041,8.392652970403432
1761340701960807400,6.507807373046875,-13.340931210851668,-6.334706295117735,10.60934819214344
1761340701970874400,6.517874267578125,-35.168161644053455,-2.4121647484786806,8.679723945388197
1761340701980941300,6.52794140625,-59.86521686096191,9.816784440523385,-3.3298812125518915
1761340701991008300,6.53800830078125,-69.60359470424652,19.43147628290653,-17.590894009172917
1761340702001074400,6.548074462890625,-67.16204209485053,16.103268264263868,-21.46271556853056
1761340702011141400,6.558141357421875,-53.451679021191595,8.442139762628077,-18.47823564711809
1761340702021208300,6.568208251953125,-35.8974018012762,5.680922653156519,-16.01872652527094
1761340702031275500,6.578275634765625,-23.106926544380187,3.266293414260447,-12.802192582696675
1761340702041342500,6.588342529296875,-14.661934314930438,1.3337022805236278,-9.033758917099236
1761340702051409400,6.598409423828125,-9.354673709496856,0.4528995428279042,-5.535259798246622
1761340702061476400,6.608476318359375,-5.407478636986017,0.19971666278913616,-2.9635502383694052
1761340702071542500,6.61854248046875,-1.6970400642395018,0.6979892789125443,-1.400816937766969
1761340702081609500,6.628609375,1.6889911978185175,1.1390678894348443,-0.6149729228559881
1761340702091676400,6.638676513671875,4.871587214955687,1.0589067036136983,-0.2558697810351848
1761340702101743400,6.648743408203125,8.133803881296515,0.9429510047033428,-0.3209162902349606
1761340702111810600,6.658810546875,11.324358748483657,1.0042807949349284,-0.40819176504071797
1761340702121877500,6.66887744140625,14.123122037017344,1.193066459995508,-0.5072213539935648
1761340702131944400,6.6789443359375,16.20779597570896,1.7878224511876701,-0.6765580760881305
1761340702142011400,6.689011474609375,17.547197490787504,2.5309628312081096,-0.7960448717340827
1761340702152077300,6.699077392578125,18.169551975262163,3.0099416949272153,-0.7146268907848745
1761340702162144500,6.70914453125,17.9662365573287,3.062054451741278,-0.4991845068039372
1761340702172211500,6.71921142578125,17.237749264299868,2.914035973615944,-0.3180075631814077
1761340702182278400,6.7292783203125,16.237738694030046,2.7314284126684067,-0.15827860912131145
1761340702192345300,6.739345458984375,15.207447551786899,2.5871917911693454,-0.08162745898142457
1761340702202412300,6.749412353515625,14.213129055678843,2.301177485630661,-0.06316164530124514
1761340702212479200,6.759479248046875,13.328215521663427,2.016111712988466,-0.0020492972126230596
1761340702222545400,6.76954541015625,12.596352030199766,1.8788976836025715,0.09494544317806139
1761340702232612400,6.7796123046875,11.902163312613963,1.758104189272225,0.22816463077412916
1761340702242679300,6.78967919921875,11.06166759699583,1.6685454989001154,0.4167551568550989
1761340702252746200,6.799746337890625,10.158804564791918,1.4464496849119663,0.5848913075208664
1761340702262813400,6.8098134765625,9.311417920616268,1.1073963014945387,0.7008058707032352
1761340702272880400,6.81988037109375,8.567410986894368,0.8492629594415426,0.7631215301670133
1761340702282947300,6.829947265625,7.97191177611947,0.6801002787396311,0.7523403161726891
1761340702293013200,6.84001318359375,7.649456768542528,0.5989033201299607,0.7681247452817856
1761340702303080400,6.85008056640625,7.495054726859927,0.5593303114153444,0.8565951289605349
1761340702313147400,6.8601474609375,7.386977798500657,0.4496029855005443,0.9834889859925955
1761340702323214300,6.87021435546875,7.23773299345076,0.394886548994109,1.1141478215813636
1761340702333281500,6.880281494140625,6.962195219871401,0.4268997169137001,1.3023394662715493
1761340702343348500,6.890348388671875,6.625371495202184,0.5409970015410334,1.6236502722494304
1761340702353415400,6.90041552734375,6.277989551639556,0.48556006874032315,1.8896013023160396
1761340702363482400,6.910482421875,6.004641397058964,0.36853147990144786,1.9351735514454542
1761340702373548500,6.920548583984375,5.771974212434888,0.30972638584189116,1.7596311065785586
1761340702383615500,6.930615478515625,5.590958889114856,0.29706732221171256,1.5554897592149675
1761340702393682400,6.940682373046875,5.612966722783446,0.3018309564169496,1.3442105227954686
1761340702403749400,6.950749267578125,5.858083639135956,0.3489999001532793,1.0987055569734423
1761340702413816600,6.960816650390625,6.213441383883357,0.3878651989899575,0.8155779127869754
1761340702423883500,6.970883544921875,6.432319697129726,0.41782033840119837,0.40588272091336547
1761340702433950500,6.980950439453125,6.207618376818299,0.7419388952761888,0.03612959026247263
1761340702444016400,6.991016357421875,5.295806899005174,1.3664822680972515,-0.24433701802119612
1761340702454083300,7.001083251953125,3.1520898197144267,1.865094345308095,-0.7897611883547156
1761340702464150500,7.011150634765625,-0.3894178352594375,2.808831385822594,-1.4580921919107437
1761340702474217500,7.021217529296875,-4.891456283029914,4.756442247906327,-1.6118115120261907
1761340702484284400,7.031284423828125,-8.71539731631577,5.426732788032293,-0.2462291519107297
1761340702494351400,7.041351318359375,-8.498283090132475,1.877921970438212,3.9155443812280892
1761340702504418300,7.051418212890625,-5.120297187364101,-8.05134245570898,11.096726050895452
1761340702514484500,7.061484375,-7.5832140718281265,-19.06183633030653,14.901097291314601
1761340702524551400,7.071551513671875,-22.571258994233606,-17.514515702891348,4.330460522620379
1761340702534618400,7.081618408203125,-44.57022897288799,-8.934961273738741,-13.3109195189476
1761340702544685300,7.091685302734375,-61.14800392389297,-1.009421080432832,-28.081418253493307
1761340702554752300,7.101752197265625,-62.95187588486671,3.3259500105828046,-34.03436453462839
1761340702564819500,7.1118193359375,-50.111973456978795,0.5433797319591045,-27.76850498124361
1761340702574886400,7.121886474609375,-31.469293097591397,-2.9414620329409837,-17.73072450466752
1761340702584953300,7.131953369140625,-16.395058084464072,-3.0689854200482367,-10.0762174669981
1761340702595019300,7.142019287109375,-6.798937671560049,-2.3508397805526853,-3.761140585979819
1761340702605086200,7.152086181640625,-1.1216764635205267,-1.484472979966551,0.5871693719880655
1761340702615153400,7.1621533203125,2.5741174978017805,0.3700926648035645,2.9138322677373885
1761340702625220400,7.172220458984375,5.121271585354209,1.9238586689658461,4.4241035596966745
1761340702635287800,7.182287841796875,6.682768037638068,2.6439620184004307,5.583448367354274
1761340702645354800,7.192354736328125,7.802115181428194,3.209906048867106,5.7412365443438285
1761340702655421700,7.202421630859375,8.711979616826772,3.449546579635143,5.0511406490296125
1761340702665488000,7.21248779296875,9.221595026350021,3.046447717286646,4.136507684054971
1761340702675554800,7.222554931640625,9.412451944726705,2.4217837868258356,2.520214058178663
1761340702685621800,7.232621826171875,9.60560018891096,2.3401424454495308,0.29394299791241063
1761340702695688700,7.242688720703125,9.997580568134785,2.6703271704956886,-1.3189173838458954
1761340702705755600,7.252755615234375,10.77624555826187,2.9018288184717296,-1.7535072168707846
1761340702715822600,7.262822509765625,11.88722994737625,2.772361311559379,-1.539552185370773
1761340702725889800,7.272889892578125,13.064410271453857,2.547918349923193,-1.0705567363318056
1761340702735955700,7.282955810546875,14.154473453092574,2.5163027299538254,-0.8372904167708008
1761340702746022700,7.293022705078125,15.034956311184168,2.5923408444955944,-0.7685176901221275
1761340702756089600,7.303089599609375,15.490976908642052,2.7731387256726623,-0.5321681637234985
1761340702766156800,7.31315673828125,15.262009163057803,2.983237520135939,0.08060248158155009
1761340702776223700,7.3232236328125,14.433475103390215,2.956030364258587,0.8351013092286884
1761340702786290700,7.333290771484375,13.225640113329886,2.7901412983998655,1.326174076975882
1761340702796357600,7.343357666015625,11.869944466054438,2.656788182225823,1.6246698245555162
1761340702806423600,7.353423583984375,10.546866309267282,2.470195351034403,1.790189180319011
1761340702816490800,7.36349072265625,9.368053415551781,2.322615702717751,1.7895679796807467
1761340702826557700,7.3735576171875,8.365254675868153,2.3218353659950197,1.667272410224378
1761340702836624600,7.383624755859375,7.5176745549470185,2.295738363316655,1.479520472125709
1761340702846691800,7.39369189453125,6.839263252207637,2.0023622968383132,1.2214721780076623
1761340702856758800,7.4037587890625,6.359287194144725,1.5236524593189358,0.8674281462073326
1761340702866825700,7.41382568359375,6.101966629779339,1.1053257788307964,0.3713417150165885
1761340702876891600,7.4238916015625,6.0618403710961335,0.7406203600235283,-0.18721753896102308
1761340702886958800,7.433958740234375,6.144738434535265,0.5119363998167217,-0.6372438644401729
1761340702897025800,7.44402587890625,6.351021470102667,0.39767859086543317,-0.7989509684391319
1761340702907092700,7.4540927734375,6.724025930699706,0.4944241240017116,-0.6108045145975426
1761340702917159700,7.46415966796875,7.231743397647142,0.6626352030672132,-0.2364518907945603
1761340702927227000,7.474226806640625,7.695542227891087,0.7856701927140355,0.3043239422764629
1761340702937293800,7.4842939453125,7.638496398589014,0.7191400573603809,0.42826526964586226
1761340702947360800,7.49436083984375,3.0157904209554194,-0.7866941289342939,-4.16530415495038
1761340702957426700,7.5044267578125,0.035375849285721774,-1.4165763785652816,-8.519291975891589
1761340702967494000,7.514493896484375,3.685296532705426,-1.435272018945962,-5.0501574832111595
1761340702977560800,7.524560791015625,4.813610826805234,-1.9138598375208675,0.18587193303834645
1761340702987627800,7.534627685546875,4.62829166881144,-1.0122609800338744,2.1751319159910083
1761340702997694700,7.54469482421875,2.3356062633246184,0.9943594126403331,1.8664871148407458
1761340703007761700,7.55476171875,-1.1878589544802904,2.317387154414505,1.1735985931333153
1761340703017828600,7.56482861328125,-5.027890121823549,3.2582240895733237,1.8781416045382617
1761340703027894800,7.574894775390625,-8.122754664015769,3.4663290798708792,3.2637633112609383
1761340703037961700,7.584961669921875,-9.400509577998518,2.025319394055754,3.7929587427839633
1761340703048028700,7.595028564453125,-9.06730521287024,-0.06499898026362061,2.5408324833154676
1761340703058095600,7.605095703125,-7.5279282379359005,-0.5463272566530853,-0.29988725673696026
1761340703068162600,7.61516259765625,-6.26209347884953,-0.2580185565669089,-3.743508775438368
1761340703078229800,7.625229736328125,-7.659084428587556,-0.3303027254026383,-7.027656410819292
1761340703088296700,7.635296630859375,-11.097989787220953,1.715219864052534,-7.982364196550845
1761340703098362600,7.645362548828125,-16.296414170360563,4.747464868463576,-7.537354237928986
1761340703108429600,7.6554296875,-21.445677924489974,6.7549325256168835,-6.4128218004554505
1761340703118496800,7.665496826171875,-20.93217310631275,6.136756203609704,-4.4377024614602325
1761340703128563700,7.675563720703125,-15.135202984309196,3.6457235239908097,-2.386957972638309
1761340703138630700,7.685630615234375,-11.475855131852626,2.3119988855049014,0.08792882414795458
1761340703148697600,7.695697509765625,-8.236714805194735,1.6165924626924097,1.689893115094304
1761340703158764800,7.705764892578125,-5.837290441954136,0.8019751385658979,2.831577178376913
1761340703168830700,7.715830810546875,-3.7187154027044773,-0.0422659375930205,3.0582188191011546
1761340703178897700,7.725897705078125,-2.725897958809137,-0.4095768992561847,2.767114350816607
1761340703188964900,7.73596484375,-3.059797904986143,0.25571780534386634,2.9768264840498566
1761340703199031800,7.74603173828125,-2.8404835384100675,0.6796629833009094,2.860384170666337
1761340703209098800,7.7560986328125,-2.224893725764751,-0.24882073930650947,2.4639830523908137
1761340703219165700,7.766165771484375,-0.9218348591774701,-1.3173346446990966,2.0726623061195015
1761340703229233000,7.77623291015625,1.0128180293947457,-2.098764861755818,1.4140654186576604
1761340703239298800,7.786298828125,2.8434003026396035,-2.783848043474555,0.5839093107461929
1761340703249365800,7.79636572265625,4.166450986897945,-2.979817482559383,0.1031846262730658
1761340703259432700,7.8064326171875,4.660513437980413,-2.9029028774440286,-0.3834894681237638
1761340703269500000,7.8165,4.784893850886822,-2.4874454687818885,-0.5117281638935208
1761340703279566800,7.82656689453125,5.329885109695792,-1.501133315127343,0.053963937638700006
1761340703289633800,7.8366337890625,5.7370010987311595,-0.6309514862976968,0.4744824290826916
1761340703299700700,7.84670068359375,5.767663948020338,0.022074761424958705,0.8282888527348637
1761340703309766700,7.8567666015625,5.792149569979309,0.5537643843838945,0.9604331776410341
1761340703319833900,7.866833740234375,5.936953762233257,0.7110998857025057,0.6817845054995268
1761340703329900800,7.87690087890625,5.969718552237749,0.6631013592742383,0.288429184660688
1761340703339967700,7.8869677734375,6.897974968895316,0.30593915892075746,-0.060251566540822386
1761340703350034700,7.89703466796875,7.226001639124751,-0.1136495591261424,-0.5051753081839532
1761340703360101600,7.9071015625,5.511408382537961,-0.4399769328907132,-2.14251939393878
1761340703370167800,7.917167724609375,5.146686597117782,-1.3119697566650808,-2.330302603958547
1761340703380234800,7.92723486328125,4.505316446527838,-2.9483982619449494,-2.5070970947131515
1761340703390301700,7.9373017578125,2.516066290849447,-2.8086490149930117,-2.3515163646399975
1761340703400368600,7.94736865234375,1.8508429709851741,-0.8987470482524483,0.33012868400998413
1761340703410435600,7.957435546875,0.07558101842403411,-0.42282888727821405,1.3798561289332807
1761340703420502800,7.967502685546875,-1.755923630362749,-0.36320199197437614,0.5732474853478372
1761340703430569700,7.97756982421875,-2.646506442186236,-0.5865273842900991,-0.6125524907760321
1761340703440636700,7.98763671875,-3.1896669784367084,-0.7129249091725796,-0.5983057195629924
1761340703450702600,7.99770263671875,-3.5591771671772,0.1327572509064339,0.2641922037005424
1761340703460768800,8.007768798828126,-4.528974385491013,0.9304327377833426,0.48372510839812455
1761340703470835700,8.017835693359375,-6.536290359213948,1.3010286759339271,-0.6080518183559179
1761340703480902700,8.027902587890624,-8.895749207291006,2.3665885538265106,-1.2861018865674734
1761340703490969600,8.037969482421875,-10.523727425742148,3.4663790564924475,-1.5652541973821819
1761340703501036500,8.04803662109375,-10.316215140640734,3.8138077618062494,-1.376117088535428
1761340703511102700,8.058102783203125,-7.553736632931232,2.459433426262438,-2.168583517260849
1761340703521169700,8.068169677734375,-3.9750948868274687,1.2219171452961861,-2.550565357300639
1761340703531236600,8.078236572265626,-0.3214817786306143,1.0653116752851755,-2.114044117821753
1761340703541303600,8.088303466796875,3.169684513115883,0.7848493778504431,-1.8123136261045931
1761340703551370500,8.09837060546875,5.647780262011289,0.04952604652279988,-1.3603864354401827
1761340703561438000,8.10843798828125,6.895061127275228,-0.4527584903893992,-0.665235083367303
1761340703571505000,8.1185048828125,7.188654197505116,-0.4293138653833419,-0.14500132226124404
1761340703581570600,8.128570556640625,6.780263366228342,-0.2573612982345745,0.3476026371086016
1761340703591637800,8.1386376953125,6.2633841031819575,-0.4571842709423974,0.7208212884455919
1761340703601705000,8.148705078125,5.829547280481457,-0.6922935514889658,0.722774249144271
1761340703611772000,8.15877197265625,5.218105235165357,-0.7081642706420272,0.4320082920990884
1761340703621838800,8.1688388671875,4.161878272154927,-0.8532324475944042,0.24810586903542278
1761340703631905800,8.17890576171875,2.5410809051185845,-0.9353508318979292,0.3317251959538087
1761340703641972200,8.18897216796875,0.4404232153534889,-0.79567450405173,0.5280406354647129
1761340703652038400,8.199038330078125,-2.3090800754487515,-0.49621027676612134,0.6381211587313562
1761340703662105300,8.209105224609376,-5.001220141562819,-0.0231941847757902,0.6131628046941012
1761340703672172300,8.21917236328125,-6.707540075322985,0.5049329507954419,0.24213095934428272
1761340703682239200,8.2292392578125,-7.179440963479876,0.8281885341655463,-0.546298030558601
1761340703692306200,8.23930615234375,-6.4693222708344456,0.8686397870194167,-1.3164914718732237
1761340703702373400,8.249373291015624,-4.863243749502301,0.4291595150718465,-1.516009981741756
1761340703712440300,8.2594404296875,-2.8355571879237886,-0.12625859133582562,-1.2412354476198553
1761340703722506200,8.26950634765625,-0.9838906255960463,-0.23353214915664866,-0.8186026674356311
1761340703732573200,8.2795732421875,0.5075292508989572,-0.07517101285103708,-0.20739771881103514
1761340703742640400,8.289640380859375,1.6990134101390837,-0.0037089375205338,0.35909298575296994
1761340703752707300,8.299707275390626,2.479038582703471,-0.026117680140212176,0.6778421245492995
1761340703762774300,8.309774169921875,2.7738620715111493,-0.03072093615196645,0.8445579966209829
1761340703772841200,8.31984130859375,2.643558698296547,0.034701639818586406,0.9013831689096987
1761340703782908200,8.329908203125,2.203657460990548,0.03949095645435154,0.8331973753035068
1761340703792974300,8.339974365234376,1.6580378411501646,0.01066518639922142,0.594650996447727
1761340703803041300,8.350041259765625,1.1867939555972813,-0.06439659392368048,0.3426837027437985
1761340703813108200,8.360108154296874,0.7170254032939672,-0.23741507327090947,0.17762283133752643
1761340703823175200,8.370175048828125,0.3680295947939157,-0.29989505645092573,0.013735460690036415
1761340703833242000,8.3802421875,0.26371757192611694,-0.19242226799726486,-0.1542017698701471
1761340703843310300,8.390310302734376,0.24980770451724527,-0.14380933599770068,-0.0008115355785936117
1761340703853377300,8.400377197265625,0.24339842199683187,-0.06750800394248217,0.4209050796087831
1761340703863444200,8.4104443359375,0.21445523610711095,-0.04210610738880932,0.6770286162093281
1761340703873510400,8.420510498046875,0.13384323777854443,-0.06096475631147623,0.6651214669249952
1761340703883577300,8.430577392578124,-0.008401333120465279,-0.08697360578235239,0.5042627964489161
1761340703893644300,8.440644287109375,-0.29718320367634293,-0.08187909565493463,0.3110566845975816
1761340703903711200,8.450711181640624,-0.6468237398207187,-0.1456821806648746,0.1674652291342616
1761340703913778400,8.4607783203125,-0.9339841466546058,-0.25822675595749167,-0.020993322863802313
1761340703923845400,8.470845458984375,-1.0178910948753357,-0.3118268652524799,-0.20809110790267585
1761340703933912300,8.480912353515626,-0.9936515566319226,-0.34596257828399535,-0.283311695516482
1761340703943978200,8.490978271484375,-0.8802373588979244,-0.3323678047062829,-0.2924653813742101
1761340703954045200,8.501045166015626,-0.6005857202589512,-0.3110493050087243,-0.3230191442657262
1761340703964112400,8.5111123046875,-0.24250527254939078,-0.3903673910692334,-0.3431318849027157
1761340703974179300,8.521179443359374,-0.028674305820465085,-0.564405678450875,-0.3817874134462326
1761340703984246300,8.531246337890625,0.01745382362604141,-0.6185154908336699,-0.43024990412443875
1761340703994313200,8.541313232421874,-0.02450432665944099,-0.4836470747258514,-0.2898966999299824
1761340704004380200,8.551380126953125,-0.11242869382798672,-0.331207857548818,0.043538989736139774
1761340704014446300,8.5614462890625,-0.19616963783204555,-0.35048604705780745,0.3534788721982389
1761340704024513300,8.57151318359375,-0.35033903980255127,-0.31187855890709903,0.5320793894615024
1761340704034580200,8.581580322265625,-0.44780455777645106,-0.18280140301920472,0.5543021079897881
1761340704044647200,8.591647216796876,-0.5196498968034983,-0.19548191129621117,0.4090134201545268
1761340704054714000,8.601714111328125,-0.3980027082532644,-0.3012996625518426,0.2751043505981564
1761340704064781300,8.61178125,-0.030797873845696447,-0.2839282930448651,0.2643929869696498
1761340704074848300,8.62184814453125,0.2442681905686855,-0.25435484642758965,0.33678668059445915
1761340704084914200,8.6319140625,0.41699265540540215,-0.22664854538906365,0.4282323537569493
1761340704094981000,8.641981201171875,0.5607236654698848,-0.16782189708482473,0.5444473611906171
1761340704105048000,8.652048095703124,0.5382914689093828,-0.17478201842103153,0.5359712092682719
1761340704115115300,8.662115234375,0.32016017463803287,-0.1455375845624134,0.3275550341296941
1761340704125182500,8.672182373046875,0.11752864731550217,-0.09828574831560254,0.05730930254384875
1761340704135249400,8.68224951171875,-0.09969956063628196,-0.11931235239449887,-0.07020217492990195
1761340704145315000,8.692315185546875,-0.21265958486199377,-0.13862663613017648,-0.036362303039804096
1761340704155382300,8.70238232421875,-0.2736141120404005,-0.18584698126018045,-0.0010417641378939152
1761340704165449500,8.712449462890625,-0.28902210905253883,-0.19272263918332755,-0.02115377412252128
1761340704175516400,8.722516357421876,-0.2629682148635387,-0.10363803259637207,-0.07012545643188059
1761340704185583400,8.732583251953125,-0.18026070556044577,-0.0005791515948250889,-0.04241400429420173
1761340704195650300,8.742650390625,-0.17767244263291357,0.030391923393309116,0.14522826288491486
1761340704205717200,8.75271728515625,-0.31902327956259247,0.09179737267699092,0.23376856999471782
1761340704215783400,8.762783447265624,-0.7215250528007745,0.2970950139362365,0.05819828727282583
1761340704225850400,8.772850341796875,-0.9752285957127809,0.339109351388365,-0.42938298509679734
1761340704235917300,8.782917236328124,-0.16217852090299129,0.5699195830341428,-0.5087742094587534
1761340704245984300,8.792984375,0.7727993129640817,0.22443119813315568,-0.08472659404054284
1761340704256051200,8.80305126953125,1.4010767577469347,-0.19887538965940474,0.13042816863805054
1761340704266118400,8.813118408203126,1.5397832176476716,-0.5818817504413426,0.0022265900082886216
1761340704276185300,8.823185302734375,0.855987299260497,-0.39777551190126686,-0.3739781279347837
