time,seconds_elapsed,z,y,x
1761340695528068900,0.07506884765625,0.2764098048210144,0.49517935514450073,-0.4180932939052582
1761340695538136000,0.085135986328125,0.22772908210754395,0.5037960410118103,-0.3165256679058075
1761340695548201700,0.09520166015625,0.19158287346363068,0.481010377407074,-0.22872403264045715
1761340695558268700,0.1052685546875,0.18380405008792877,0.4048290550708771,-0.154427170753479
1761340695568336100,0.115336181640625,0.21983735263347626,0.3312443196773529,-0.10809239000082016
1761340695578403000,0.125403076171875,0.23268736898899078,0.2873290479183197,-0.09846639633178711
1761340695588470000,0.135469970703125,0.18750253319740295,0.2777400612831116,-0.10250970721244812
1761340695598537000,0.145536865234375,0.14153796434402466,0.3162544369697571,-0.10270331799983978
1761340695608604000,0.15560400390625,0.12550170719623566,0.3647679090499878,-0.09850913286209106
1761340695618670800,0.1656708984375,0.15502363443374634,0.4272509813308716,-0.10013419389724731
1761340695628738000,0.175738037109375,0.22294197976589203,0.4589938521385193,-0.11295119673013687
1761340695638804700,0.1858046875,0.29906898736953735,0.4451480507850647,-0.14902345836162567
1761340695648870700,0.19587060546875,0.3630375266075134,0.42674437165260315,-0.18642525374889374
1761340695658937600,0.2059375,0.4011838436126709,0.39587992429733276,-0.19611702859401703
1761340695669004800,0.2160048828125,0.3861706256866455,0.39278551936149597,-0.14333996176719666
1761340695679071700,0.22607177734375,0.34358829259872437,0.3603098690509796,-0.032022230327129364
1761340695689138700,0.236138671875,0.28951093554496765,0.3567267656326294,0.1549358069896698
1761340695699205600,0.24620556640625,0.24617436528205872,0.3925076723098755,0.4011400043964386
1761340695709272600,0.2562724609375,0.19238004088401794,0.4195546507835388,0.637321949005127
1761340695719339500,0.266339599609375,0.1374392956495285,0.4006294310092926,0.8268516659736633
1761340695729406700,0.27640673828125,0.111109659075737,0.34014514088630676,0.9589073657989502
1761340695739473700,0.2864736328125,0.11205641180276871,0.2686011791229248,1.0189381837844849
1761340695749540600,0.29654052734375,0.08890265971422195,0.25179147720336914,1.0471521615982056
1761340695759606500,0.3066064453125,0.004324387758970261,0.25905895233154297,1.0977892875671387
1761340695769673500,0.316673583984375,-0.07050156593322754,0.2941228449344635,1.1290385723114014
1761340695779740700,0.32674072265625,-0.08895033597946167,0.34242379665374756,1.1601197719573975
1761340695789807600,0.3368076171875,-0.08396320044994354,0.4671311378479004,1.179221510887146
1761340695799874600,0.34687451171875,-0.11921440064907074,0.6559452414512634,1.1766393184661865
1761340695809941500,0.35694140625,-0.12809163331985474,0.8167920708656311,1.1614569425582886
1761340695820008400,0.367008544921875,-0.08455827087163925,0.9875558614730835,1.1918898820877075
1761340695830075400,0.377075439453125,0.0302574522793293,1.1575498580932617,1.3009312152862549
1761340695840142600,0.387142578125,0.18949104845523834,1.1546549797058105,1.3691304922103882
1761340695850209800,0.397209716796875,0.41201698780059814,0.628163754940033,1.3485232591629028
1761340695860275500,0.407275390625,0.6542405486106873,-0.4753228724002838,1.1670325994491577
1761340695870342400,0.41734228515625,1.01820969581604,-1.6988894939422607,0.9364230036735535
1761340695880409600,0.42740966796875,1.4841866493225098,-2.5276412963867188,0.7377645373344421
1761340695890476800,0.437476806640625,1.9092071056365967,-2.5792338848114014,0.6721784472465515
1761340695900543700,0.447543701171875,2.0518381595611572,-1.855469822883606,0.7956631183624268
1761340695910610700,0.457610595703125,1.9164259433746338,-0.9167304635047913,1.054257869720459
1761340695920677600,0.467677734375,1.6559981107711792,-0.02982618845999241,1.388437271118164
1761340695930744600,0.47774462890625,1.335361123085022,0.5474773049354553,1.6830682754516602
1761340695940811500,0.4878115234375,1.0041446685791016,0.7647443413734436,1.8100656270980835
1761340695950878700,0.497878662109375,0.6693145036697388,0.7322520017623901,1.7231215238571167
1761340695960945700,0.507945556640625,0.330637663602829,0.5718870759010315,1.4915910959243774
1761340695971011600,0.518011474609375,0.030927807092666626,0.21909281611442566,1.146886944770813
1761340695981078500,0.52807861328125,-0.17925553023815155,-0.23966996371746063,0.7433379292488098
1761340695991145700,0.538145751953125,-0.26702746748924255,-0.730087399482727,0.2882399559020996
1761340696001212700,0.548212646484375,-0.20373904705047607,-1.1161435842514038,-0.19222329556941986
1761340696011279600,0.558279541015625,-0.10208169370889664,-1.37684965133667,-0.7230528593063354
1761340696021346600,0.5683466796875,-0.08879278600215912,-1.4626619815826416,-1.3234164714813232
1761340696031413500,0.57841357421875,-0.21527443826198578,-1.2282559871673584,-1.9526679515838623
1761340696041480400,0.58848046875,-0.45038309693336487,-0.651904821395874,-2.5023438930511475
1761340696051547600,0.598547607421875,-0.7650318741798401,0.16144268214702606,-2.8345723152160645
1761340696061613600,0.608613525390625,-1.0945911407470703,0.9788333773612976,-2.7624964714050293
1761340696071680500,0.618680419921875,-1.3463380336761475,1.5939944982528687,-2.2161450386047363
1761340696081747500,0.62874755859375,-1.4172548055648804,2.0193915367126465,-1.275966763496399
1761340696091814400,0.638814453125,-1.3107552528381348,2.234297513961792,-0.19483786821365356
1761340696101881600,0.648881591796875,-1.1290922164916992,2.14363431930542,0.769860565662384
1761340696111948500,0.658948486328125,-0.9502878189086914,1.8408379554748535,1.5310872793197632
1761340696122015700,0.669015625,-0.7971839904785156,1.4335529804229736,2.1014623641967773
1761340696132082700,0.679082763671875,-0.6717015504837036,0.9202699065208435,2.511664628982544
1761340696142149600,0.689149658203125,-0.5817596316337585,0.4082753360271454,2.7567710876464844
1761340696152216600,0.699216552734375,-0.4979451894760132,-0.04680729657411575,2.8569488525390625
1761340696162283800,0.70928369140625,-0.4003201127052307,-0.4769514799118042,2.7410337924957275
1761340696172349700,0.719349609375,-0.3039175570011139,-0.780924916267395,2.3861565589904785
1761340696182416600,0.729416748046875,-0.21777468919754028,-0.8977721929550171,1.770964503288269
1761340696192483600,0.739483642578125,-0.1265888512134552,-0.7822048664093018,0.9828298687934875
1761340696202550500,0.749550537109375,-0.023589495569467545,-0.5084779858589172,0.12496735900640488
1761340696212617700,0.75961767578125,0.07615724205970764,-0.2176378071308136,-0.7205026745796204
1761340696222684700,0.7696845703125,0.15539641678333282,0.014103015884757042,-1.403137445449829
1761340696232751600,0.779751708984375,0.23042775690555573,0.1727178543806076,-1.872468113899231
1761340696242818600,0.789818603515625,0.27143484354019165,0.25287848711013794,-2.130798101425171
1761340696252885500,0.799885498046875,0.273334801197052,0.281319260597229,-2.172085762023926
1761340696262952400,0.809952392578125,0.2776443362236023,0.2795006036758423,-2.0319905281066895
1761340696273018600,0.8200185546875,0.2953452467918396,0.25619688630104065,-1.7383242845535278
1761340696283085600,0.83008544921875,0.3288169205188751,0.1719546914100647,-1.3121846914291382
1761340696293152500,0.840152587890625,0.4042353928089142,-0.007489456329494715,-0.7983518838882446
1761340696303219500,0.850219482421875,0.48003774881362915,-0.22262200713157654,-0.23298543691635132
1761340696313286700,0.86028662109375,0.536218523979187,-0.4124538004398346,0.3285236060619354
1761340696323353600,0.870353515625,0.5599523186683655,-0.5740535855293274,0.8054448962211609
1761340696333420500,0.880420654296875,0.5479633212089539,-0.6786945462226868,1.1594747304916382
1761340696343487500,0.890487548828125,0.4959182143211365,-0.6755096912384033,1.4207249879837036
1761340696353554700,0.9005546875,0.4107199013233185,-0.5455386638641357,1.6017115116119385
1761340696363621600,0.91062158203125,0.3242236375808716,-0.27886494994163513,1.7016295194625854
1761340696373687600,0.9206875,0.2556401193141937,0.0867539569735527,1.7084097862243652
1761340696383754500,0.93075439453125,0.22226405143737793,0.5989834070205688,1.6059670448303223
1761340696393821700,0.94082177734375,0.1676635593175888,1.1381268501281738,1.405912160873413
1761340696403888600,0.950888671875,0.16832083463668823,1.5855435132980347,1.139769196510315
1761340696413955600,0.96095556640625,0.2527889013290405,1.8178071975708008,0.9132931232452393
1761340696424022800,0.971022705078125,0.3605891168117523,1.784464716911316,0.7113656401634216
1761340696434089700,0.98108984375,0.3210236132144928,1.5767987966537476,0.42657846212387085
1761340696444156700,0.99115673828125,0.1819128692150116,0.532717764377594,-0.22080056369304657
1761340696454223600,1.0012236328125,0.4397405982017517,-2.077197551727295,-1.6266207695007324
1761340696464290600,1.01129052734375,1.3816440105438232,-4.8254075050354,-3.218212366104126
1761340696474356700,1.021356689453125,2.2810661792755127,-6.203346252441406,-3.7475762367248535
1761340696484423700,1.031423583984375,2.1651086807250977,-5.47370719909668,-2.6864876747131348
1761340696494490600,1.04149072265625,1.1152207851409912,-2.756399631500244,-0.6235039830207825
1761340696504557600,1.0515576171875,0.04309181496500969,0.16883507370948792,1.503883957862854
1761340696514624500,1.06162451171875,-0.8692786693572998,1.8098773956298828,2.5989012718200684
1761340696524691500,1.07169140625,-1.6650043725967407,2.499629259109497,2.6065101623535156
1761340696534758700,1.081758544921875,-2.245577812194824,2.6200621128082275,2.0392489433288574
1761340696544825600,1.09182568359375,-2.6535885334014893,2.535078525543213,1.4967098236083984
1761340696554892500,1.101892578125,-3.0095553398132324,2.199035406112671,1.1044293642044067
1761340696564959500,1.11195947265625,-3.2363181114196777,1.6148395538330078,0.7423571944236755
1761340696575025700,1.122025634765625,-3.259138822555542,1.037463665008545,0.3391459882259369
1761340696585092600,1.132092529296875,-3.0617055892944336,0.6043140888214111,-0.18284450471401215
1761340696595159600,1.14215966796875,-2.789829730987549,0.3981485068798065,-0.8389518857002258
1761340696605226500,1.1522265625,-2.516937255859375,0.40433555841445923,-1.4749821424484253
1761340696615293400,1.16229345703125,-2.256756067276001,0.529613196849823,-1.9468677043914795
1761340696625360400,1.1723603515625,-1.9467644691467285,0.6912662386894226,-2.1600654125213623
1761340696635427800,1.182427734375,-1.5760812759399414,0.8208520412445068,-2.0911645889282227
1761340696645494800,1.192494873046875,-1.1555044651031494,0.8743181824684143,-1.7653491497039795
1761340696655561700,1.202561767578125,-0.7204962372779846,0.7795710563659668,-1.2550172805786133
1761340696665627600,1.212627685546875,-0.3239033818244934,0.48233669996261597,-0.6528447270393372
1761340696675694600,1.222694580078125,0.015304015949368477,0.046607695519924164,-0.05371743068099022
1761340696685761800,1.23276171875,0.27932900190353394,-0.3969162106513977,0.44218897819519043
1761340696695828700,1.242828857421875,0.4804356098175049,-0.7646372318267822,0.7853513956069946
1761340696705895700,1.252895751953125,0.6175029277801514,-1.0191617012023926,0.9419510960578918
1761340696715962600,1.262962646484375,0.6642292141914368,-1.1477859020233154,0.8961196541786194
1761340696726029600,1.273029541015625,0.6464486122131348,-1.1342607736587524,0.6687866449356079
1761340696736096500,1.283096435546875,0.6202043294906616,-0.9824470281600952,0.3108114004135132
1761340696746164000,1.2931640625,0.607544481754303,-0.7132898569107056,-0.09987148642539978
1761340696756231000,1.30323095703125,0.5870949625968933,-0.33494535088539124,-0.5028319954872131
1761340696766296600,1.313296630859375,0.5532381534576416,0.07844756543636322,-0.8477686047554016
1761340696776363800,1.32336376953125,0.5042753219604492,0.4208334982395172,-1.096062421798706
1761340696786430700,1.3334306640625,0.45453202724456787,0.6207185983657837,-1.227412223815918
1761340696796498000,1.343497802734375,0.42369577288627625,0.6684960126876831,-1.259318470954895
1761340696806564900,1.35356494140625,0.42364463210105896,0.595650851726532,-1.1951078176498413
1761340696816631800,1.3636318359375,0.454109787940979,0.41707345843315125,-1.038182258605957
1761340696826698800,1.37369873046875,0.5285981297492981,0.19716213643550873,-0.8145354986190796
1761340696836765700,1.383765625,0.6015487313270569,0.0026876404881477356,-0.49745678901672363
1761340696846832600,1.39383251953125,0.6637369990348816,-0.1518462747335434,-0.07379181683063507
1761340696856898800,1.40389892578125,0.7450012564659119,-0.27263811230659485,0.3934469223022461
1761340696866965800,1.4139658203125,0.8228044509887695,-0.28310486674308777,0.8271046280860901
1761340696877032700,1.42403271484375,0.8740891814231873,-0.25105708837509155,1.1719263792037964
1761340696887099600,1.434099609375,0.9126394987106323,-0.21217575669288635,1.4236558675765991
1761340696897166800,1.444166748046875,0.9601274132728577,-0.20519721508026123,1.5862840414047241
1761340696907233800,1.45423388671875,0.9863544702529907,-0.24942006170749664,1.6582024097442627
1761340696917300700,1.46430078125,0.9760509729385376,-0.256334513425827,1.6218266487121582
1761340696927367700,1.47436767578125,0.9377350211143494,-0.19171637296676636,1.4817867279052734
1761340696937434600,1.4844345703125,0.8205076456069946,-0.026326872408390045,1.1897488832473755
1761340696947501600,1.49450146484375,0.6004183888435364,0.44421452283859253,0.7222198247909546
1761340696957567700,1.504567626953125,0.32222452759742737,1.29429292678833,0.1080646887421608
1761340696967634700,1.514634765625,0.026683416217565536,2.39644193649292,-0.6200803518295288
1761340696977701600,1.52470166015625,-0.23725689947605133,3.4657645225524902,-1.3529835939407349
1761340696987768600,1.5347685546875,-0.38044068217277527,4.108543872833252,-1.9101271629333496
1761340696997835500,1.54483544921875,-0.40209171175956726,2.7564237117767334,-2.5106465816497803
1761340697007902700,1.55490283203125,-0.12658290565013885,-1.6770204305648804,-3.6473636627197266
1761340697017970000,1.564969970703125,0.5876482725143433,-5.84496545791626,-4.626159191131592
1761340697028036900,1.575036865234375,1.3366245031356812,-7.150737285614014,-4.676109313964844
1761340697038103800,1.585103759765625,1.4652941226959229,-5.722007751464844,-3.3977625370025635
1761340697048170800,1.595170654296875,1.371140718460083,-3.2829911708831787,-1.3190836906433105
1761340697058237000,1.60523681640625,0.9896004796028137,-0.855819046497345,0.6890133023262024
1761340697068304000,1.615303955078125,0.4103584289550781,0.7070514559745789,1.5123900175094604
1761340697078370800,1.625370849609375,-0.13893373310565948,1.773329257965088,1.3807250261306763
1761340697088437800,1.635437744140625,-0.5846954584121704,2.409926414489746,0.9124780893325806
1761340697098504700,1.645504638671875,-0.9798333048820496,2.7011072635650635,0.5190520882606506
1761340697108571600,1.655571533203125,-1.4007436037063599,2.6683385372161865,0.36768171191215515
1761340697118638800,1.665638916015625,-1.8291280269622803,2.410824775695801,0.45473137497901917
1761340697128705800,1.675705810546875,-2.203132152557373,2.015352725982666,0.6708868741989136
1761340697138772700,1.685772705078125,-2.430868148803711,1.4631623029708862,0.8784582614898682
1761340697148838700,1.695838623046875,-2.463196039199829,0.8610630631446838,0.9489273428916931
1761340697158905900,1.70590576171875,-2.3490817546844482,0.4127139449119568,0.8445226550102234
1761340697168972800,1.715972900390625,-2.170436382293701,0.12100353837013245,0.5707941651344299
1761340697179039700,1.726039794921875,-1.9600341320037842,-0.007774226367473602,0.17933228611946106
1761340697189106700,1.736106689453125,-1.7255488634109497,-0.002888125367462635,-0.2580474615097046
1761340697199173600,1.746173583984375,-1.49579918384552,0.1106133982539177,-0.6566044688224792
1761340697209240600,1.756240478515625,-1.3033783435821533,0.2470061182975769,-1.0067070722579956
1761340697219307800,1.766307861328125,-1.180940866470337,0.34813761711120605,-1.2421478033065796
1761340697229374700,1.776374755859375,-1.1031166315078735,0.39886099100112915,-1.387665033340454
1761340697239440600,1.786440673828125,-1.0520310401916504,0.39868777990341187,-1.4654746055603027
1761340697249507600,1.796507568359375,-1.0152868032455444,0.36680442094802856,-1.507018804550171
1761340697259574500,1.806574462890625,-0.9805841445922852,0.2787388563156128,-1.547400951385498
1761340697269641700,1.816641845703125,-0.9227701425552368,0.1875932216644287,-1.6065244674682617
1761340697279708700,1.826708740234375,-0.8492315411567688,0.10565876960754395,-1.6619484424591064
1761340697289775900,1.83677587890625,-0.7588726282119751,0.05662491172552109,-1.7091370820999146
1761340697299842800,1.8468427734375,-0.6516394019126892,0.0417863205075264,-1.7047584056854248
1761340697309909800,1.85690966796875,-0.514182448387146,0.04433362931013107,-1.6051359176635742
1761340697319976700,1.866976806640625,-0.32949191331863403,0.006050599738955498,-1.4007763862609863
1761340697330043000,1.87704296875,-0.10066031664609909,-0.09539426863193512,-1.0919482707977295
1761340697340109800,1.88710986328125,0.12358921021223068,-0.20336087048053741,-0.7354983687400818
1761340697350176800,1.8971767578125,0.31258150935173035,-0.2687321603298187,-0.3829296827316284
1761340697360243700,1.90724365234375,0.4772077798843384,-0.2844892740249634,-0.031190257519483566
1761340697370310700,1.917310546875,0.6113916635513306,-0.2726712226867676,0.3105521500110626
1761340697380377900,1.9273779296875,0.7273027300834656,-0.24513600766658783,0.6213536858558655
1761340697390444800,1.93744482421875,0.8261966109275818,-0.25106313824653625,0.8943596482276917
1761340697400511700,1.94751171875,0.9081200361251831,-0.28984934091567993,1.131797194480896
1761340697410578700,1.95757861328125,0.9889885187149048,-0.3652042746543884,1.3418680429458618
1761340697420644900,1.967644775390625,1.0601766109466553,-0.43148624897003174,1.4959404468536377
1761340697430711800,1.9777119140625,1.1001062393188477,-0.44526970386505127,1.5993419885635376
1761340697440778800,1.98777880859375,1.1064544916152954,-0.40809527039527893,1.651915431022644
1761340697450845700,1.997845703125,1.0772042274475098,-0.3141229748725891,1.653932809829712
1761340697460912600,2.00791259765625,0.9939739108085632,-0.16819576919078827,1.5797797441482544
1761340697470979600,2.0179794921875,0.8815427422523499,-0.006120572332292795,1.4502569437026978
1761340697481046800,2.028046875,0.7576287984848022,0.15429900586605072,1.2618788480758667
1761340697491113700,2.03811376953125,0.6240094900131226,0.30490395426750183,0.9810053706169128
1761340697501180700,2.0481806640625,0.4547848403453827,0.5645458102226257,0.6559174060821533
1761340697511246600,2.05824658203125,0.3058664798736572,0.9217079281806946,0.23706823587417603
1761340697521313800,2.068313720703125,0.19824177026748657,1.2769290208816528,-0.3030761182308197
1761340697531380700,2.078380615234375,0.05479006469249725,1.8515827655792236,-0.882083535194397
1761340697541447700,2.08844775390625,-0.2334664762020111,2.2144932746887207,-1.4533135890960693
1761340697551514600,2.0985146484375,-0.7683237791061401,0.9757823348045349,-2.27315616607666
1761340697561581800,2.108581787109375,-1.259198546409607,-2.1076242923736572,-3.503220319747925
1761340697571648800,2.118648681640625,-1.029589056968689,-4.557759761810303,-4.4109368324279785
1761340697581715700,2.1287158203125,-0.31114983558654785,-4.9207353591918945,-4.414904594421387
1761340697591783000,2.138782958984375,0.0389368012547493,-3.2365386486053467,-3.243675947189331
1761340697601849900,2.148849853515625,0.5260075330734253,-0.9767101407051086,-1.1976274251937866
1761340697611915800,2.158915771484375,1.1197174787521362,0.6004905104637146,0.9535440802574158
1761340697621982700,2.168982666015625,1.3257722854614258,1.0642282962799072,2.2203171253204346
1761340697632050000,2.1790498046875,1.2831745147705078,1.0835844278335571,2.553802013397217
1761340697642117000,2.1891171875,1.1453511714935303,0.9789494276046753,2.3686842918395996
1761340697652184000,2.19918408203125,0.8697527647018433,1.1788636445999146,2.0352420806884766
1761340697662251000,2.2092509765625,0.3780611455440521,1.745582938194275,1.6491937637329102
1761340697672318200,2.219318115234375,-0.3189099431037903,2.4346187114715576,1.2886494398117065
1761340697682385200,2.22938525390625,-1.0626462697982788,3.0509421825408936,1.0772359371185303
1761340697692451000,2.239451171875,-1.714578628540039,3.54598331451416,1.0293145179748535
1761340697702518300,2.249518310546875,-2.188750982284546,3.6433637142181396,1.1367782354354858
1761340697712585200,2.259585205078125,-2.4488980770111084,3.253422737121582,1.3373498916625977
1761340697722652200,2.269652099609375,-2.517739772796631,2.520230293273926,1.530221939086914
1761340697732719000,2.279718994140625,-2.373276948928833,1.6470825672149658,1.5757060050964355
1761340697742786000,2.2897861328125,-1.9830455780029297,0.8153570890426636,1.363379716873169
1761340697752853200,2.299853271484375,-1.3998180627822876,0.13298973441123962,0.9266196489334106
1761340697762920200,2.309920166015625,-0.7085094451904297,-0.3199641704559326,0.37087035179138184
1761340697772987100,2.319987060546875,-0.03878702223300934,-0.5254006385803223,-0.2319561243057251
1761340697783053000,2.330052978515625,0.4438285529613495,-0.5732463598251343,-0.7872594594955444
1761340697793120300,2.340120361328125,0.6979807019233704,-0.5365623831748962,-1.2341320514678955
1761340697803187200,2.350187255859375,0.7657618522644043,-0.531853199005127,-1.553627371788025
1761340697813254100,2.360254150390625,0.7184702157974243,-0.5646889209747314,-1.737328290939331
1761340697823321000,2.370321044921875,0.5992986559867859,-0.5838487148284912,-1.8215821981430054
1761340697833388000,2.380387939453125,0.4599356949329376,-0.5729848742485046,-1.8311413526535034
1761340697843455000,2.390455078125,0.33474868535995483,-0.5584345459938049,-1.7720640897750854
1761340697853522200,2.400522216796875,0.2626904845237732,-0.5687937140464783,-1.6572266817092896
1761340697863589000,2.410589111328125,0.27802085876464844,-0.6048355102539062,-1.493752360343933
1761340697873655000,2.420655029296875,0.3750219941139221,-0.6195574402809143,-1.2958134412765503
1761340697883722000,2.430721923828125,0.5189417004585266,-0.636086642742157,-1.088059425354004
1761340697893789000,2.440788818359375,0.684937596321106,-0.6543766856193542,-0.8705342411994934
1761340697903856000,2.450856201171875,0.8320438265800476,-0.6444342136383057,-0.6344329118728638
1761340697913923000,2.460923095703125,0.9462385773658752,-0.6540825963020325,-0.37057968974113464
1761340697923990000,2.470989990234375,1.039675235748291,-0.6712558269500732,-0.09788519144058228
1761340697934057000,2.481056884765625,1.1311880350112915,-0.7078279256820679,0.15812155604362488
1761340697944124200,2.491124267578125,1.199341058731079,-0.78260338306427,0.38290274143218994
1761340697954191000,2.501191162109375,1.2369471788406372,-0.8564701676368713,0.5745337009429932
1761340697964257000,2.511257080078125,1.251110315322876,-0.895642101764679,0.702280580997467
1761340697974324000,2.521323974609375,1.2314298152923584,-0.8932228684425354,0.7844220399856567
1761340697984391200,2.53139111328125,1.1939058303833008,-0.868013322353363,0.8337804079055786
1761340697994458000,2.5414580078125,1.1651921272277832,-0.7736197113990784,0.8342645764350891
1761340698004525300,2.551525390625,1.1278455257415771,-0.6030788421630859,0.7865856885910034
1761340698014592300,2.56159228515625,1.0776041746139526,-0.45136019587516785,0.7027052044868469
1761340698024659200,2.5716591796875,1.0209770202636719,-0.37312573194503784,0.588550865650177
1761340698034726100,2.58172607421875,0.9303687810897827,-0.2926841676235199,0.4030049741268158
1761340698044793000,2.59179296875,0.7654232382774353,-0.13171400129795074,0.16451528668403625
1761340698054859300,2.601859375,0.5435768365859985,0.21004492044448853,-0.1255607306957245
1761340698064926200,2.61192626953125,0.3873651921749115,0.5436643362045288,-0.48000290989875793
1761340698074993200,2.6219931640625,0.3829384744167328,0.55904221534729,-0.9020465016365051
1761340698085060000,2.63206005859375,0.6970430016517639,0.09892141819000244,-1.1872533559799194
1761340698095127000,2.642126953125,1.1781724691390991,-1.3954533338546753,-1.2664762735366821
1761340698105194000,2.652194091796875,1.2577489614486694,-3.8543057441711426,-1.3327034711837769
1761340698115261200,2.66226123046875,0.8700982332229614,-5.690807819366455,-1.3889044523239136
1761340698125328100,2.672328125,0.5298134088516235,-6.2062835693359375,-1.3152740001678467
1761340698135395000,2.68239501953125,0.2797625660896301,-4.900864601135254,-0.6766847372055054
1761340698145461000,2.6924609375,0.27822959423065186,-2.7183308601379395,0.22599893808364868
1761340698155528200,2.702528076171875,0.33310139179229736,-0.5371415019035339,0.9999414682388306
1761340698165595100,2.71259521484375,0.25885841250419617,0.9009363651275635,1.3806426525115967
1761340698175662000,2.722662109375,0.08405333757400513,1.657091736793518,1.4437140226364136
1761340698185729000,2.73272900390625,-0.0868082270026207,1.9208464622497559,1.4083632230758667
1761340698195796000,2.7427958984375,-0.22800421714782715,1.812126874923706,1.5316247940063477
1761340698205863000,2.75286279296875,-0.39101648330688477,1.4497874975204468,1.8672218322753906
1761340698215930000,2.76293017578125,-0.6078888773918152,0.9958811402320862,2.3198070526123047
1761340698225997300,2.772997314453125,-0.8327441215515137,0.6166601777076721,2.7232508659362793
1761340698236063000,2.78306298828125,-1.027345895767212,0.32662010192871094,2.9324021339416504
1761340698246130000,2.7931298828125,-1.2000770568847656,0.13687165081501007,2.898303985595703
1761340698256197000,2.803197021484375,-1.3428174257278442,0.03826757147908211,2.635134696960449
1761340698266264300,2.813264404296875,-1.4554145336151123,0.09171880781650543,2.1821448802948
1761340698276331300,2.823331298828125,-1.520883321762085,0.20751704275608063,1.5555788278579712
1761340698286398200,2.833398193359375,-1.5122575759887695,0.3488830327987671,0.8601725101470947
1761340698296465200,2.843465087890625,-1.3933290243148804,0.511320173740387,0.17417150735855103
1761340698306532000,2.853531982421875,-1.1818488836288452,0.6637242436408997,-0.43388286232948303
1761340698316598300,2.863598388671875,-0.918495237827301,0.7196661233901978,-0.9127141833305359
1761340698326665200,2.873665283203125,-0.6257624626159668,0.6263353228569031,-1.2313560247421265
1761340698336732200,2.883732177734375,-0.37240371108055115,0.42857301235198975,-1.4029216766357422
1761340698346799000,2.893799072265625,-0.16631516814231873,0.22992658615112305,-1.4887357950210571
1761340698356866000,2.903865966796875,-0.008091717958450317,0.08851886540651321,-1.5318890810012817
1761340698366933000,2.91393310546875,0.1047452986240387,-0.030300471931695938,-1.5426218509674072
1761340698377000200,2.924000244140625,0.19015340507030487,-0.17549733817577362,-1.5108468532562256
1761340698387067100,2.934067138671875,0.28078263998031616,-0.32322007417678833,-1.4693140983581543
1761340698397134000,2.944134033203125,0.39056771993637085,-0.4075165390968323,-1.4373117685317993
1761340698407200000,2.954199951171875,0.49057406187057495,-0.44321632385253906,-1.3812702894210815
1761340698417267200,2.96426708984375,0.5719767808914185,-0.4905968904495239,-1.299423098564148
1761340698427334100,2.974334228515625,0.6118549108505249,-0.5289185047149658,-1.194061279296875
1761340698437401000,2.984401123046875,0.6528375148773193,-0.4311637580394745,-1.0322531461715698
1761340698447468000,2.994468017578125,0.7075495719909668,-0.2825775444507599,-0.7901545166969299
1761340698457535000,3.004534912109375,0.7300572395324707,-0.19485756754875183,-0.5083475708961487
1761340698467602000,3.014601806640625,0.715670108795166,-0.16229277849197388,-0.21159888803958893
1761340698477669000,3.024669189453125,0.6712376475334167,-0.1862793266773224,0.04952486231923103
1761340698487735000,3.034735107421875,0.6074334979057312,-0.23812638223171234,0.25221067667007446
1761340698497802000,3.044802001953125,0.5396068096160889,-0.27234771847724915,0.36968645453453064
1761340698507869000,3.054868896484375,0.4869145154953003,-0.25243839621543884,0.39455708861351013
1761340698517935900,3.064935791015625,0.45041272044181824,-0.1828601211309433,0.38753005862236023
1761340698528003300,3.07500341796875,0.41701388359069824,-0.13446657359600067,0.37962135672569275
1761340698538070300,3.0850703125,0.3938630223274231,-0.12348901480436325,0.402351438999176
1761340698548137200,3.09513720703125,0.38105031847953796,-0.14988315105438232,0.4519422650337219
1761340698558204200,3.1052041015625,0.38526079058647156,-0.1981327086687088,0.5318512320518494
1761340698568271000,3.11527099609375,0.3984753489494324,-0.26127880811691284,0.6233933568000793
1761340698578337300,3.125337158203125,0.4608481824398041,-0.25571441650390625,0.7015613913536072
1761340698588404200,3.135404296875,0.5325844287872314,-0.10633674263954163,0.7510387301445007
1761340698598471200,3.14547119140625,0.606889545917511,0.16426652669906616,0.7538681030273438
1761340698608538000,3.1555380859375,0.610107421875,0.648461639881134,0.6854369044303894
1761340698618605000,3.16560498046875,0.6291234493255615,1.5994154214859009,0.6115546822547913
1761340698628672000,3.175672119140625,0.8584223389625549,2.658029079437256,0.6148322820663452
1761340698638739000,3.185739013671875,1.149107813835144,3.457944869995117,0.7164595723152161
1761340698648806000,3.195805908203125,1.0892539024353027,2.2818503379821777,0.36137905716896057
1761340698658872800,3.205872802734375,0.5293055176734924,-1.8193994760513306,-1.1160415410995483
1761340698668938800,3.215938720703125,0.48432838916778564,-6.41627836227417,-2.8447344303131104
1761340698679006000,3.226005859375,1.070378065109253,-8.727992057800293,-3.1337602138519287
1761340698689073000,3.236072998046875,1.4430005550384521,-7.634867191314697,-1.3813081979751587
1761340698699139800,3.246139892578125,1.6105560064315796,-4.5748724937438965,1.2450228929519653
1761340698709206800,3.256206787109375,1.764094352722168,-1.7500810623168945,3.434286117553711
1761340698719273700,3.266273681640625,1.5207786560058594,0.16212506592273712,4.224172592163086
1761340698729340700,3.276340576171875,0.8297169804573059,1.6623398065567017,3.7951717376708984
1761340698739408100,3.286408203125,-0.055960897356271744,2.7731728553771973,2.762012004852295
1761340698749473800,3.296473876953125,-0.9267062544822693,3.4626662731170654,1.7696990966796875
1761340698759540700,3.306540771484375,-1.603273630142212,3.666053533554077,1.0676929950714111
1761340698769607700,3.316607666015625,-2.0297658443450928,3.525279998779297,0.6473129987716675
1761340698779675000,3.3266748046875,-2.2207493782043457,3.2057883739471436,0.41159290075302124
1761340698789742000,3.3367421875,-2.218637704849243,2.648303985595703,0.28937211632728577
1761340698799809000,3.34680908203125,-2.08610200881958,1.9367868900299072,0.2540769577026367
1761340698809876000,3.3568759765625,-1.8286001682281494,1.237700343132019,0.2245708703994751
1761340698819943000,3.36694287109375,-1.5142806768417358,0.6789989471435547,0.13223880529403687
1761340698830009900,3.377009765625,-1.211918830871582,0.3173673748970032,-0.014137780293822289
1761340698840076000,3.387075927734375,-0.9406483173370361,0.08789639174938202,-0.18386715650558472
1761340698850143000,3.39714306640625,-0.7700908780097961,0.003634159453213215,-0.3244350850582123
1761340698860210000,3.4072099609375,-0.6889845728874207,-0.09486418217420578,-0.39182931184768677
1761340698870276900,3.41727685546875,-0.653899073600769,-0.20352277159690857,-0.3719259798526764
1761340698880343800,3.42734375,-0.6380306482315063,-0.34574437141418457,-0.2841678857803345
1761340698890411000,3.437410888671875,-0.6551923155784607,-0.5987213850021362,-0.13012513518333435
1761340698900478000,3.44747802734375,-0.6684293150901794,-0.9183452129364014,-0.01867850497364998
1761340698910545000,3.457544921875,-0.6412082314491272,-1.0861579179763794,-0.08366253972053528
1761340698920610800,3.46761083984375,-0.5783581733703613,-0.9967367053031921,-0.41764476895332336
1761340698930678000,3.477677978515625,-0.5205963253974915,-0.7554407119750977,-0.831189751625061
1761340698940745000,3.487744873046875,-0.49648889899253845,-0.5135180950164795,-1.1999688148498535
1761340698950812000,3.49781201171875,-0.4868423342704773,-0.291573166847229,-1.459431767463684
1761340698960878800,3.50787890625,-0.5284494161605835,-0.08168891072273254,-1.605800747871399
1761340698970945800,3.51794580078125,-0.619279682636261,0.052964940667152405,-1.6711481809616089
1761340698981012700,3.5280126953125,-0.711260974407196,0.17342078685760498,-1.6632927656173706
1761340698991079700,3.53807958984375,-0.7728346586227417,0.2844795882701874,-1.6346418857574463
1761340699001147000,3.54814697265625,-0.8155229687690735,0.31439700722694397,-1.5570005178451538
1761340699011212800,3.558212890625,-0.823214054107666,0.17819182574748993,-1.4268929958343506
1761340699021279700,3.56827978515625,-0.7774867415428162,-0.12399464845657349,-1.2444329261779785
1761340699031346700,3.5783466796875,-0.6957517862319946,-0.5064090490341187,-1.0144708156585693
1761340699041414000,3.588413818359375,-0.58072429895401,-0.8970910310745239,-0.7373630404472351
1761340699051481000,3.598481201171875,-0.47333136200904846,-1.250774621963501,-0.4759278893470764
1761340699061548000,3.608548095703125,-0.40387213230133057,-1.4943928718566895,-0.28966665267944336
1761340699071615000,3.618614990234375,-0.3451642394065857,-1.5573468208312988,-0.19566024839878082
1761340699081682000,3.628681884765625,-0.3113332986831665,-1.5115209817886353,-0.16085247695446014
1761340699091748000,3.638748046875,-0.34931617975234985,-1.363625168800354,-0.153660848736763
1761340699101815000,3.64881494140625,-0.47827547788619995,-1.1265795230865479,-0.16557690501213074
1761340699111882000,3.658882080078125,-0.7026723623275757,-0.8187584280967712,-0.17845800518989563
1761340699121949000,3.668948974609375,-0.9643194079399109,-0.43730053305625916,-0.21468178927898407
1761340699132015900,3.679015869140625,-1.2600798606872559,0.05904191732406616,-0.317171573638916
1761340699142082800,3.689082763671875,-1.433650016784668,0.8275859951972961,-0.5248587131500244
1761340699152150000,3.69914990234375,-1.4346632957458496,1.706826090812683,-0.8052764534950256
1761340699162217000,3.709217041015625,-1.1173572540283203,2.5755090713500977,-1.0515146255493164
1761340699172283000,3.719282958984375,-0.4466581642627716,3.367570638656616,-1.118467926979065
1761340699182349800,3.729349853515625,0.3114734888076782,3.6113414764404297,-0.8766174912452698
1761340699192417000,3.7394169921875,0.7886015772819519,2.4003958702087402,-0.45907455682754517
1761340699202484000,3.74948388671875,0.9028837084770203,-0.5171545147895813,-0.12642763555049896
1761340699212551000,3.759551025390625,1.0361783504486084,-4.533952713012695,-0.19867494702339172
1761340699222617900,3.769617919921875,1.392442226409912,-7.792940616607666,-0.5122067332267761
1761340699232684800,3.779684814453125,1.7740716934204102,-8.822614669799805,-0.6002132892608643
1761340699242751700,3.789751708984375,1.9170125722885132,-6.4921746253967285,0.08373522758483887
1761340699252818000,3.79981787109375,1.5347983837127686,-2.7040836811065674,1.2491194009780884
1761340699262884900,3.809884765625,0.9128547310829163,0.3394638001918793,2.1577093601226807
1761340699272951800,3.819951904296875,0.3480972647666931,1.8265355825424194,2.479322910308838
1761340699283018800,3.830018798828125,-0.137040376663208,2.41668701171875,2.397456407546997
1761340699293085700,3.840085693359375,-0.5918583273887634,2.6527023315429688,2.1773176193237305
1761340699303153000,3.85015283203125,-0.9526932239532471,2.6840322017669678,2.0055909156799316
1761340699313219800,3.8602197265625,-1.2030854225158691,2.497034788131714,1.9348368644714355
1761340699323287000,3.870287109375,-1.336225152015686,2.0880930423736572,1.944795846939087
1761340699333354000,3.88035400390625,-1.334942102432251,1.4571259021759033,1.9588836431503296
1761340699343420000,3.890419921875,-1.23441743850708,0.7870628237724304,1.9061444997787476
1761340699353487000,3.900487060546875,-1.1246455907821655,0.3988800346851349,1.7245839834213257
1761340699363554000,3.910553955078125,-1.0278353691101074,0.3426647186279297,1.4176968336105347
1761340699373621000,3.92062109375,-0.9636461138725281,0.4953055679798126,1.0856770277023315
1761340699383688000,3.93068798828125,-0.8924699425697327,0.6892012357711792,0.7693532109260559
1761340699393755000,3.9407548828125,-0.7814307808876038,0.8340601921081543,0.4702317416667938
1761340699403821800,3.95082177734375,-0.6538757681846619,0.8822985291481018,0.24190986156463623
1761340699413889000,3.960888916015625,-0.5066460371017456,0.7940124869346619,0.09367644041776657
1761340699423955000,3.970954833984375,-0.3521086871623993,0.5405035018920898,0.030384017154574394
1761340699434022000,3.98102197265625,-0.2591133713722229,0.20547813177108765,0.01013692282140255
1761340699444088800,3.9910888671875,-0.23743149638175964,-0.12280067056417465,-0.013134311884641647
1761340699454156000,4.001156005859375,-0.2539497911930084,-0.3556934595108032,-0.07073400914669037
1761340699464223000,4.011222900390625,-0.29872310161590576,-0.459825724363327,-0.21084079146385193
1761340699474289000,4.021288818359375,-0.3712162673473358,-0.36057645082473755,-0.48725178837776184
1761340699484355800,4.03135595703125,-0.43497419357299805,-0.10107672214508057,-0.8441364169120789
1761340699494423000,4.041423095703125,-0.4824041426181793,0.16289091110229492,-1.1975250244140625
1761340699504490000,4.051489990234375,-0.5446059703826904,0.42064228653907776,-1.4862689971923828
1761340699514557000,4.061556884765625,-0.5976132750511169,0.728655993938446,-1.653050422668457
1761340699524624000,4.071623779296875,-0.6085303425788879,0.9440252780914307,-1.6713814735412598
1761340699534690800,4.08169091796875,-0.5729734897613525,0.9674934148788452,-1.547635555267334
1761340699544757800,4.0917578125,-0.5039382576942444,0.8087269067764282,-1.3048758506774902
1761340699554824000,4.101823974609375,-0.40875571966171265,0.5228983163833618,-1.0003365278244019
1761340699564891000,4.111890869140625,-0.26528456807136536,0.24212118983268738,-0.6758788228034973
1761340699574957800,4.121957763671875,-0.07960521429777145,0.0720011368393898,-0.3334266245365143
1761340699585024800,4.132024658203125,0.12477189302444458,0.008086868561804295,0.03606512397527695
1761340699595091700,4.142091796875,0.30214405059814453,-0.037786055356264114,0.39916670322418213
1761340699605159000,4.152158935546875,0.41189906001091003,-0.13407529890537262,0.728838324546814
1761340699615225900,4.162225830078125,0.440064400434494,-0.3030659556388855,0.9966036677360535
1761340699625293000,4.17229296875,0.4099634885787964,-0.5328719615936279,1.1686469316482544
1761340699635359500,4.182359375,0.32206860184669495,-0.7510656714439392,1.2368990182876587
1761340699645425700,4.19242578125,0.20627754926681519,-0.9065820574760437,1.1935988664627075
1761340699655492600,4.20249267578125,0.09001229703426361,-0.9254148006439209,1.0556362867355347
1761340699665559600,4.2125595703125,0.02615102380514145,-0.751623272895813,0.8513821959495544
1761340699675626500,4.22262646484375,-0.036410849541425705,-0.32906976342201233,0.5558869242668152
1761340699685693400,4.232693359375,-0.15944036841392517,0.3586692214012146,0.1816275715827942
1761340699695760400,4.242760498046875,-0.3672948479652405,1.3498042821884155,-0.2115320861339569
1761340699705827800,4.252827880859375,-0.6042871475219727,2.285327672958374,-0.6687934398651123
1761340699715894800,4.262894775390625,-0.8561885952949524,2.9877872467041016,-1.1769143342971802
1761340699725960400,4.27296044921875,-1.0928337574005127,3.0933849811553955,-1.859005093574524
1761340699736027600,4.283027587890625,-1.304085373878479,1.9747241735458374,-2.9231534004211426
1761340699746094600,4.293094482421875,-1.2734947204589844,-0.8488172292709351,-4.4960150718688965
1761340699756161800,4.303161865234375,-0.4128117859363556,-3.672271728515625,-5.846610069274902
1761340699766228700,4.313228759765625,0.7814335227012634,-4.465659141540527,-5.5614471435546875
1761340699776295700,4.323295654296875,0.9916919469833374,-3.0062344074249268,-3.2296388149261475
1761340699786362600,4.333362548828125,0.7484737038612366,-0.8482493162155151,0.031160574406385422
1761340699796429600,4.3434296875,0.7663856744766235,0.7611759305000305,2.5487401485443115
1761340699806495700,4.353495849609375,0.5695634484291077,1.447516679763794,3.2528653144836426
1761340699816562700,4.363562744140625,0.2709118127822876,1.791481852531433,2.6344213485717773
1761340699826629600,4.373629638671875,0.04230819642543793,2.0155155658721924,1.7239274978637695
1761340699836696600,4.383696533203125,-0.14497186243534088,1.9049607515335083,1.1011203527450562
1761340699846763500,4.393763427734375,-0.33168745040893555,1.4683080911636353,0.8405236005783081
1761340699856830700,4.403830810546875,-0.5091672539710999,0.9071872234344482,0.8521249890327454
1761340699866897700,4.413897705078125,-0.6108472943305969,0.3360632359981537,1.0301498174667358
1761340699876965600,4.423965576171875,-0.6030346751213074,-0.14260604977607727,1.2742236852645874
1761340699887032600,4.434032470703125,-0.5248613357543945,-0.4518651068210602,1.5163904428482056
1761340699897098500,4.444098388671875,-0.4525788128376007,-0.5414947271347046,1.7201231718063354
1761340699907165400,4.45416552734375,-0.4310961365699768,-0.48059946298599243,1.8637069463729858
1761340699917232600,4.464232666015625,-0.45455098152160645,-0.3496362268924713,2.006375789642334
1761340699927299600,4.474299560546875,-0.5148817300796509,-0.2603611946105957,2.097616672515869
1761340699937366800,4.48436669921875,-0.5459568500518799,-0.19660891592502594,2.1001083850860596
1761340699947433700,4.494433837890625,-0.522861123085022,-0.1274207979440689,1.988059639930725
1761340699957500700,4.504500732421875,-0.46785789728164673,-0.031208056956529617,1.7128037214279175
1761340699967567600,4.514567626953125,-0.37722039222717285,0.049311283975839615,1.2748652696609497
1761340699977633800,4.5246337890625,-0.2731223404407501,0.09841224551200867,0.7541795372962952
1761340699987700700,4.53470068359375,-0.1952565461397171,0.05701472982764244,0.18644025921821594
1761340699997767700,4.544767578125,-0.1672869175672531,-0.052269939333200455,-0.368541955947876
1761340700007834600,4.554834716796875,-0.151362806558609,-0.21465112268924713,-0.8621143698692322
1761340700017901600,4.564901611328125,-0.15652641654014587,-0.30893316864967346,-1.2575539350509644
1761340700027968800,4.57496875,-0.19777584075927734,-0.3162454068660736,-1.5206212997436523
1761340700038035700,4.58503564453125,-0.2438468635082245,-0.24307949841022491,-1.6450306177139282
1761340700048102700,4.5951025390625,-0.27915796637535095,-0.16139501333236694,-1.6514747142791748
1761340700058168600,4.60516845703125,-0.2886551320552826,-0.09906229376792908,-1.5646109580993652
1761340700068235500,4.615235595703125,-0.26520490646362305,0.02637631818652153,-1.4070417881011963
1761340700078302700,4.625302734375,-0.19286254048347473,0.21733826398849487,-1.184059739112854
1761340700088369700,4.63536962890625,-0.08251739293336868,0.37170544266700745,-0.9119524955749512
1761340700098436600,4.6454365234375,0.03541131690144539,0.4256475269794464,-0.6103499531745911
1761340700108503600,4.655503662109375,0.14759404957294464,0.34481021761894226,-0.30532512068748474
1761340700118570500,4.665570556640625,0.24349720776081085,0.14831560850143433,-0.03066357597708702
1761340700128637400,4.675637451171875,0.34209808707237244,-0.08005071431398392,0.1751609593629837
1761340700138703600,4.68570361328125,0.4628574550151825,-0.2280879020690918,0.3062288761138916
1761340700148770600,4.6957705078125,0.5918474197387695,-0.29922041296958923,0.36991703510284424
1761340700158837500,4.70583740234375,0.6802562475204468,-0.35279399156570435,0.3902074098587036
1761340700168904400,4.715904541015625,0.7263398766517639,-0.4035106897354126,0.3889583945274353
1761340700178971600,4.7259716796875,0.752722978591919,-0.4317784607410431,0.3605698347091675
1761340700189038600,4.73603857421875,0.7556353807449341,-0.47557759284973145,0.30874019861221313
1761340700199105500,4.74610546875,0.7578243613243103,-0.5246629118919373,0.2364094853401184
1761340700209172700,4.7561728515625,0.7449048161506653,-0.5474936366081238,0.16628898680210114
1761340700219238400,4.76623828125,0.7110560536384583,-0.563311755657196,0.10344081372022629
1761340700229305600,4.7763056640625,0.6385810971260071,-0.4929667115211487,0.013939959928393364
1761340700239372500,4.78637255859375,0.5154931545257568,-0.1795804798603058,-0.13314062356948853
1761340700249439700,4.796439697265625,0.4027719795703888,0.3783661723136902,-0.4104047119617462
1761340700259506700,4.806506591796875,0.2891884744167328,1.083919882774353,-0.8198639750480652
1761340700269573600,4.81657373046875,0.2346149981021881,1.726798176765442,-1.3746095895767212
1761340700279640600,4.826640625,0.34016549587249756,2.013932228088379,-2.0672872066497803
1761340700289707800,4.836707763671875,0.5212897062301636,1.7225106954574585,-2.6385202407836914
1761340700299774700,4.846774658203125,0.7557515501976013,0.10595200955867767,-2.8145415782928467
1761340700309840600,4.856840576171875,1.0494153499603271,-2.7555410861968994,-2.733503580093384
1761340700319907600,4.866907470703125,1.4975411891937256,-5.453464984893799,-2.6256959438323975
1761340700329974500,4.876974609375,2.0104997158050537,-6.820802688598633,-2.2307496070861816
1761340700340041700,4.887041748046875,2.462860345840454,-5.978709697723389,-1.0226155519485474
1761340700350108700,4.897108642578125,2.750002384185791,-3.9110662937164307,0.7785153388977051
1761340700360175600,4.907175537109375,2.5718774795532227,-1.6924501657485962,2.403921365737915
1761340700370242600,4.91724267578125,2.0475733280181885,-0.005328360013663769,3.0735020637512207
1761340700380309500,4.9273095703125,1.422964334487915,1.1510649919509888,2.9188873767852783
1761340700390375700,4.937375732421875,0.892760694026947,1.8966933488845825,2.4538066387176514
1761340700400442600,4.947442626953125,0.4270136058330536,2.332441568374634,2.043550491333008
1761340700410509600,4.957509521484375,-0.01672203093767166,2.375990867614746,1.8554141521453857
1761340700420576500,4.967576416015625,-0.3817937672138214,1.9471487998962402,1.937166690826416
1761340700430643500,4.9776435546875,-0.5533066987991333,1.0930067300796509,2.219771385192871
1761340700440710700,4.987710693359375,-0.5360060930252075,0.11489660292863846,2.5294852256774902
1761340700450777600,4.997777587890625,-0.4102862477302551,-0.5307809710502625,2.7178754806518555
1761340700460844500,5.007844482421875,-0.1341177523136139,-0.806145191192627,2.6386935710906982
1761340700470910500,5.017910400390625,0.231501504778862,-0.7797213196754456,2.2772269248962402
1761340700480977400,5.027977294921875,0.5908426642417908,-0.5186229348182678,1.7228214740753174
1761340700491044600,5.038044677734375,0.8603394031524658,-0.18505853414535522,1.1118228435516357
1761340700501111600,5.048111572265625,0.996385395526886,0.07722441852092743,0.5936837196350098
1761340700511178500,5.058178466796875,1.0080937147140503,0.19579555094242096,0.2339838594198227
1761340700521245700,5.06824560546875,0.903362512588501,0.1775636225938797,0.03954717516899109
1761340700531312600,5.078312744140625,0.7428207397460938,0.08134281635284424,-0.033468443900346756
1761340700541378600,5.088378662109375,0.5973039865493774,-0.04462045431137085,-0.04750359058380127
1761340700551445800,5.09844580078125,0.4861513376235962,-0.1638067662715912,-0.06134776771068573
1761340700561512700,5.1085126953125,0.38321754336357117,-0.25822532176971436,-0.09092944860458374
1761340700571579600,5.11857958984375,0.2756599187850952,-0.3286595344543457,-0.15993086993694305
1761340700581646600,5.128646484375,0.17522096633911133,-0.3821337819099426,-0.2852834165096283
1761340700591713800,5.1387138671875,0.09043683856725693,-0.3746417760848999,-0.46586358547210693
1761340700601780700,5.14878076171875,0.009426050819456577,-0.28319990634918213,-0.6921201944351196
1761340700611847700,5.15884765625,-0.07702548056840897,-0.11846794188022614,-0.9273465275764465
1761340700621913600,5.16891357421875,-0.1695375144481659,0.05476934462785721,-1.1430163383483887
1761340700631980800,5.178980712890625,-0.2689192295074463,0.22308510541915894,-1.3550320863723755
1761340700642048000,5.189048095703125,-0.36199599504470825,0.42216193675994873,-1.5408477783203125
1761340700652115000,5.199114990234375,-0.43348774313926697,0.6066750288009644,-1.659328579902649
1761340700662182100,5.20918212890625,-0.4911898374557495,0.7204371094703674,-1.6908892393112183
1761340700672249000,5.2192490234375,-0.5297287702560425,0.7823542952537537,-1.6392329931259155
1761340700682316000,5.22931591796875,-0.5548257827758789,0.8158729076385498,-1.485852837562561
1761340700692383000,5.239383056640625,-0.5849650502204895,0.7875709533691406,-1.2258079051971436
1761340700702449200,5.24944921875,-0.6217015981674194,0.7157235741615295,-0.8876960873603821
1761340700712516000,5.25951611328125,-0.6462183594703674,0.6292216777801514,-0.49996697902679443
1761340700722583000,5.2695830078125,-0.6353451013565063,0.4942745566368103,-0.0847620740532875
1761340700732650000,5.27964990234375,-0.5773584842681885,0.29927098751068115,0.30863553285598755
1761340700742717000,5.289717041015625,-0.4817679524421692,0.06622181832790375,0.6446743607521057
1761340700752784100,5.2997841796875,-0.39146387577056885,-0.14089861512184143,0.9416636824607849
1761340700762851000,5.30985107421875,-0.3136063814163208,-0.33139708638191223,1.1591280698776245
1761340700772918000,5.31991796875,-0.22569359838962555,-0.4343429207801819,1.263621211051941
1761340700782984000,5.32998388671875,-0.1596175581216812,-0.4081827402114868,1.2260502576828003
1761340700793051000,5.34005078125,-0.13062478601932526,-0.17013423144817352,0.9768409729003906
1761340700803118000,5.3501181640625,-0.18187980353832245,0.40596723556518555,0.45640137791633606
1761340700813185000,5.36018505859375,-0.2949219048023224,1.4141364097595215,-0.3492453098297119
1761340700823252000,5.370251953125,-0.35023248195648193,2.6122403144836426,-1.3540154695510864
1761340700833319000,5.38031884765625,-0.37705689668655396,3.213526725769043,-2.290842294692993
1761340700843385900,5.3903857421875,-0.3279282748699188,2.060180187225342,-2.906343460083008
1761340700853452800,5.400452880859375,0.10228621959686279,-1.5674233436584473,-3.250516653060913
1761340700863519000,5.41051904296875,1.2127399444580078,-5.166309356689453,-2.9465324878692627
1761340700873586000,5.4205859375,2.2688674926757812,-6.080000400543213,-1.6318589448928833
1761340700883652900,5.43065283203125,2.573103904724121,-5.279301643371582,0.20782890915870667
1761340700893719800,5.4407197265625,2.551179885864258,-3.232933521270752,1.963038682937622
1761340700903787000,5.450787109375,2.3496737480163574,-0.6234595775604248,3.0193874835968018
1761340700913854000,5.46085400390625,1.7266886234283447,1.3128955364227295,3.0714099407196045
1761340700923921000,5.4709208984375,0.9252694845199585,2.5110721588134766,2.5372626781463623
1761340700933988000,5.480988037109375,0.2234322726726532,3.1077282428741455,1.9457135200500488
1761340700944054000,5.491053955078125,-0.36332979798316956,3.2820146083831787,1.6317334175109863
1761340700954121000,5.501120849609375,-0.8380004167556763,3.0386579036712646,1.5670617818832397
1761340700964188200,5.511188232421875,-1.189663290977478,2.4476146697998047,1.6171457767486572
1761340700974255000,5.521255126953125,-1.3915116786956787,1.6209666728973389,1.651670217514038
1761340700984322000,5.531322021484375,-1.4468333721160889,0.8466556072235107,1.641504168510437
1761340700994389000,5.541388916015625,-1.4337971210479736,0.1637507975101471,1.51732337474823
1761340701004456000,5.5514560546875,-1.4587428569793701,-0.34645429253578186,1.2631877660751343
1761340701014522000,5.561522216796875,-1.5591964721679688,-0.586313784122467,0.8764628767967224
1761340701024589000,5.571589111328125,-1.688725471496582,-0.5537726879119873,0.39746716618537903
1761340701034656000,5.581656005859375,-1.7720693349838257,-0.371452659368515,-0.09070783853530884
1761340701044723000,5.591722900390625,-1.743293285369873,-0.12254756689071655,-0.5183027386665344
1761340701054790100,5.6017900390625,-1.631241798400879,0.11438082903623581,-0.8400837182998657
1761340701064857000,5.611857177734375,-1.4988856315612793,0.2685520052909851,-1.0364044904708862
1761340701074924000,5.621924072265625,-1.357960820198059,0.3448113799095154,-1.1361092329025269
1761340701084991000,5.631990966796875,-1.240107774734497,0.40192773938179016,-1.1978399753570557
1761340701095057000,5.642056884765625,-1.17793607711792,0.41147199273109436,-1.2372039556503296
1761340701105124000,5.6521240234375,-1.1943527460098267,0.3664017617702484,-1.2471920251846313
1761340701115191000,5.66219091796875,-1.251024842262268,0.28574711084365845,-1.253260612487793
1761340701125258000,5.672258056640625,-1.2994930744171143,0.280826210975647,-1.272576928138733
1761340701135325000,5.682324951171875,-1.3272894620895386,0.3960675895214081,-1.2931170463562012
1761340701145391900,5.692391845703125,-1.3324300050735474,0.5891722440719604,-1.2809257507324219
1761340701155458800,5.702458740234375,-1.3042926788330078,0.7955552339553833,-1.2005259990692139
1761340701165525000,5.71252490234375,-1.2700848579406738,0.9303654432296753,-1.0522063970565796
1761340701175592000,5.722592041015625,-1.2189902067184448,0.9820199012756348,-0.8367603421211243
1761340701185659000,5.732658935546875,-1.1486254930496216,0.9112262725830078,-0.5956245064735413
1761340701195725800,5.742725830078125,-1.040703296661377,0.721123456954956,-0.3663838803768158
1761340701205793000,5.75279296875,-0.8987631797790527,0.4831913709640503,-0.19147232174873352
1761340701215860000,5.76285986328125,-0.7241522669792175,0.26966896653175354,-0.09508320689201355
1761340701225927000,5.772927001953125,-0.5033848881721497,0.1269885003566742,-0.062415070831775665
1761340701235994000,5.782994140625,-0.25764569640159607,0.1282987743616104,-0.08702720701694489
1761340701246059800,5.793059814453125,-0.03076424077153206,0.20150232315063477,-0.08529022336006165
1761340701256127000,5.803126953125,0.15803498029708862,0.23259179294109344,0.007352365180850029
1761340701266194000,5.81319384765625,0.29641637206077576,0.19416078925132751,0.2128182202577591
1761340701276261000,5.82326123046875,0.3837462067604065,0.05767565593123436,0.4819924235343933
1761340701286328000,5.833328125,0.4425460994243622,-0.14327740669250488,0.7730490565299988
1761340701296395000,5.84339501953125,0.49422207474708557,-0.3684905469417572,1.0403252840042114
1761340701306462000,5.8534619140625,0.5440751314163208,-0.5787684321403503,1.2501428127288818
1761340701316528000,5.863528076171875,0.5819652080535889,-0.7140204906463623,1.3784579038619995
1761340701326595000,5.873594970703125,0.5963881015777588,-0.7648524045944214,1.3838696479797363
1761340701336662000,5.883662109375,0.6085654497146606,-0.5907211303710938,1.2449519634246826
1761340701346729000,5.89372900390625,0.5869057774543762,-0.10031753778457642,0.977382242679596
1761340701356796000,5.9037958984375,0.5086139440536499,0.6321263313293457,0.5985451936721802
1761340701366863000,5.913863037109375,0.4638090133666992,1.4740272760391235,0.08039600402116776
1761340701376930000,5.923929931640625,0.460612416267395,2.3106913566589355,-0.7045174241065979
1761340701386997000,5.9339970703125,0.41884660720825195,2.3603129386901855,-1.8102189302444458
1761340701397063000,5.94406298828125,0.3089182376861572,-0.06111401319503784,-3.3754100799560547
1761340701407130000,5.954130126953125,0.6419380903244019,-4.446063995361328,-4.9605841636657715
1761340701417197000,5.964197021484375,1.5969746112823486,-7.542418003082275,-5.2276129722595215
1761340701427264000,5.974263916015625,2.0497169494628906,-7.065309524536133,-3.6292810440063477
1761340701437331000,5.9843310546875,1.8135417699813843,-4.85933256149292,-1.1078912019729614
1761340701447398000,5.99439794921875,1.7791529893875122,-2.0453827381134033,1.290697693824768
1761340701457464800,6.00446484375,1.7018510103225708,0.21735434234142303,2.546886444091797
1761340701467532000,6.014531982421875,1.3336288928985596,1.6907776594161987,2.527010917663574
1761340701477598000,6.024597900390625,0.9923533797264099,2.6344025135040283,1.9420232772827148
1761340701487665000,6.034664794921875,0.7002706527709961,3.0624053478240967,1.4641655683517456
1761340701497731800,6.04473193359375,0.37524038553237915,2.931617498397827,1.337768793106079
1761340701507798800,6.054798828125,-0.008968153968453407,2.4578030109405518,1.5016199350357056
1761340701517866000,6.064865966796875,-0.3554975986480713,1.79261314868927,1.7420692443847656
1761340701527933000,6.074932861328125,-0.613326370716095,1.1022359132766724,1.9735641479492188
1761340701538000000,6.084999755859375,-0.7610037326812744,0.39619627594947815,2.1088054180145264
1761340701548065800,6.095065673828125,-0.8154276013374329,-0.24959464371204376,2.0259523391723633
1761340701558133000,6.105133056640625,-0.8192678689956665,-0.6648344397544861,1.7016392946243286
1761340701568200000,6.115199951171875,-0.7592285871505737,-0.7412853837013245,1.1277869939804077
1761340701578267100,6.12526708984375,-0.6541873812675476,-0.5512104630470276,0.42215994000434875
1761340701588334000,6.135333984375,-0.5395998358726501,-0.23961985111236572,-0.315303772687912
1761340701598401000,6.145401123046875,-0.4497450292110443,0.0212442334741354,-0.9399852156639099
1761340701608468000,6.155468017578125,-0.3958115875720978,0.20086218416690826,-1.3720985651016235
1761340701618535200,6.16553515625,-0.3681083023548126,0.32898926734924316,-1.6075800657272339
1761340701628601000,6.17560107421875,-0.35929352045059204,0.37554028630256653,-1.6721752882003784
1761340701638667300,6.185667236328125,-0.3453628122806549,0.3586249351501465,-1.5990866422653198
1761340701648734200,6.195734130859375,-0.31053370237350464,0.26661229133605957,-1.4443097114562988
1761340701658801400,6.205801513671875,-0.2563663423061371,0.09983848035335541,-1.26265549659729
1761340701668868400,6.215868408203125,-0.17058320343494415,-0.10875922441482544,-1.0714753866195679
1761340701678935300,6.225935302734375,-0.031045807525515556,-0.3231293261051178,-0.910881757736206
1761340701689002500,6.23600244140625,0.1430921107530594,-0.4712578058242798,-0.7834319472312927
1761340701699068400,6.246068359375,0.345326691865921,-0.5361619591712952,-0.7064855098724365
1761340701709135400,6.25613525390625,0.5374546647071838,-0.5128463506698608,-0.673243522644043
1761340701719202300,6.266202392578125,0.6625398993492126,-0.4541507661342621,-0.6751495599746704
1761340701729269500,6.27626953125,0.7272453904151917,-0.3973308801651001,-0.6855358481407166
1761340701739336400,6.28633642578125,0.7648196816444397,-0.3527865707874298,-0.6868210434913635
1761340701749403400,6.2964033203125,0.7897240519523621,-0.3673675060272217,-0.6457774639129639
1761340701759470300,6.30647021484375,0.788244903087616,-0.41096505522727966,-0.5217567086219788
1761340701769537500,6.31653759765625,0.7474682331085205,-0.47493836283683777,-0.3387894034385681
1761340701779603500,6.326603515625,0.6580501794815063,-0.5472232103347778,-0.12536393105983734
1761340701789670400,6.33667041015625,0.5329951643943787,-0.6008163690567017,0.08808954060077667
1761340701799737300,6.3467373046875,0.3902406692504883,-0.6245243549346924,0.2764149606227875
1761340701809804500,6.356804443359375,0.2513892352581024,-0.5613026022911072,0.4206385612487793
1761340701819871500,6.36687158203125,0.12170076370239258,-0.38681280612945557,0.53872150182724
1761340701829938400,6.3769384765625,-0.021170131862163544,-0.152981236577034,0.6382191777229309
1761340701840005400,6.38700537109375,-0.16751429438591003,0.048636846244335175,0.7196940779685974
1761340701850071600,6.397071533203125,-0.3026564121246338,0.16123300790786743,0.7864168882369995
1761340701860138500,6.407138427734375,-0.43445783853530884,0.15311409533023834,0.825746476650238
1761340701870205400,6.417205322265625,-0.5399840474128723,0.06073686107993126,0.8278292417526245
1761340701880272400,6.4272724609375,-0.6046525239944458,0.03191240504384041,0.7399763464927673
1761340701890339300,6.43733935546875,-0.6256278157234192,0.24615247547626495,0.5646600723266602
1761340701900406300,6.44740625,-0.5723512768745422,0.8000497817993164,0.36603325605392456
1761340701910473500,6.457473388671875,-0.3904764652252197,1.6495729684829712,0.09448844194412231
1761340701920540400,6.46754052734375,-0.026278799399733543,2.685243844985962,-0.29873713850975037
1761340701930606300,6.4776064453125,0.32112571597099304,3.216028928756714,-0.8964317440986633
1761340701940673300,6.48767333984375,0.5282669067382812,1.512787938117981,-1.9189412593841553
1761340701950740200,6.497740234375,0.9666908979415894,-2.9997119903564453,-3.2398078441619873
1761340701960807400,6.507807373046875,2.088447332382202,-7.061195373535156,-3.556971788406372
1761340701970874400,6.517874267578125,2.8787851333618164,-7.501414775848389,-2.098234176635742
1761340701980941300,6.52794140625,2.5570828914642334,-5.478637218475342,0.46844905614852905
1761340701991008300,6.53800830078125,1.8884809017181396,-2.910674810409546,2.5581347942352295
1761340702001074400,6.548074462890625,1.2772020101547241,-0.5216243267059326,3.3753559589385986
1761340702011141400,6.558141357421875,0.614648699760437,1.2201762199401855,2.985323667526245
1761340702021208300,6.568208251953125,0.0666964054107666,2.628415822982788,2.0155997276306152
1761340702031275500,6.578275634765625,-0.3067009747028351,3.551637649536133,1.1094272136688232
1761340702041342500,6.588342529296875,-0.5037405490875244,3.8032283782958984,0.7119061350822449
1761340702051409400,6.598409423828125,-0.500937819480896,3.42069935798645,0.7901232838630676
1761340702061476400,6.608476318359375,-0.3818860352039337,2.643948793411255,1.1655147075653076
1761340702071542500,6.61854248046875,-0.23749318718910217,1.7030279636383057,1.6819570064544678
1761340702081609500,6.628609375,-0.11256402730941772,0.766135573387146,2.199824810028076
1761340702091676400,6.638676513671875,-0.048191919922828674,-0.07243572175502777,2.552896738052368
1761340702101743400,6.648743408203125,-0.048262227326631546,-0.759463369846344,2.6451659202575684
1761340702111810600,6.658810546875,-0.06318370252847672,-1.120866298675537,2.4466729164123535
1761340702121877500,6.66887744140625,-0.10349463671445847,-1.1051340103149414,1.9576305150985718
1761340702131944400,6.6789443359375,-0.16351622343063354,-0.7575560212135315,1.2524207830429077
1761340702142011400,6.689011474609375,-0.20766477286815643,-0.23727047443389893,0.4360654354095459
1761340702152077300,6.699077392578125,-0.23089034855365753,0.3477794826030731,-0.3309788405895233
1761340702162144500,6.70914453125,-0.24625973403453827,0.7831416130065918,-0.9405093193054199
1761340702172211500,6.71921142578125,-0.2732948958873749,0.9927430152893066,-1.3196063041687012
1761340702182278400,6.7292783203125,-0.2920699119567871,1.0137556791305542,-1.4897897243499756
1761340702192345300,6.739345458984375,-0.31469571590423584,0.8617091178894043,-1.511998176574707
1761340702202412300,6.749412353515625,-0.333893358707428,0.571007251739502,-1.4348710775375366
1761340702212479200,6.759479248046875,-0.33342546224594116,0.2419915497303009,-1.3337510824203491
1761340702222545400,6.76954541015625,-0.3145276606082916,0.004577400162816048,-1.2681512832641602
1761340702232612400,6.7796123046875,-0.28031888604164124,-0.082662433385849,-1.2411229610443115
1761340702242679300,6.78967919921875,-0.2359682023525238,-0.07176850736141205,-1.2324590682983398
1761340702252746200,6.799746337890625,-0.19851621985435486,0.0181557759642601,-1.2247579097747803
1761340702262813400,6.8098134765625,-0.17078524827957153,0.13489437103271484,-1.2021324634552002
1761340702272880400,6.81988037109375,-0.14311105012893677,0.23642949759960175,-1.144762396812439
1761340702282947300,6.829947265625,-0.1252678781747818,0.2805067002773285,-1.071691632270813
1761340702293013200,6.84001318359375,-0.10190477222204208,0.2601329982280731,-1.0022858381271362
1761340702303080400,6.85008056640625,-0.060215115547180176,0.16672980785369873,-0.9515512585639954
1761340702313147400,6.8601474609375,0.006468701176345348,0.021490398794412613,-0.8882379531860352
1761340702323214300,6.87021435546875,0.09439057111740112,-0.15142704546451569,-0.811283528804779
1761340702333281500,6.880281494140625,0.2255590260028839,-0.33990612626075745,-0.7069459557533264
1761340702343348500,6.890348388671875,0.3963656425476074,-0.5138829946517944,-0.5605506300926208
1761340702353415400,6.90041552734375,0.5833892226219177,-0.7054674625396729,-0.36055341362953186
1761340702363482400,6.910482421875,0.7368355393409729,-0.9180777668952942,-0.10201453417539597
1761340702373548500,6.920548583984375,0.8553308844566345,-1.1153202056884766,0.18724192678928375
1761340702383615500,6.930615478515625,0.9492451548576355,-1.232142448425293,0.4757528007030487
1761340702393682400,6.940682373046875,1.0035865306854248,-1.2437925338745117,0.7322893738746643
1761340702403749400,6.950749267578125,0.9989004135131836,-1.2282273769378662,0.9408825039863586
1761340702413816600,6.960816650390625,0.9174100756645203,-1.2090251445770264,1.0912766456604004
1761340702423883500,6.970883544921875,0.7938684225082397,-1.0541203022003174,1.1705949306488037
1761340702433950500,6.980950439453125,0.643939197063446,-0.5972055196762085,1.1169966459274292
1761340702444016400,6.991016357421875,0.39560821652412415,0.30485057830810547,0.9532515406608582
1761340702454083300,7.001083251953125,-0.04207582399249077,1.8621752262115479,0.8043473362922668
1761340702464150500,7.011150634765625,-0.3192616105079651,3.6387746334075928,0.8233045339584351
1761340702474217500,7.021217529296875,-0.21861828863620758,4.9742889404296875,1.1861586570739746
1761340702484284400,7.031284423828125,0.32007235288619995,4.715724945068359,1.6277662515640259
1761340702494351400,7.041351318359375,1.4250460863113403,0.8883875012397766,1.184520959854126
1761340702504418300,7.051418212890625,2.88672137260437,-5.508364677429199,-0.27385470271110535
1761340702514484500,7.061484375,3.6005754470825195,-9.594927787780762,-1.6305824518203735
1761340702524551400,7.071551513671875,3.3508260250091553,-9.535066604614258,-2.049478530883789
1761340702534618400,7.081618408203125,2.053906202316284,-6.1376543045043945,-1.1957356929779053
1761340702544685300,7.091685302734375,0.09364006668329239,-1.6729307174682617,0.47561702132225037
1761340702554752300,7.101752197265625,-1.607640027999878,2.0817196369171143,1.7109627723693848
1761340702564819500,7.1118193359375,-2.766443967819214,4.1240973472595215,1.856055498123169
1761340702574886400,7.121886474609375,-3.4245293140411377,4.819850921630859,1.1786396503448486
1761340702584953300,7.131953369140625,-3.5947625637054443,4.742572784423828,0.43198251724243164
1761340702595019300,7.142019287109375,-3.391941547393799,4.061694622039795,-0.001808959525078535
1761340702605086200,7.152086181640625,-3.047314405441284,3.0078415870666504,-0.13144232332706451
1761340702615153400,7.1621533203125,-2.666558027267456,1.8832921981811523,-0.0964880883693695
1761340702625220400,7.172220458984375,-2.175227165222168,0.9532710909843445,0.01618572697043419
1761340702635287800,7.182287841796875,-1.6191298961639404,0.2285754531621933,0.11954303830862045
1761340702645354800,7.192354736328125,-1.1110186576843262,-0.26234525442123413,0.1759280115365982
1761340702655421700,7.202421630859375,-0.5827996134757996,-0.6134123206138611,0.29028257727622986
1761340702665488000,7.21248779296875,-0.139510840177536,-0.8556880950927734,0.4738297760486603
1761340702675554800,7.222554931640625,0.0646837055683136,-0.9743309617042542,0.726928174495697
1761340702685621800,7.232621826171875,0.03502115234732628,-0.9591498374938965,1.0195152759552002
1761340702695688700,7.242688720703125,-0.08612995594739914,-0.8827095627784729,1.2899365425109863
1761340702705755600,7.252755615234375,-0.2180757373571396,-0.7513688802719116,1.4402389526367188
1761340702715822600,7.262822509765625,-0.32059982419013977,-0.5679464936256409,1.3638041019439697
1761340702725889800,7.272889892578125,-0.39830633997917175,-0.275867223739624,1.1036643981933594
1761340702735955700,7.282955810546875,-0.5181404948234558,0.02353077381849289,0.6724564433097839
1761340702746022700,7.293022705078125,-0.6378642320632935,0.25203558802604675,0.11959140002727509
1761340702756089600,7.303089599609375,-0.6919853091239929,0.47315630316734314,-0.45445629954338074
1761340702766156800,7.31315673828125,-0.6502663493156433,0.6757645606994629,-0.9618833065032959
1761340702776223700,7.3232236328125,-0.5500815510749817,0.7553401589393616,-1.323716640472412
1761340702786290700,7.333290771484375,-0.4088251292705536,0.6693480610847473,-1.521624207496643
1761340702796357600,7.343357666015625,-0.22516736388206482,0.5069118738174438,-1.570834994316101
1761340702806423600,7.353423583984375,-0.00587390037253499,0.3184146583080292,-1.509791612625122
1761340702816490800,7.36349072265625,0.22574245929718018,0.13561807572841644,-1.3669970035552979
1761340702826557700,7.3735576171875,0.45754051208496094,-0.019718511030077934,-1.1514495611190796
1761340702836624600,7.383624755859375,0.6639897227287292,-0.18825843930244446,-0.8715474009513855
1761340702846691800,7.39369189453125,0.8146231770515442,-0.3745926022529602,-0.5421138405799866
1761340702856758800,7.4037587890625,0.8920093178749084,-0.5868656635284424,-0.18365301191806793
1761340702866825700,7.41382568359375,0.8742532134056091,-0.8292916417121887,0.16285593807697296
1761340702876891600,7.4238916015625,0.7495743036270142,-1.0219519138336182,0.47174200415611267
1761340702886958800,7.433958740234375,0.5520449876785278,-1.1267776489257812,0.6984497308731079
1761340702897025800,7.44402587890625,0.3747459053993225,-1.110864520072937,0.8226209282875061
1761340702907092700,7.4540927734375,0.23800750076770782,-0.9926332235336304,0.8243791460990906
1761340702917159700,7.46415966796875,0.1566341668367386,-0.76258385181427,0.6790768504142761
1761340702927227000,7.474226806640625,0.13335974514484406,-0.39614275097846985,0.3827064633369446
1761340702937293800,7.4842939453125,-0.14852996170520782,1.4025797843933105,0.08895005285739899
1761340702947360800,7.49436083984375,-0.6152063608169556,3.188478946685791,-0.56730717420578
1761340702957426700,7.5044267578125,-1.168514609336853,2.2395336627960205,-0.9273138642311096
1761340702967494000,7.514493896484375,-1.4512094259262085,1.677000880241394,-1.0246119499206543
1761340702977560800,7.524560791015625,-1.1563810110092163,1.115017056465149,-1.5606878995895386
1761340702987627800,7.534627685546875,-0.8670048713684082,0.6761187314987183,-2.1363086700439453
1761340702997694700,7.54469482421875,-0.7280600666999817,0.4218950867652893,-2.439504623413086
1761340703007761700,7.55476171875,-0.3871634602546692,0.0789814293384552,-2.3374927043914795
1761340703017828600,7.56482861328125,0.20895999670028687,-0.11372126638889313,-1.6953423023223877
1761340703027894800,7.574894775390625,0.7665963172912598,-0.45389506220817566,-0.7069311141967773
1761340703037961700,7.584961669921875,1.121085524559021,-1.2208853960037231,0.009060072712600231
1761340703048028700,7.595028564453125,1.1832082271575928,-2.583799362182617,0.05016836151480675
1761340703058095600,7.605095703125,0.8063226938247681,-3.978970766067505,-0.5389620661735535
1761340703068162600,7.61516259765625,-0.014130624011158943,-4.619009017944336,-1.5972137451171875
1761340703078229800,7.625229736328125,-0.7615864872932434,-4.374587535858154,-2.6279542446136475
1761340703088296700,7.635296630859375,-1.1402387619018555,-3.166746139526367,-3.0913705825805664
1761340703098362600,7.645362548828125,-1.14048171043396,-1.2964750528335571,-2.568739891052246
1761340703108429600,7.6554296875,-0.9827869534492493,0.004739319905638695,-1.7019014358520508
1761340703118496800,7.665496826171875,-0.9298292398452759,0.7384924292564392,-1.1221798658370972
1761340703128563700,7.675563720703125,-0.7180410623550415,0.936138927936554,-0.7531478404998779
1761340703138630700,7.685630615234375,-0.4877346158027649,0.7306461930274963,-0.5452980399131775
1761340703148697600,7.695697509765625,-0.2926167845726013,0.25761526823043823,-0.4632553458213806
1761340703158764800,7.705764892578125,-0.13956594467163086,-0.2940237522125244,-0.4834819734096527
1761340703168830700,7.715830810546875,-0.014157688245177269,-0.7071546316146851,-0.5081457495689392
1761340703178897700,7.725897705078125,0.19005589187145233,-0.657335102558136,-0.47387003898620605
1761340703188964900,7.73596484375,0.42402681708335876,-0.29327884316444397,-0.5000976324081421
1761340703199031800,7.74603173828125,0.5574158430099487,0.0891830176115036,-0.399179607629776
1761340703209098800,7.7560986328125,0.6881527900695801,0.40525177121162415,-0.2642422914505005
1761340703219165700,7.766165771484375,0.7391215562820435,0.363206684589386,-0.10710704326629639
1761340703229233000,7.77623291015625,0.7199598550796509,0.07106883823871613,0.08404480665922165
1761340703239298800,7.786298828125,0.7051360011100769,-0.31792208552360535,0.2892511785030365
1761340703249365800,7.79636572265625,0.6883333325386047,-0.5895394682884216,0.5019996762275696
1761340703259432700,7.8064326171875,0.6675481796264648,-0.6406711935997009,0.6211928129196167
1761340703269500000,7.8165,0.7131838202476501,-0.4302481412887573,0.6297876238822937
1761340703279566800,7.82656689453125,0.8109917640686035,-0.03385845571756363,0.5769877433776855
1761340703289633800,7.8366337890625,0.8893595337867737,0.3638777434825897,0.5273237824440002
1761340703299700700,7.84670068359375,0.9910271763801575,0.7241832613945007,0.5165392756462097
1761340703309766700,7.8567666015625,1.0689421892166138,0.964239239692688,0.5663875341415405
1761340703319833900,7.866833740234375,1.0466430187225342,1.0485185384750366,0.6335520148277283
1761340703329900800,7.87690087890625,1.006759524345398,0.8870201706886292,0.6641019582748413
1761340703339967700,7.8869677734375,0.9324483275413513,0.656746506690979,0.6417604684829712
1761340703350034700,7.89703466796875,0.6816419363021851,0.5718814134597778,0.6433554291725159
1761340703360101600,7.9071015625,0.4049977660179138,0.280338317155838,0.554533839225769
1761340703370167800,7.917167724609375,0.17298583686351776,0.38710710406303406,0.34767648577690125
1761340703380234800,7.92723486328125,-0.03333783894777298,0.30229651927948,0.14036837220191956
1761340703390301700,7.9373017578125,-0.028203798457980156,0.2538842558860779,-0.08225777745246887
1761340703400368600,7.94736865234375,0.18734924495220184,0.41599375009536743,-0.26860886812210083
1761340703410435600,7.957435546875,0.3949540853500366,0.4224007725715637,-0.31234675645828247
1761340703420502800,7.967502685546875,0.4447946548461914,0.22233815491199493,-0.2142706960439682
1761340703430569700,7.97756982421875,0.4885045886039734,-0.19127444922924042,-0.16951361298561096
1761340703440636700,7.98763671875,0.5767008066177368,-0.8178049921989441,-0.38510775566101074
1761340703450702600,7.99770263671875,0.5848847031593323,-1.4820746183395386,-0.762924313545227
1761340703460768800,8.007768798828126,0.43238312005996704,-1.8176088333129883,-1.0065281391143799
1761340703470835700,8.017835693359375,0.2659808099269867,-1.551406979560852,-0.9030589461326599
1761340703480902700,8.027902587890624,0.11342910677194595,-0.8731251358985901,-0.4704834520816803
1761340703490969600,8.037969482421875,0.013258032500743866,-0.05510670691728592,0.19106706976890564
1761340703501036500,8.04803662109375,-0.18781931698322296,0.4806635081768036,0.8354961276054382
1761340703511102700,8.058102783203125,-0.3506010174751282,0.9105115532875061,1.329026222229004
1761340703521169700,8.068169677734375,-0.38152891397476196,1.1378026008605957,1.6261777877807617
1761340703531236600,8.078236572265626,-0.37483906745910645,1.1101171970367432,1.7076771259307861
1761340703541303600,8.088303466796875,-0.33124250173568726,0.9562187790870667,1.6386255025863647
1761340703551370500,8.09837060546875,-0.18776628375053406,0.7584292888641357,1.4664678573608398
1761340703561438000,8.10843798828125,0.004965490195900202,0.6272125840187073,1.1697176694869995
1761340703571505000,8.1185048828125,0.19007009267807007,0.6034166812896729,0.7495375275611877
1761340703581570600,8.128570556640625,0.3722511827945709,0.6139900088310242,0.286355197429657
1761340703591637800,8.1386376953125,0.5005772113800049,0.5885400176048279,-0.123235784471035
1761340703601705000,8.148705078125,0.5302323698997498,0.4330343008041382,-0.4869048297405243
1761340703611772000,8.15877197265625,0.4636562764644623,0.15366391837596893,-0.8464446067810059
1761340703621838800,8.1688388671875,0.3321557641029358,-0.17093747854232788,-1.1754848957061768
1761340703631905800,8.17890576171875,0.16938470304012299,-0.548101544380188,-1.397233247756958
1761340703641972200,8.18897216796875,0.015934551134705544,-0.9000155329704285,-1.3973709344863892
1761340703652038400,8.199038330078125,-0.09853503108024597,-1.1313265562057495,-1.1373945474624634
1761340703662105300,8.209105224609376,-0.19975724816322327,-1.147368311882019,-0.6594613790512085
1761340703672172300,8.21917236328125,-0.30821260809898376,-0.9982309937477112,-0.06980183720588684
1761340703682239200,8.2292392578125,-0.3806665539741516,-0.7409619092941284,0.49511128664016724
1761340703692306200,8.23930615234375,-0.4174373745918274,-0.4522206783294678,0.9092525839805603
1761340703702373400,8.249373291015624,-0.3840179145336151,-0.1783149093389511,1.1185928583145142
1761340703712440300,8.2594404296875,-0.29109835624694824,0.06854680180549622,1.1501829624176025
1761340703722506200,8.26950634765625,-0.15443895757198334,0.25188353657722473,1.023618221282959
1761340703732573200,8.2795732421875,-0.004019890446215868,0.38851168751716614,0.7988197207450867
1761340703742640400,8.289640380859375,0.12474051862955093,0.43876996636390686,0.5293026566505432
1761340703752707300,8.299707275390626,0.20519834756851196,0.3933071494102478,0.281946063041687
1761340703762774300,8.309774169921875,0.2466263771057129,0.2954973578453064,0.08954912424087524
1761340703772841200,8.31984130859375,0.24281778931617737,0.19205589592456818,-0.024293554946780205
1761340703782908200,8.329908203125,0.20299331843852997,0.09477648884057999,-0.0733598992228508
1761340703792974300,8.339974365234376,0.12169578671455383,0.017499012872576714,-0.07441876828670502
1761340703803041300,8.350041259765625,0.03718182444572449,-0.020644942298531532,-0.06208252161741257
1761340703813108200,8.360108154296874,-0.028164157643914223,0.001619882881641388,-0.02358999103307724
1761340703823175200,8.370175048828125,-0.10485152155160904,0.016128093004226685,0.025283481925725937
1761340703833242000,8.3802421875,-0.16713275015354156,0.022940725088119507,0.044300053268671036
1761340703843310300,8.390310302734376,-0.17195825278759003,0.044389355927705765,0.011790178716182709
1761340703853377300,8.400377197265625,-0.14468322694301605,0.07729829847812653,-0.03604072332382202
1761340703863444200,8.4104443359375,-0.11762735247612,0.07946567982435226,-0.0820210799574852
1761340703873510400,8.420510498046875,-0.09510739892721176,0.058797676116228104,-0.12543487548828125
1761340703883577300,8.430577392578124,-0.0688956081867218,0.04636285454034805,-0.16746966540813446
1761340703893644300,8.440644287109375,-0.03818243741989136,0.02661285176873207,-0.1855434626340866
1761340703903711200,8.450711181640624,-0.011329444125294685,-0.00500705000013113,-0.14857223629951477
1761340703913778400,8.4607783203125,0.00027235085144639015,-0.07301352918148041,-0.07872419059276581
1761340703923845400,8.470845458984375,-0.003152524121105671,-0.15204909443855286,0.004161086864769459
1761340703933912300,8.480912353515626,-0.011379294097423553,-0.18262244760990143,0.07175558060407639
1761340703943978200,8.490978271484375,-0.0350601002573967,-0.17131619155406952,0.10668307542800903
1761340703954045200,8.501045166015626,-0.07127242535352707,-0.1270483285188675,0.0995202362537384
1761340703964112400,8.5111123046875,-0.11431054025888443,-0.052334174513816833,0.06748796999454498
1761340703974179300,8.521179443359374,-0.16215583682060242,0.03297007083892822,0.02927560545504093
1761340703984246300,8.531246337890625,-0.19278864562511444,0.1170111894607544,-0.005290070082992315
1761340703994313200,8.541313232421874,-0.18833796679973602,0.17192824184894562,-0.024208366870880127
1761340704004380200,8.551380126953125,-0.16307798027992249,0.1510448008775711,-0.010749008506536484
1761340704014446300,8.5614462890625,-0.1265665739774704,0.10263465344905853,0.025905944406986237
1761340704024513300,8.57151318359375,-0.08706186711788177,0.07719970494508743,0.06855958700180054
1761340704034580200,8.581580322265625,-0.07106612622737885,0.08317610621452332,0.12444309145212173
1761340704044647200,8.591647216796876,-0.06387478858232498,0.11239150911569595,0.17661574482917786
1761340704054714000,8.601714111328125,-0.06327211856842041,0.12622609734535217,0.19043542444705963
1761340704064781300,8.61178125,-0.061535272747278214,0.11530223488807678,0.15754811465740204
1761340704074848300,8.62184814453125,-0.054924510419368744,0.09464463591575623,0.10961813479661942
1761340704084914200,8.6319140625,-0.04265756532549858,0.04514313489198685,0.04204949364066124
1761340704094981000,8.641981201171875,-0.03246591240167618,-0.010078308172523975,-0.016244973987340927
1761340704105048000,8.652048095703124,-0.027297627180814743,-0.02812255173921585,-0.06888687610626221
1761340704115115300,8.662115234375,-0.04942689463496208,-0.032482147216796875,-0.09385587275028229
1761340704125182500,8.672182373046875,-0.07466891407966614,-0.04023290053009987,-0.0632689967751503
1761340704135249400,8.68224951171875,-0.09566128253936768,-0.06760753691196442,-0.006112498696893454
1761340704145315000,8.692315185546875,-0.11221849173307419,-0.0828879103064537,0.043128661811351776
1761340704155382300,8.70238232421875,-0.11581535637378693,-0.07183099538087845,0.06555727124214172
1761340704165449500,8.712449462890625,-0.1253906637430191,-0.027163904160261154,0.06265819072723389
1761340704175516400,8.722516357421876,-0.1472352296113968,-0.014214817434549332,0.040492165833711624
1761340704185583400,8.732583251953125,-0.1659247875213623,-0.030470045283436775,0.023382771760225296
1761340704195650300,8.742650390625,-0.16214069724082947,-0.03524669259786606,0.02929924800992012
1761340704205717200,8.75271728515625,-0.13705046474933624,-0.043985605239868164,0.2456831932067871
1761340704215783400,8.762783447265624,-0.11419600993394852,-0.23574198782444,0.39092934131622314
1761340704225850400,8.772850341796875,-0.12845399975776672,-0.20160262286663055,0.4575366675853729
1761340704235917300,8.782917236328124,-0.0785631462931633,-0.10685374587774277,0.2530114948749542
1761340704245984300,8.792984375,0.0007071373984217644,0.034714534878730774,-0.018924498930573463
1761340704256051200,8.80305126953125,0.08558447659015656,0.16360993683338165,-0.26815590262413025
1761340704266118400,8.813118408203126,0.11655852943658829,0.2390620857477188,-0.41721728444099426
1761340704276185300,8.823185302734375,0.10010924935340881,0.24360571801662445,-0.43624502420425415
