time,seconds_elapsed,z,y,x
1761340685727945200,0.0849453125,-1.0596358946710824,-0.030336485145334154,0.07287723935805261
1761340685738012200,0.09501220703125,-0.9155845666110515,-0.027232180720753965,-0.04011683326773345
1761340685748079000,0.1050791015625,-0.6280635097712278,-0.12037143299337476,-0.30709446643572297
1761340685758146000,0.11514599609375,-0.3474041553944349,-0.18439933973513542,-0.4530101270629093
1761340685768213000,0.125212890625,-0.024710662886500357,-0.2600544463086873,-0.39528387774862345
1761340685778280000,0.135280029296875,0.08285422429740429,-0.4208962021825835,-0.3867410172656178
1761340685788347000,0.145346923828125,0.053067573320865626,-0.457525156801939,-0.2764023179868236
1761340685798414000,0.1554140625,-0.5486123719155788,-0.46071693858057255,-0.23581229598307982
1761340685808481000,0.16548095703125,-1.068754436150193,-0.3165188224609941,-0.2279779490956105
1761340685818548000,0.1755478515625,-1.3778729922920465,-0.044448140470311044,-0.24797654356732962
1761340685828615000,0.185614990234375,-1.4538947402209044,0.38707609443888064,-0.20673845118470488
1761340685838681900,0.195681884765625,-0.48699850404560563,1.3385530815556645,-0.7246782561346888
1761340685848748800,0.205748779296875,0.5989332768768072,2.1730841896809636,-0.7808198300734162
1761340685858816000,0.21581591796875,1.29899527041018,0.7957223617814481,-0.030612690004520115
1761340685868883200,0.22588330078125,2.2088789950311183,-0.5416613837338984,0.28681451600566504
1761340685878950100,0.2359501953125,3.1372482244133946,-1.13252518979311,1.0044999175783247
1761340685889017000,0.24601708984375,3.5333144116461277,-1.0857428342215716,0.7249920713242143
1761340685899084000,0.256083984375,2.9128473483532664,-0.9294991101950406,0.5778799674540758
1761340685909151000,0.26615087890625,2.324084752357006,-0.7896298901252448,0.7524433381557464
1761340685919218200,0.27621826171875,1.4270704461812973,-0.8290855560705065,1.025933385425061
1761340685929285000,0.28628515625,0.8528221132278442,-1.0848903090454638,1.2884164471201598
1761340685939352000,0.29635205078125,-0.016652444115281103,-1.1934066517353057,1.009111868353188
1761340685949419000,0.3064189453125,-0.37875674051344393,-0.7867939360469579,0.6262374633878469
1761340685959486000,0.31648583984375,0.04395253897309303,-0.33062428550720213,0.31401728796884415
1761340685969553000,0.326552978515625,0.9429629874020814,-0.2963308246307075,0.32873627980351444
1761340685979620000,0.3366201171875,2.2404881852596996,-0.43048707388117907,0.60334334840402
1761340685989687000,0.34668701171875,3.411398343026638,-0.2705532631650567,0.9008331338115037
1761340685999754000,0.35675390625,4.173757510519027,0.15358926399499176,1.1667181129045783
1761340686009820000,0.36681982421875,4.152172870698571,0.5016258720740676,1.2151873986497521
1761340686019886800,0.376886962890625,3.2984418259322643,0.9010445846050977,1.2607818596109748
1761340686029954000,0.3869541015625,3.2007126885861155,1.1629267577975988,1.3662977053105831
1761340686040021000,0.39702099609375,3.7923762667208907,1.2782424052387475,1.4857237106800079
1761340686050088000,0.407087890625,4.17218690020144,1.1563760209798812,1.5582738369755447
1761340686060155000,0.41715478515625,4.187942103216052,1.242496845857799,1.6025952092610298
1761340686070222000,0.42722216796875,4.3710260495036835,1.8765648567408322,1.4283119706749916
1761340686080289000,0.4372890625,4.480524535098672,2.762353712286055,1.0097871372662484
1761340686090356200,0.447356201171875,4.352527100738882,3.8817297899097203,0.0030323534332215786
1761340686100423200,0.457423095703125,3.8949931761085983,4.711304883062839,-0.45267230994328855
1761340686110490000,0.467489990234375,3.2475773156136274,4.505712752369046,0.043753217008709905
1761340686120557000,0.47755712890625,2.8033775043308733,3.474760223607719,0.6764117994852363
1761340686130624000,0.4876240234375,2.855242716124654,2.337028989604115,1.5603241936340928
1761340686140691000,0.49769091796875,3.145539667418599,2.3077345060586927,2.4375801986336705
1761340686150758100,0.507758056640625,2.270826040378213,3.3681478148430584,2.1071740859217942
1761340686160825000,0.5178251953125,0.5587485660046339,3.572248830196261,1.2141193310268223
1761340686170892000,0.52789208984375,-2.1187597481667995,2.463225219760835,1.0341913645520806
1761340686180959000,0.537958984375,-5.608674578547477,0.6233136848956347,1.9199314125195144
1761340686191026000,0.54802587890625,-10.721349600470065,-0.07219079146385192,1.7653678966648876
1761340686201092900,0.5580927734375,-18.200618144655227,0.7062973807916044,-0.47427097828909753
1761340686211160000,0.56816015625,-25.45540924041271,1.061060812907666,-2.710330971843004
1761340686221227000,0.57822705078125,-30.696777277743813,-0.10369082222953438,-5.522471628344059
1761340686231294000,0.5882939453125,-31.869676563501358,-1.227690614131093,-8.527526720273494
1761340686241361200,0.598361083984375,-28.323253663957118,-2.092122793392837,-10.383119516134261
1761340686251428000,0.608427978515625,-22.217655984199045,-3.2038784591406584,-10.757570083886383
1761340686261495000,0.6184951171875,-15.355298856651782,-4.218057255494594,-10.439303760170937
1761340686271562000,0.62856201171875,-8.88906403043866,-5.08842730037272,-9.445992979800701
1761340686281629200,0.638629150390625,-3.620392975640297,-5.8512476556360715,-7.726940990239381
1761340686291696000,0.648696044921875,0.021911387556791305,-6.246060627937316,-5.562626528599858
1761340686301763000,0.65876318359375,2.247680727112293,-5.558266579824686,-3.4437072059571743
1761340686311830000,0.668830078125,3.441864208438992,-4.41137325746119,-1.6728212765231727
1761340686321896200,0.678896240234375,3.61339274148941,-3.47132615750581,-0.7105471471905708
1761340686331963100,0.688963134765625,3.0138807879418135,-2.630349964894354,-0.6251382699742913
1761340686342030000,0.699030029296875,2.0597768133223058,-1.5429349596768616,-0.608857289519906
1761340686352097000,0.709096923828125,1.0876076051801442,-0.48620333507992325,-0.5559431531950831
1761340686362164000,0.7191640625,0.35416064391732216,-0.20755115580707786,-0.3138293641813099
1761340686372231000,0.72923095703125,0.7397668119341134,-0.01991882550008595,0.33536344285830855
1761340686382298000,0.739298095703125,1.4213269340932368,-0.37592787376306946,1.1737826444633304
1761340686392365000,0.749364990234375,2.818755106204748,-0.5016790635660291,1.7928129529513417
1761340686402432000,0.759431884765625,4.773786181417107,-0.45780989202745254,2.5689044393286107
1761340686412499000,0.7694990234375,6.4611787118673325,-1.1708538244698197,2.939543924359977
1761340686422566000,0.77956591796875,7.87856947555542,-1.6195878451161085,2.661324948872626
1761340686432632800,0.7896328125,8.949533988970517,-1.5125971045583486,0.3527900862164795
1761340686442700000,0.799699951171875,9.299662016370892,-0.275051524432376,2.0217486959621307
1761340686452767200,0.809767333984375,9.751521402496099,0.36865218367166813,4.688462644396722
1761340686462834200,0.819834228515625,10.759017360085249,-0.3278567204900086,5.244785736820101
1761340686472901000,0.829901123046875,11.650910085463524,-0.3109745592720806,4.940803959044814
1761340686482968000,0.839968017578125,12.45976913832426,0.08911964136771858,4.3796407331138845
1761340686493035000,0.850034912109375,12.956876948451995,-0.12520634233653544,3.8763895979255434
1761340686503102000,0.86010205078125,13.091831362342834,-0.7924549574833363,3.423427511255443
1761340686513169200,0.870169189453125,12.702476655447482,-1.4337293195486067,2.63317379014343
1761340686523236000,0.880236083984375,12.458646856296062,-1.6852335988506675,1.7271188300304114
1761340686533303000,0.890302978515625,11.400783816516398,-1.6222792761571705,1.8194043150179087
1761340686543370000,0.900369873046875,9.531412670671939,-1.8464532115936279,1.9343211723998188
1761340686553437000,0.91043701171875,4.535186684134603,-2.42474088306576,2.337267912926525
1761340686563503900,0.92050390625,4.613871513792872,-2.396114069648832,2.8360125304758546
1761340686573571000,0.930571044921875,4.8883968954592945,-0.5908820723682642,1.194551145595312
1761340686583638000,0.940637939453125,4.981458040994405,-0.05932142781754955,1.5794794143505393
1761340686593705000,0.950705078125,5.675090293741226,-0.5543623502770438,2.8580922603368757
1761340686603771000,0.96077099609375,5.915194350367784,-0.6528565171789378,3.4827708038449283
1761340686613838000,0.970838134765625,6.082335462114215,-0.018662139969877898,3.2757769896596667
1761340686623904500,0.980904541015625,6.236923966279625,0.12924882266037166,2.686748143942654
1761340686633971500,0.990971435546875,6.603708529448509,-0.23717845150344072,2.3455758686751125
1761340686644038400,1.001038330078125,6.793994954460859,-0.2971864916119724,2.275646884663403
1761340686654105300,1.011105224609375,6.706607762908935,-0.25950455734096467,2.1490192773520946
1761340686664172300,1.02117236328125,6.614459056043624,-0.21366518170796334,1.917942284528911
1761340686674239700,1.03123974609375,6.696961982685327,-0.12648498397022484,1.7117353829376398
1761340686684306700,1.041306640625,6.778106480455398,-0.03517199727669358,1.3927141492016613
1761340686694373600,1.05137353515625,6.841089883112907,-0.01030219830572605,0.8090208192937076
1761340686704440600,1.061440673828125,6.8755193914592265,0.17452011608183382,-0.1710878035455942
1761340686714507500,1.071507568359375,6.5316042472243305,0.6934853916220367,-1.4318794538982211
1761340686724574500,1.081574462890625,5.877019810274243,1.176132276329398,-2.707234759393334
1761340686734641700,1.0916416015625,5.021512403485179,2.26801507461071,-4.173115120962262
1761340686744708600,1.10170849609375,4.2059594059437515,3.282369227531552,-5.604084328147769
1761340686754775600,1.111775634765625,2.780440280857682,1.8765766933090984,-5.395066314658522
1761340686764842500,1.121842529296875,-0.7024082643985747,-2.164945745280385,-2.1004528148427606
1761340686774909400,1.131909423828125,-12.684967886763811,-4.667567740406096,2.4406293570712205
1761340686784976400,1.141976318359375,-35.95892156112194,0.7759675677366554,0.9378681484811008
1761340686795043600,1.152043701171875,-61.54541801860332,12.556442044615745,-10.147554856503008
1761340686805110500,1.162110595703125,-69.74118648090362,18.434250374919174,-16.84389841502905
1761340686815177500,1.172177490234375,-66.28912645714283,13.93888658260703,-15.903232014131545
1761340686825244400,1.182244384765625,-49.412525211429596,8.260046580943465,-14.106232861536741
1761340686835311400,1.192311279296875,-28.91314614076614,4.536445744284987,-13.202427580046653
1761340686845378600,1.202378662109375,-14.37238788974285,0.9091119365308433,-10.832927814948558
1761340686855445500,1.212445556640625,-5.69800296729505,-2.1963491838037967,-8.688790464419126
1761340686865511400,1.222511474609375,-0.6864554929852485,-3.3843379021435975,-7.4381836696028705
1761340686875578600,1.23257861328125,2.4999171200811863,-2.7694582835942505,-5.765961820277571
1761340686885645600,1.2426455078125,4.594350820764899,-2.224694549930841,-3.0865669617071747
1761340686895712500,1.25271240234375,5.6120157056689255,-1.942920366179943,-0.02935468930006027
1761340686905779700,1.26277978515625,6.164934834867715,-0.9225194804407656,2.0158175523474813
1761340686915846700,1.2728466796875,6.231428291472792,0.3581909223467111,3.0854163303673268
1761340686925913600,1.28291357421875,6.065924425539374,1.4341453530035913,3.879784793321788
1761340686935980500,1.29298046875,6.229824363407492,2.3558111392244694,4.638019574360549
1761340686946047500,1.303047607421875,6.7455205541491505,2.8801319504484533,5.3889305883824825
1761340686956114400,1.313114501953125,7.448959915161132,2.6634143223673106,5.990419979482889
1761340686966181600,1.323181640625,8.337033959034084,2.03595710792616,6.248652397996187
1761340686976248600,1.33324853515625,9.527060320681333,1.5010444678001105,5.994605740734935
1761340686986315500,1.3433154296875,10.59269399446249,1.1634198020115494,4.868433719360828
1761340686996382500,1.353382568359375,11.140036784833669,0.45383916176557537,3.998130602239072
1761340687006449400,1.363449462890625,11.437272010958194,-0.4443569746058434,4.118319993196428
1761340687016516400,1.373516357421875,12.239096927398442,-0.610358633993566,2.9249361378148198
1761340687026583600,1.38358349609375,13.091272559416293,-0.5633207692909985,1.2213256822090595
1761340687036650500,1.393650390625,13.92495508788824,-0.6185757696535438,-0.5901679327495396
1761340687046717700,1.4037177734375,14.444772742474079,-0.7827304860003292,-1.9282178870886564
1761340687056784600,1.41378466796875,15.085582921093701,-0.5186117859274149,-3.0289091379866004
1761340687066851600,1.4238515625,15.864612652879952,-0.10037424502745271,-3.4962171453952786
1761340687076918500,1.43391845703125,16.00956356012821,-0.4602728480748832,-3.350358475652337
1761340687086985500,1.4439853515625,15.49323900835514,-1.0361493667520583,-2.1508179973371324
1761340687097052700,1.454052734375,14.691091435831785,-1.2201091460261493,-0.6537041469842195
1761340687107118600,1.46411865234375,13.282315355753898,-1.1138666665524244,0.292448357174173
1761340687117185500,1.474185546875,11.605181768989562,-0.8548153328716754,0.6161662242937833
1761340687127252500,1.48425244140625,9.998225880300998,-0.8754970325030386,0.7344420367147773
1761340687137319700,1.494319580078125,8.574964763274789,-0.9045238780882209,0.8848035708349198
1761340687147386600,1.50438671875,7.285521749585866,-0.8060648920975625,1.095007871499285
1761340687157453600,1.51445361328125,6.160792912757397,-0.5501154699549079,1.3362313606098293
1761340687167520500,1.5245205078125,5.012455821326375,-0.3304426087973639,1.526715500151366
1761340687177587500,1.53458740234375,2.9478718999832867,-0.3653938029302284,1.7990084465906022
1761340687187654400,1.544654296875,3.9199803178489208,-0.8530169051475822,2.103263342218846
1761340687197721600,1.5547216796875,5.416567367848754,-0.5877019444948062,1.2549775572463868
1761340687207788500,1.56478857421875,5.481265757730603,-0.19837430826947092,0.7209728988107293
1761340687217855500,1.57485546875,6.493145044970512,-0.5239975706189871,0.9328780851088464
1761340687227922400,1.58492236328125,7.38736299842596,-0.6464981611281633,0.950542336615175
1761340687237989400,1.5949892578125,7.781746931660175,-0.4983209122445434,1.0518133843518793
1761340687248056300,1.605056396484375,8.125109118187426,-0.6335955710656941,1.1111212403018027
1761340687258123500,1.61512353515625,8.271833464848994,-1.2504220858991146,1.0946677528247237
1761340687268190700,1.625190673828125,7.9920012089461085,-1.8150711081191897,0.6744351656500249
1761340687278257700,1.635257568359375,6.764728527966141,-1.9009302133210002,-0.4335410911569372
1761340687288324600,1.64532470703125,4.737623565667867,-1.4649682151600718,-1.4581579506233333
1761340687298391600,1.6553916015625,2.8979455472975966,-1.514863442055136,-2.1709207280367613
1761340687308458500,1.66545849609375,1.5068693745613098,-3.620429508258402,-1.6729321895517408
1761340687318525400,1.675525390625,0.4123194028973579,-7.665549240687489,1.0273934480402618
1761340687328592600,1.685592529296875,-4.1276948475241655,-11.373471446698904,4.949005385679007
1761340687338658600,1.695658447265625,-18.364802160161734,-10.499462753057479,4.535669791476428
1761340687348725500,1.7057255859375,-43.78886349163055,-0.9921154331058263,-4.341868051819503
1761340687358792400,1.71579248046875,-67.47718356454372,11.89551145350933,-17.430473145592213
1761340687368859600,1.725859619140625,-69.47501391704083,16.01702322848439,-21.950033806049824
1761340687378926600,1.735926513671875,-67.1952616428852,10.087882185828684,-17.0556251029551
1761340687388993500,1.74599365234375,-50.663027961349485,6.5168859860420225,-13.370774560451506
1761340687399060500,1.756060546875,-31.514614586830138,4.714342058801651,-10.32430024741888
1761340687409127400,1.76612744140625,-20.008420430815217,3.3608930214092134,-7.607805492249131
1761340687419194400,1.7761943359375,-12.107197224903105,2.94362271810621,-6.51812224983871
1761340687429261600,1.786261474609375,-6.152909466031193,2.391206716123968,-6.380767204546928
1761340687439328500,1.79632861328125,-1.3010662314653396,1.5985120316006243,-5.800487774735688
1761340687449395500,1.8063955078125,2.786851901465654,1.1007169698610901,-4.488822700105607
1761340687459462700,1.816462646484375,6.221710615056753,1.14575730407089,-2.894847289021313
1761340687469529600,1.826529541015625,9.20139804149568,1.7471590168878435,-1.3560035441808402
1761340687479596500,1.836596435546875,11.955262450116873,2.760745984828472,0.02885620172601193
1761340687489663500,1.84666357421875,14.517807583546638,3.6855291724175214,1.3810335021495819
1761340687499730700,1.856730712890625,16.04455420948863,3.728268243947625,2.508876671606302
1761340687509797600,1.866797607421875,16.7280216265738,3.8161636772826313,3.070894760800898
1761340687519864600,1.876864501953125,16.70299473734498,4.106493654063343,3.06533303502053
1761340687529931500,1.886931640625,16.05145390587449,4.211657325324416,2.803711266329884
1761340687539998500,1.89699853515625,15.011812751483916,4.164025513316691,2.6838524225011464
1761340687550065400,1.9070654296875,13.90415896809697,3.965836060094833,2.5468250017285348
1761340687560132600,1.917132568359375,12.934473393464089,3.660346215844154,2.352123829013854
1761340687570198500,1.927198486328125,12.180309222865104,3.3635280460879207,2.167069459436089
1761340687580265500,1.937265380859375,11.612169143658877,3.0608582276940344,1.9263398182570932
1761340687590332400,1.94733251953125,11.067309402275084,2.7567262277930973,1.6638421435147523
1761340687600399600,1.957399658203125,10.485600231921673,2.471856562244892,1.3877299310483038
1761340687610466600,1.967466552734375,10.087323382902145,2.128524478594959,1.21811241925098
1761340687620533500,1.977533447265625,9.870982479178904,1.6685262096777558,1.2025386372178792
1761340687630601200,1.987601318359375,9.650769702458382,1.2121325411237776,1.061875271095708
1761340687640668200,1.997668212890625,9.342041022416948,0.8845429471373557,0.784707265966013
1761340687650735000,2.007735107421875,9.140216135302186,0.7604078872941434,0.6387651557233184
1761340687660802000,2.017802001953125,8.945351150327921,0.623043489652127,0.6016309915281832
1761340687670869000,2.027868896484375,8.608632639598845,0.47748438737764953,0.6432508497700095
1761340687680936200,2.037936279296875,8.07864430413246,0.31603096587881446,0.6203719323553144
1761340687691003100,2.048003173828125,7.484434548646211,0.27986966530382634,0.5693935133334249
1761340687701070000,2.058070068359375,6.949768869018555,0.20784531644806264,0.5308480941008776
1761340687711137000,2.068136962890625,6.446341208219528,0.13207023675665258,0.5071370367109775
1761340687721204000,2.078203857421875,5.980891688159108,0.22726956336423754,0.5636829536668956
1761340687731271200,2.088271240234375,5.658171307644247,0.29352365825548765,0.6323471784397959
1761340687741338400,2.09833837890625,5.511691291132569,0.2645664438404143,0.6742020144812763
1761340687751405300,2.1084052734375,5.634912012609839,0.3840295663498342,0.717011447833851
1761340687761472300,2.11847216796875,5.943483456262946,0.6319103944577277,0.747038410372287
1761340687771539200,2.128539306640625,6.35224662798345,0.8769691508822143,0.6787710028972477
1761340687781605000,2.138605224609375,6.816825210428237,0.9752015615753828,0.690870971339941
1761340687791672300,2.14867236328125,7.207336686143279,0.8398875205919146,0.589367831880413
1761340687801739300,2.1587392578125,7.360446349927782,0.5395996288985013,0.15638532445430756
1761340687811806200,2.16880615234375,7.529730903443694,0.5026376794651151,-0.25633754467740655
1761340687821873200,2.178873046875,7.7821344696730375,0.6616919308677315,-0.46570575984381135
1761340687831940000,2.188940185546875,7.499832024264335,0.4612397934108972,-0.8201856257781386
1761340687842007000,2.199007080078125,6.428607983130216,0.6067839903771877,-1.4519547120690346
1761340687852074200,2.20907421875,4.23386155834794,1.253554538705945,-2.8537527698278424
1761340687862141200,2.21914111328125,1.3240437869489192,1.5094728350579738,-4.41443147598803
1761340687872208100,2.2292080078125,-0.9633341597795486,0.8297390515431762,-4.370765352740883
1761340687882275000,2.239275146484375,-1.4005103560358285,-2.406572189168632,-1.7211986462011932
1761340687892342000,2.249342041015625,-1.4213386245310307,-8.589332895845175,3.729270114466548
1761340687902409000,2.259408935546875,-6.850711697939038,-13.555018198168277,8.68156460481882
1761340687912476200,2.26947607421875,-23.13905654361248,-9.180482679238915,6.805975899633765
1761340687922543000,2.279543212890625,-48.8946715503931,2.8180615709826347,-2.1337673476845023
1761340687932610000,2.289610107421875,-67.73043118038177,13.549875574582815,-11.915136191433668
1761340687942677200,2.29967724609375,-69.1984368635416,13.876809188878536,-14.690401700001955
1761340687952744200,2.309744140625,-59.90371113452911,6.608769319969415,-12.809706027066706
1761340687962811100,2.31981103515625,-39.237444050097466,2.159038713193685,-12.559101619213818
1761340687972878300,2.32987841796875,-21.59564753668308,-1.2309648134961724,-12.060021632230281
1761340687982945300,2.3399453125,-10.215565147411823,-4.643499759337306,-10.251728347682953
1761340687993011200,2.35001123046875,-3.430433882886171,-5.926974804532527,-8.467673432335257
1761340688003078100,2.360078125,0.6696271077811717,-4.969875155228376,-7.065512971004844
1761340688013145000,2.37014501953125,3.4158529843479393,-3.1223192430898545,-5.649775819742679
1761340688023212300,2.38021240234375,5.660878813037276,-1.4028522429868577,-3.8088676750555632
1761340688033279200,2.390279296875,7.544424614706635,-0.21440175235420464,-1.946031922329217
1761340688043346200,2.40034619140625,9.384104386642575,0.7850327715933323,-0.517039458576776
1761340688053413000,2.4104130859375,11.479900023329257,1.7401535220399498,0.5964204903382807
1761340688063480000,2.42047998046875,13.49464059409499,2.458288640141487,1.76273404102996
1761340688073547000,2.430547119140625,15.169243201076984,3.1725328882843256,3.015392069287598
1761340688083614200,2.4406142578125,16.24311746445894,3.7452500661477446,3.918602599754929
1761340688093681200,2.45068115234375,16.748137362885473,4.144190055251121,4.423283183224499
1761340688103748000,2.460748046875,16.786687750554083,4.283828243044018,4.552509867118299
1761340688113815000,2.47081494140625,16.49780534223318,4.26830801782906,4.416779792679846
1761340688123882000,2.480882080078125,15.977116750031708,3.8543712428629395,4.050648432722688
1761340688133949000,2.490948974609375,15.323484499239921,3.5414559247866273,3.4969334769710896
1761340688144016400,2.501016357421875,14.54145032494068,3.3485184007436035,2.850057422441244
1761340688154083300,2.511083251953125,13.62267309976816,2.9965999827951193,2.1992311689808965
1761340688164150300,2.521150390625,12.69836162134409,2.4447563738733527,1.696482138095796
1761340688174217200,2.53121728515625,11.791900272387265,1.9732915390461683,1.3650526736855506
1761340688184284200,2.5412841796875,10.980753400850295,1.8126275143593549,1.2153199389882385
1761340688194350300,2.551350341796875,10.238279668045044,1.7007153917513786,1.2166313138477503
1761340688204417300,2.561417236328125,9.422007124057412,1.5891896381124853,1.2375566129766404
1761340688214484200,2.571484130859375,8.558976336026191,1.5783698456734419,1.2641506053917109
1761340688224551200,2.58155126953125,7.713628504201769,1.6299454268708824,1.255107905627787
1761340688234618000,2.5916181640625,6.9785548185199495,1.5612379474781453,1.1317271712832153
1761340688244685000,2.60168505859375,6.273400470283627,1.4075973916873334,0.8433623570956289
1761340688254752300,2.611752197265625,5.6279550330787895,1.3450842368900775,0.4874423388229683
1761340688264819200,2.621819091796875,5.287475123989582,1.3307513217635452,0.2864072138464078
1761340688274886100,2.63188623046875,5.155749024495482,1.1758302246429024,0.2656769623655826
1761340688284953000,2.641953125,5.164672335663438,1.0399662946917116,0.18527882598340512
1761340688295020000,2.65202001953125,5.381394932180643,1.1767083226516841,0.1416814571235329
1761340688305087000,2.6620869140625,5.820362103506922,1.3534073902077972,0.17595679782144724
1761340688315154200,2.672154296875,6.310683614495396,1.2330436655968426,0.3058733636755496
1761340688325221000,2.68222119140625,6.813640150651335,1.0678227082580327,0.42549679131321605
1761340688335288000,2.6922880859375,7.3460221032559865,1.072699374383688,0.5300893846880644
1761340688345355000,2.70235498046875,7.775863134318589,1.1632742560610174,0.6863911225121468
1761340688355422200,2.712422119140625,8.033212340256572,1.2128159933432936,0.8165352865770459
1761340688365489200,2.7224892578125,7.978587600621581,1.24506874217242,0.7454439807876944
1761340688375556400,2.732556396484375,7.322299866884946,1.366150405794382,0.4101495845776051
1761340688385623300,2.742623291015625,6.437806019586325,1.7433026337206363,0.1397102666484192
1761340688395689200,2.752689208984375,5.361581978207826,2.1237983268558978,0.10939961006408556
1761340688405756200,2.762756103515625,4.093370553117991,2.412652385865152,0.1507586254126392
1761340688415823000,2.772822998046875,2.426355624786019,2.562831841416657,0.08569714697259478
1761340688425890300,2.782890380859375,0.7050444581210613,1.981096952100098,-0.22792793594142421
1761340688435957200,2.792957275390625,-0.2155781026571989,-1.680837555848807,0.7030724273957312
1761340688446024200,2.803024169921875,-3.921702903857827,-9.727473002910614,4.8136353767246005
1761340688456091100,2.813091064453125,-17.93193681284189,-11.987801614671945,6.724965257376432
1761340688466158000,2.823157958984375,-41.96906915438175,-1.2815531372219324,-1.2150953364521264
1761340688476225000,2.83322509765625,-64.12507210774422,10.255842212742566,-13.012995726037024
1761340688486292200,2.843292236328125,-69.62894424955844,14.027724557489156,-17.721256419098378
1761340688496359200,2.853359130859375,-63.66243472249508,7.3713161189883945,-13.594305083417892
1761340688506426000,2.863426025390625,-45.79910441288948,1.5701104052416979,-9.989163452923297
1761340688516493000,2.8734931640625,-28.988212779927252,-1.8613344082526861,-7.7967393336087465
1761340688526560000,2.88356005859375,-17.85681639766693,-5.313371197268366,-5.269011831060052
1761340688536627000,2.893626953125,-10.803070436823367,-7.286413729989528,-4.018850441923737
1761340688546694100,2.903694091796875,-6.101231885764003,-7.2075891995996235,-4.0751156422421335
1761340688556761300,2.91376123046875,-2.3796406353622674,-6.159597565492987,-3.9778079451784487
1761340688566828300,2.923828369140625,0.8121078255236148,-5.076629310551286,-2.917904047220945
1761340688576895200,2.933895263671875,3.648753393206,-4.102917549142242,-1.3137930265694855
1761340688586962200,2.943962158203125,6.356898253181576,-3.411247536379099,-0.004301679249294102
1761340688597028400,2.9540283203125,8.768508728778361,-3.0286078169524666,0.42929541641119867
1761340688607095300,2.96409521484375,10.66382563226223,-2.8420684695139524,-0.40783392804637547
1761340688617162200,2.974162353515625,11.810440137684344,-2.1669790046736597,-1.6322259390234946
1761340688627228700,2.984228759765625,12.504356468069552,-0.9735355280593037,-2.411620120207965
1761340688637295600,2.994295654296875,13.430617911517619,0.3709028121426701,-2.3486704736895856
1761340688647362800,3.00436279296875,14.596979904460905,1.2992317095145582,-1.7797504961520432
1761340688657429800,3.0144296875,15.54747094928026,1.8747136759161949,-1.1943719165708868
1761340688667496700,3.02449658203125,16.089341445720194,2.1227380041480064,-0.5118255598533898
1761340688677563600,3.034563720703125,16.105418135774134,2.2663205456525084,0.2254553535491228
1761340688687630800,3.044630859375,15.505841300296783,2.410915771330893,0.806262606626749
1761340688697697800,3.05469775390625,14.495240362429618,2.7443688505232333,1.267333180950582
1761340688707764700,3.0647646484375,13.407903390884398,3.0445658490628,1.6445029445335269
1761340688717832000,3.07483203125,12.242492999577522,3.275520384550094,1.8964801020443438
1761340688727899000,3.08489892578125,11.149425375425816,3.3682480603471396,2.126891616696119
1761340688737965800,3.0949658203125,10.123919129371643,3.2373806235089897,2.4443086301058528
1761340688748032800,3.10503271484375,9.17952172525227,2.9661791255682703,2.4137273216202852
1761340688758099700,3.115099609375,8.421530105319619,2.8314471222564577,2.0537825413435695
1761340688768166700,3.125166748046875,7.844914458712935,2.637421802976727,1.3990464209631084
1761340688778233900,3.13523388671875,7.684228806716203,2.4458624354191123,0.6743382080815732
1761340688788299800,3.1452998046875,8.025762608772515,2.426913550929725,0.20340126958601176
1761340688798366700,3.15536669921875,8.701691447046398,2.2484949661046265,-0.13356412857621908
1761340688808433700,3.16543359375,9.427138057205081,1.91358481997177,-0.5519950000911951
1761340688818500900,3.1755009765625,10.127906737703084,1.7575329652555285,-0.9383290439911186
1761340688828567800,3.18556787109375,10.90599422020316,1.9231134035564958,-1.1839102168545126
1761340688838634800,3.195634765625,11.540931122875213,2.019640179375559,-1.178861847423762
1761340688848701700,3.20570166015625,11.88208381665945,1.8087658704951404,-1.0040241167601198
1761340688858768600,3.2157685546875,11.81753623342514,1.6230509911820292,-0.8244448906578123
1761340688868835600,3.225835693359375,11.494279261815548,1.5055749508365988,-0.7670132769085466
1761340688878902800,3.23590283203125,11.033676012742518,1.4106810369163751,-0.9590598434612154
1761340688888969700,3.2459697265625,10.483023659431934,1.3113374501109123,-1.2343310750588774
1761340688899037000,3.256036865234375,9.94928269343376,1.2031935939952731,-1.4200874554261564
1761340688909103900,3.266103759765625,9.33739407339394,1.0208023061469196,-1.5418633849225938
1761340688919170800,3.2761708984375,8.726013402876257,0.9106745827376842,-1.6718341651819646
1761340688929237800,3.28623779296875,7.910594845369458,1.0406272428184746,-1.7862845740959048
1761340688939304700,3.2963046875,6.54238458443582,1.0643526940599084,-2.021798964844644
1761340688949372000,3.306371826171875,4.286690646737814,1.1513630151234566,-2.1555875498265027
1761340688959438800,3.31643896484375,1.1011480547547339,1.5298945685788987,-1.7425471391782164
1761340688969504800,3.3265048828125,-4.01914387191236,2.4576439124971627,-2.0549637139521537
1761340688979571700,3.33657177734375,-10.305327835923432,4.288280838538706,-3.600179624173045
1761340688989639000,3.346638916015625,-14.802100325989722,5.352904750755429,-4.7119396738350385
1761340688999705900,3.356705810546875,-16.603668101674316,2.704413564492762,-3.408777346873283
1761340689009772800,3.366772705078125,-19.418433261460066,-1.7251298481702804,0.21892522112801668
1761340689019839700,3.37683984375,-26.894043867659565,-1.8923048621863126,1.151000976878032
1761340689029906700,3.38690673828125,-38.06939395793676,2.853936894223094,-1.6279912240631877
1761340689039973600,3.3969736328125,-49.62821378872394,6.943508055058121,-5.127103944769502
1761340689050040800,3.407040771484375,-54.47992316777706,7.7938997262686485,-7.968110630270838
1761340689060107800,3.417107666015625,-49.24921447162628,5.0203708322346206,-9.052132778179645
1761340689070174700,3.4271748046875,-37.96960671901703,0.9557708849184214,-7.432882640585303
1761340689080241700,3.43724169921875,-26.984205200099943,-2.2053093198508025,-5.182020945349335
1761340689090308600,3.44730859375,-18.883208778905868,-4.10469098855555,-3.3724031341999767
1761340689100375800,3.457375732421875,-13.638221382033825,-4.856187401250004,-2.37109375629127
1761340689110442800,3.46744287109375,-10.048868856823443,-4.81102548648715,-2.0891670123271644
1761340689120510000,3.477510009765625,-7.055661439076066,-4.317978057666123,-1.9252679512418804
1761340689130577000,3.487576904296875,-4.331352210763097,-3.7465234470844266,-1.5205521552160381
1761340689140643800,3.497643798828125,-1.686532114228606,-3.080353786280751,-1.0057781208205967
1761340689150710800,3.507710693359375,0.9162316323429346,-2.221607397570461,-0.5127927243851125
1761340689160777000,3.51777685546875,3.4460727660447357,-1.3518379489339887,-0.14360480813523754
1761340689170844000,3.527843994140625,5.9105140835970635,-0.3362253203846514,0.27041078595444556
1761340689180910800,3.537910888671875,8.247290559744835,0.6073270112127065,0.5918057265518233
1761340689190977800,3.547977783203125,10.444214913088082,1.303526337968558,0.7506015827465802
1761340689201044700,3.558044677734375,12.429032639276981,1.7095508785054088,1.0536251830141992
1761340689211111700,3.568111572265625,14.067231222969292,1.8857909502476453,1.31554746902138
1761340689221179000,3.578178955078125,15.424313356167078,1.9551012178391216,1.3042910387307405
1761340689231245800,3.588245849609375,16.36061571663618,1.6722084053218365,1.0919066175483167
1761340689241312800,3.598312744140625,16.641218956911562,1.0975234345167875,0.730581123502925
1761340689251379700,3.608379638671875,16.762084055173396,0.8241662198469042,0.7169942775033414
1761340689261446700,3.61844677734375,17.123055548149345,1.129145484226942,1.023335185625404
1761340689271513600,3.628513671875,17.412058367979526,1.6082228398844598,1.5526982288002966
1761340689281580800,3.638580810546875,17.668677506077287,1.9304034144341944,1.7517657800309359
1761340689291647700,3.648647705078125,17.434314623451233,1.9385893512383103,1.8675242028035222
1761340689301714700,3.658714599609375,16.314413937431574,1.4581041746094823,1.9294845460236072
1761340689311782000,3.668781982421875,14.672899945580959,0.9487512154147029,1.9938344147287308
1761340689321848800,3.678848876953125,13.074106320559977,0.7025676927439868,1.7423207830764351
1761340689331915800,3.688915771484375,11.665642375171183,0.6482917665466665,1.3610145042106507
1761340689341982000,3.69898193359375,10.498048210084438,0.5294548131115734,1.145942378314212
1761340689352049000,3.709048828125,9.589683657854795,0.5037238672666251,1.0597082292549311
1761340689362115800,3.71911572265625,8.854476701182126,0.5456016457922757,1.1894204316433519
1761340689372182800,3.729182861328125,8.291863860964774,0.5277542928040028,1.3533752415038645
1761340689382249700,3.739249755859375,7.812239100557565,0.4596273897781968,1.4483873749762772
1761340689392317000,3.74931689453125,7.5016726836949585,0.5394631430372595,1.4580167885869741
1761340689402384000,3.7593837890625,7.349083828914165,0.6594068886704743,1.3854127401471137
1761340689412450800,3.769450927734375,7.302835872480273,0.7406238671548664,1.3052806342899799
1761340689422517800,3.779517822265625,7.360682496771216,0.772942520827055,1.2619928428359328
1761340689432584700,3.789584716796875,7.435674317130446,0.7111701013945043,1.2681354372441769
1761340689442651600,3.799651611328125,7.505798823714255,0.589731733289361,1.3350339675188063
1761340689452718800,3.80971875,7.469922623690962,0.4859092475041747,1.3146309386983512
1761340689462785800,3.819785888671875,7.323406951344013,0.4831273617006838,1.10373836350888
1761340689472852700,3.829852783203125,6.976957904717326,0.5553200528606772,0.7517587899576872
1761340689482919700,3.839919677734375,6.571881897076964,0.7130968316733837,0.22067937131896614
1761340689492986600,3.849986572265625,5.993710253199935,0.8348360824212432,-0.15360811482593417
1761340689503053600,3.860053466796875,4.963466457229853,0.7144067452281713,-0.576838276381418
1761340689513119700,3.87011962890625,3.1973084331005808,0.7423743640840054,-0.9001648791611194
1761340689523186700,3.880186767578125,0.7250614102333783,1.0647592290341854,-1.0510509486120194
1761340689533253600,3.890253662109375,-2.427724575051665,1.3666302982658147,-0.7207134441569447
1761340689543320600,3.900320556640625,-6.303553616484999,1.274865622282028,-0.1349876403070055
1761340689553387800,3.9103876953125,-9.829004455149173,0.07783756517916918,1.1889174505572766
1761340689563455000,3.920455078125,-13.827162237656117,-3.543003446489572,3.944772813799977
1761340689573522000,3.93052197265625,-21.963274395895002,-7.023563004025816,6.269693432459235
1761340689583588900,3.9405888671875,-35.06104917681217,-3.5083655560895797,2.2365284878484903
1761340689593655800,3.95065576171875,-50.320516838693614,3.7053780744865534,-7.056844511380791
1761340689603722800,3.96072265625,-60.1213870862484,7.913867583429813,-15.189163707077503
1761340689613789700,3.970789794921875,-57.78466964681148,6.96941523425281,-17.46350564662218
1761340689623857000,3.98085693359375,-45.37816448116302,2.778714772239327,-14.928901828563212
1761340689633924000,3.990924072265625,-30.751799492263793,-0.11886764083430171,-11.320713669979572
1761340689643991000,4.000990966796875,-18.755406574857233,-1.5418826741449534,-8.242260748884082
1761340689654058000,4.01105810546875,-10.274680184203385,-2.636934311720729,-5.822849244147539
1761340689664125000,4.021125,-4.665279044947028,-3.4281443106442686,-3.7571988626167174
1761340689674192000,4.03119189453125,-1.0833844345271586,-3.5543960703805086,-1.766617458334565
1761340689684258800,4.0412587890625,1.1364718815922736,-2.855876337853074,-0.13378266669772565
1761340689694325000,4.051324951171875,2.759641822978854,-2.1634508305475113,0.4153220918446779
1761340689704392000,4.061391845703125,4.467525937315822,-1.360825703640282,-0.2592725752159953
1761340689714459000,4.071458984375,6.535608806690573,-0.3360875193491578,-1.267567866489291
1761340689724525800,4.08152587890625,8.556040867096184,0.3988181162893772,-1.8916864380270242
1761340689734593000,4.091593017578125,10.270491500341892,0.9197434398561716,-1.8399249788686631
1761340689744660200,4.10166015625,11.767829660969971,1.503847688652575,-1.4719861310981213
1761340689754727200,4.11172705078125,12.770970930480956,2.0093384194612502,-0.7925272190019488
1761340689764794000,4.121794189453125,13.39445237315893,2.402050912351906,0.03824475578553974
1761340689774861000,4.131861083984375,13.716140488016604,2.5918159438386557,0.8253365788005292
1761340689784928000,4.141927978515625,13.768455197143554,2.6246502919480204,1.3980940886743365
1761340689794995000,4.151994873046875,13.559596173608302,2.6003391497731205,1.8917337843000888
1761340689805062100,4.162062255859375,13.02658118379712,2.5736291297629474,2.307082471890747
1761340689815129000,4.172129150390625,12.370283513188362,2.4282950684159994,2.4987074520304797
1761340689825196000,4.182196044921875,11.662787570261955,2.360063974363357,2.334339458259195
1761340689835263000,4.192262939453125,11.099351723223924,2.3270108689367768,2.015302880823612
1761340689845330000,4.202329833984375,10.709589020049572,2.2042481203600763,1.598980818156153
1761340689855396900,4.21239697265625,10.441763428282737,2.0022255187161266,1.2341419822275639
1761340689865463000,4.222463134765625,10.241246701157092,1.6296841455861926,0.889880581838265
1761340689875530000,4.232530029296875,10.226397507071495,1.337348235810548,0.672145008886233
1761340689885597000,4.242596923828125,10.13005894730091,1.0501562647946179,0.36760914089214053
1761340689895663900,4.252663818359375,9.818688812839984,0.9273034998469054,-0.05049187761396169
1761340689905731000,4.26273095703125,9.569117255166173,1.0121522589623928,-0.3336401261970401
1761340689915798000,4.272798095703125,9.50179553104341,1.1078104352533817,-0.3115172513140365
1761340689925865000,4.282864990234375,9.437516827878355,1.2415287314780055,0.12204133896697311
1761340689935932000,4.292931884765625,9.250652778530121,1.2361609208345412,0.6928915904473513
1761340689945998800,4.302998779296875,9.003562516278029,1.1736255542054772,1.0274477355107665
1761340689956066000,4.313066162109375,8.76495249760151,1.1113187356352805,1.109027409827709
1761340689966133000,4.323133056640625,8.4650015827775,0.913534063822031,1.043433897737041
1761340689976200200,4.3332001953125,8.057357770475745,0.7975069071106612,0.9251027749322355
1761340689986267100,4.34326708984375,7.703148611241579,0.834723415827006,0.6845042127870022
1761340689996334000,4.353333984375,7.484258023035526,0.9609515024267137,0.4136113789366558
1761340690006401000,4.363401123046875,7.334758366441727,0.9839248201265931,0.2699051379872486
1761340690016468000,4.373468017578125,7.135531094604731,0.9329013198539614,0.1509863880202174
1761340690026534100,4.3835341796875,6.992939902225136,1.0056757564246654,-0.10462620338350534
1761340690036601000,4.39360107421875,6.912542423430085,0.9823986334726214,-0.33379012912698086
1761340690046668000,4.40366796875,6.858388808438182,1.0076488100633025,-0.4982015236485749
1761340690056735000,4.41373486328125,6.65799775351882,0.9798366740301251,-0.8622530085917561
1761340690066802000,4.423802001953125,6.368835943734646,1.0310042589485644,-1.4766171518996356
1761340690076870000,4.433869873046875,5.910329959201812,1.4673451734244822,-2.5719427841112017
1761340690086936800,4.443936767578125,5.319881602075696,1.310339963506162,-2.2887866444826126
1761340690097004000,4.454004150390625,4.108054327508807,0.031898820824921126,0.1673342962309718
1761340690107071000,4.464071044921875,-0.47207975185513495,-3.7364489200547335,4.592001042768359
1761340690117138000,4.474137939453125,-14.87713189383745,-6.239537363648414,7.878244481384754
1761340690127205000,4.484205078125,-40.640324642395974,-1.1703076618291437,3.092928021171689
1761340690137272000,4.49427197265625,-64.92508617537021,10.261000033897162,-9.317599239599705
1761340690147339000,4.504339111328125,-69.64214509191513,15.345405239146947,-17.006750889670847
1761340690157406200,4.51440625,-66.46358519842624,8.166538860684632,-13.298786013561486
1761340690167472000,4.52447216796875,-49.64956988048553,2.3511713505946097,-10.389475607162714
1761340690177539000,4.5345390625,-30.74317194917202,-0.9830280174173414,-9.501168339055775
1761340690187606000,4.54460595703125,-19.00774467463493,-4.836146776001155,-7.621209748223423
1761340690197673000,4.5546728515625,-12.439508440583944,-6.605724545446038,-6.718846482235193
1761340690207740200,4.564740234375,-8.641949802789092,-6.037236675715446,-6.714615712797642
1761340690217807000,4.57480712890625,-5.843742394572496,-4.876356913575529,-6.251162334990501
1761340690227874000,4.5848740234375,-2.957458058974147,-3.736435768312216,-5.037658651643991
1761340690237941000,4.59494091796875,0.1788701279848814,-2.5537775973454115,-3.6010216279551384
1761340690248008000,4.605008056640625,3.4625767416000364,-1.6367100987002252,-2.4903110873460768
1761340690258075000,4.615074951171875,6.821923994871973,-0.6212459387108683,-1.4558574185959994
1761340690268142000,4.62514208984375,10.20865142250061,0.5209881596699357,-0.07607413570322095
1761340690278209000,4.635208984375,13.227103756141663,1.3807222442433238,1.5297173123158514
1761340690288276000,4.64527587890625,15.740972244685887,2.0651903628036377,2.9075337521150706
1761340690298343000,4.655343017578125,17.34884817082882,2.761514338852465,3.6238624053165314
1761340690308409900,4.665409912109375,17.863723108315465,2.952500144305825,3.787021753950417
1761340690318476800,4.675476806640625,17.54565435299873,2.640587281270325,3.154407449007034
1761340690328543000,4.68554296875,16.66457411353588,2.763114759786427,2.08183140874207
1761340690338610000,4.69560986328125,15.321798738110065,2.868619791831076,1.1781922045338897
1761340690348676900,4.7056767578125,14.031971693539619,2.8241134183675047,0.8227571567665785
1761340690358743800,4.715743896484375,12.925637760579585,2.8004940578490496,0.8812157754760235
1761340690368811000,4.72581103515625,11.940519639015196,2.7425685231029986,1.0799203386131673
1761340690378878200,4.735878173828125,11.166570571494102,2.7063661598652597,1.1867074463576077
1761340690388945200,4.745945068359375,10.579497828280925,2.6429958037167784,1.1530607589520514
1761340690399012000,4.75601220703125,10.044244119632243,2.543267601507902,1.2034690499357878
1761340690409079000,4.7660791015625,9.52510860209167,2.2696698560804127,1.4127631038874386
1761340690419146000,4.77614599609375,9.126482793504,2.0340230711236593,1.5413387765266
1761340690429213000,4.786212890625,8.86569659885466,1.9309392748765646,1.4589786193564533
1761340690439280000,4.796280029296875,8.749847867450118,1.880604049129039,1.3746573912464082
1761340690449347000,4.80634716796875,8.7923841098845,1.7346068476982415,1.3952046508431435
1761340690459414000,4.8164140625,8.891970273274183,1.6063436020091175,1.4834557657480238
1761340690469481000,4.82648095703125,8.97051131054759,1.5654107031181455,1.6313004947416483
1761340690479548000,4.8365478515625,8.960101560214161,1.55280402726233,1.7390914457663893
1761340690489614800,4.84661474609375,8.739602367767692,1.4614365339025854,1.71450937769562
1761340690499681000,4.856680908203125,8.448256199681758,1.360046974352747,1.5265489114128052
1761340690509748000,4.866748046875,8.237939963075519,1.4279047050483524,1.132113832513243
1761340690519815000,4.87681494140625,8.190840942770242,1.4894875932581721,0.8180947909787297
1761340690529881900,4.8868818359375,8.321874383825064,1.3217188511326907,0.684295100080967
1761340690539949000,4.896948974609375,8.476014559701085,1.14937973235175,0.7332931589405983
1761340690550016000,4.90701611328125,8.627363059031962,1.0903830612428487,0.8456919690869749
1761340690560083000,4.9170830078125,8.77651258701384,1.0297843617647886,0.9202567231405526
1761340690570150100,4.927150146484375,8.969449818795919,0.9962480028659104,0.994238416609168
1761340690580217000,4.937217041015625,9.085631727677583,0.9244630157239735,0.9659914693553
1761340690590284000,4.947283935546875,9.176069538971781,0.7702217175610363,0.8280662960253655
1761340690600351000,4.95735107421875,9.311718364867568,0.708629330870509,0.6659343907430768
1761340690610418200,4.967418212890625,9.122550130230188,0.8055307852208614,0.505969965692982
1761340690620485000,4.977485107421875,8.474916243070364,0.8426631227850914,0.16578516709282992
1761340690630551600,4.987551513671875,7.7742586217314,0.8092042130365967,-0.0386387235391885
1761340690640618500,4.997618408203125,6.96768095780611,0.48535541301369667,-0.20069957287926227
1761340690650685400,5.007685546875,6.062115680906176,0.36895197033584115,-0.1999235470054671
1761340690660751600,5.017751708984375,4.560429261940717,0.004779635491967201,0.5389616232559085
1761340690670818600,5.027818603515625,1.6371277395904063,-1.9251814420022069,2.416618951408565
1761340690680885500,5.037885498046875,-5.810307157960533,-6.716905869561433,5.210678300034999
1761340690690952400,5.047952392578125,-24.074275200498104,-7.24083037494421,5.863119879737496
1761340690701019600,5.05801953125,-52.931099150061605,3.189195853793621,-3.1044840189307927
1761340690711086600,5.068086669921875,-69.6959772198677,16.87317244030833,-16.82846937522888
1761340690721153500,5.078153564453125,-69.22458603479862,18.498779253453016,-22.069166381430623
1761340690731220500,5.088220458984375,-66.06873364768028,10.170558130949734,-17.238555904507635
1761340690741287400,5.098287353515625,-47.321292937135695,6.417101085209846,-13.742301349711417
1761340690751354400,5.108354248046875,-29.82166383773088,3.8408407301604743,-11.146011767590045
1761340690761421600,5.118421630859375,-19.03684217430353,1.095878809114918,-8.721715413421393
1761340690771488800,5.12848876953125,-11.043514685189724,-0.7265506258778274,-7.720282701393962
1761340690781555700,5.1385556640625,-5.223000605991483,-1.5557441723674534,-7.024788746428489
1761340690791622700,5.14862255859375,-0.770976773712039,-1.312032885029167,-6.130917998975515
1761340690801689600,5.158689697265625,3.045489978170395,-0.7100871284633874,-4.6602024723351
1761340690811755800,5.168755859375,6.432187595182657,-0.4736486086070537,-2.6410750647872683
1761340690821822700,5.17882275390625,9.4612501701653,-0.27214024009555576,-0.5504262894697487
1761340690831889700,5.1888896484375,12.209133166289329,0.3058811816558242,1.1489954822745174
1761340690841956600,5.19895654296875,14.551749600636958,0.8369668108396232,2.3937507015183566
1761340690852023600,5.2090234375,16.134992605304717,1.20136681695953,3.0397035037234423
1761340690862090500,5.219090576171875,17.01924329149723,1.5731700850732624,3.1251281630307433
1761340690872157700,5.22915771484375,17.27252714769244,1.9278926006570458,2.8328017517358064
1761340690882224600,5.239224609375,16.861085696673392,1.8428937655463813,2.463025605535507
1761340690892291600,5.24929150390625,16.060674154162406,0.807252786707878,2.2629889170117674
1761340690902358500,5.259358642578125,14.622662627249955,-0.6607422289274633,2.2754716742269694
1761340690912425500,5.269425537109375,13.142794656860827,-1.6273890203863381,1.3623891535647212
1761340690922492400,5.279492431640625,12.437190226769447,-1.286013769892603,0.11937654020451009
1761340690932559600,5.2895595703125,12.458840917563437,-0.4663559673808515,-0.5868699141174555
1761340690942626600,5.29962646484375,12.696814976423978,-0.03697086339220405,-0.5199973950669169
1761340690952693500,5.309693603515625,12.777295457327366,0.02465498717650771,-0.02235737775862217
1761340690962759400,5.319759521484375,12.57424190520048,-0.128100748603791,0.516092934974283
1761340690972826400,5.329826416015625,12.128597740328312,-0.21806085938364267,0.938482334856689
1761340690982893600,5.3398935546875,11.455794340598583,-0.21446371167451142,1.2447064847312868
1761340690992960500,5.34996044921875,10.665939263415336,-0.36138942612707614,1.4711280529640614
1761340691003027700,5.36002783203125,9.90094273315668,-0.42478725480437274,1.6585995666861533
1761340691013094700,5.3700947265625,9.059683047428727,-0.3127566934484988,1.751608835903555
1761340691023161600,5.38016162109375,7.999161602094769,-0.118706239727512,1.860990855512023
1761340691033228500,5.390228515625,6.777182935869694,0.05912577738128602,2.01087717333585
1761340691043295700,5.400295654296875,5.745567267024517,0.2303315082181245,2.3725975849829615
1761340691053362700,5.41036279296875,4.961324184504151,0.15934132471568882,2.7461826219469305
1761340691063429600,5.4204296875,4.596106724521517,0.07838431234173476,2.960699525113404
1761340691073496600,5.43049658203125,4.52075542320013,0.08673398834019899,2.9220658430755138
1761340691083563500,5.4405634765625,4.530187268412113,0.04181516161821782,2.7258821767181156
1761340691093630500,5.45063037109375,4.640138758471608,0.024967267996072767,2.487677231711149
1761340691103697700,5.46069775390625,4.997495568081736,0.007406622994691133,2.249018551587313
1761340691113763600,5.470763671875,5.501924514877796,-0.10044409539327025,2.0985519496575
1761340691123830500,5.48083056640625,5.92445200805664,-0.11315335484072565,1.934661948661506
1761340691133897500,5.4908974609375,6.301338863044977,0.050000952291861175,1.783092061664909
1761340691143964400,5.50096435546875,6.645907502752542,0.1809447423018515,1.7572426040068267
1761340691154031600,5.511031494140625,7.001967842811346,0.17084581148326397,1.7895910682953893
1761340691164098600,5.5210986328125,7.2744848072648045,0.15961919180899858,1.6628167459897696
1761340691174165500,5.53116552734375,7.400581376439333,0.14657573197111487,1.4534171858370304
1761340691184232400,5.541232421875,7.279680622342228,0.07341828743219375,1.0613332731734961
1761340691194299400,5.55129931640625,6.958944693642854,0.1401955294147134,0.42165209858380254
1761340691204366600,5.56136669921875,6.411529422557353,0.2847461852990091,-0.22629443472176788
1761340691214433800,5.571433837890625,5.4297629495084285,0.6441713256157934,-0.6187478382848203
1761340691224500700,5.581500732421875,4.100615117418766,0.7816609570726751,0.09347975453967228
1761340691234567700,5.591567626953125,2.579913032338023,-0.7511866160929203,2.904347523294389
1761340691244634600,5.601634521484375,-4.016454486697912,-3.866531636255979,8.004221223571896
1761340691254701600,5.61170166015625,-22.96619003995657,-2.148114291336387,11.895132683324814
1761340691264767700,5.621767822265625,-52.69996984252929,8.670714124980568,6.461677309039235
1761340691274834700,5.631834716796875,-69.53126362752914,21.976942855763433,-6.061517715013027
1761340691284901600,5.641901611328125,-68.9954861872673,23.547915576922893,-11.88230593497753
1761340691294968600,5.651968505859375,-66.22561932287216,14.919426728731393,-9.368580069774389
1761340691305035500,5.662035400390625,-46.41848718807697,9.963771822035312,-8.628940683612226
1761340691315102500,5.6721025390625,-26.223164713990688,5.5732677496016025,-8.232818966799973
1761340691325169700,5.682169677734375,-14.142877707844972,1.002964013247937,-8.251517822051047
1761340691335236600,5.692236572265625,-6.960306045123934,-1.6873327630870043,-9.393312944492697
1761340691345303600,5.702303466796875,-2.5304116270661354,-2.514932318383455,-10.295900666886567
1761340691355370500,5.71237060546875,1.033740990436077,-2.7641651456221936,-10.09156467373371
1761340691365437400,5.7224375,4.194835954383016,-2.7183348300784824,-8.628403507995605
1761340691375504400,5.73250439453125,7.341966690385341,-2.080655204569548,-6.528987927246093
1761340691385571600,5.742571533203125,10.500348888242245,-1.0986106452316045,-4.314821054939926
1761340691395638500,5.752638427734375,13.083341766417027,0.0065080667197704315,-2.4220453603714702
1761340691405705500,5.76270556640625,14.568221427488327,1.3092778872326016,-0.6589820143219083
1761340691415771400,5.772771484375,15.127849698936938,2.383763268250227,0.8801516533758491
1761340691425838600,5.782838623046875,15.22074425573349,2.9484347945630547,2.122050168014318
1761340691435905500,5.792905517578125,14.839416203427314,2.905106817229092,2.6876015459015963
1761340691445972700,5.80297265625,14.156528632056713,2.5675977406442163,2.868716822464764
1761340691456039700,5.813039794921875,13.367705820530652,2.00882067919746,2.9160101962983607
1761340691466106600,5.823106689453125,12.727452106750011,1.5865980141840874,2.627317757591605
1761340691476173600,5.833173583984375,12.24810908589363,1.3606510777257381,2.024609053829312
1761340691486240500,5.843240478515625,11.929988892650604,1.2188412449821828,1.3061208845064043
1761340691496307700,5.8533076171875,11.72829493843913,1.1660510272979736,0.7331016549564897
1761340691506374700,5.863374755859375,11.602305921292304,1.0168901011392473,0.4385383879875764
1761340691516441600,5.873441650390625,11.552530375254154,0.7363333303540944,0.347477659022063
1761340691526508500,5.883508544921875,11.513998692286014,0.44668914388045666,0.3757867482593283
1761340691536575500,5.893575439453125,11.179492012387513,0.2938268789857626,0.33772425370551645
1761340691546642400,5.903642333984375,10.7095703153491,0.3534805526986718,0.20126937212385235
1761340691556708600,5.91370849609375,10.340811821758747,0.35444545220807194,0.26903231894178314
1761340691566775600,5.923775634765625,9.839463889843225,0.2800619730055332,0.6948611369546502
1761340691576842500,5.933842529296875,9.179138278892635,0.38746728571355343,1.3105075751580297
1761340691586909400,5.943909423828125,8.437669339215756,0.5630702285960316,1.7223229740560053
1761340691596976600,5.9539765625,7.747001196971535,0.6160784729450941,1.83367380951941
1761340691607043600,5.964043701171875,7.2066609788388005,0.5126591611333191,1.8150149940177798
1761340691617110500,5.974110595703125,6.953069664129615,0.565855767661333,1.7543731860503553
1761340691627178000,5.984177978515625,6.93884883107543,0.742682699380815,1.7049878083735703
1761340691637245000,5.994244873046875,7.025614091336727,0.8298352053940296,1.632890102020651
1761340691647312000,6.004311767578125,7.129494737049937,0.8607093593463301,1.5534484626457095
1761340691657378800,6.01437890625,7.291915834537148,0.9874451032072306,1.3711194263786077
1761340691667446000,6.024446044921875,7.519846638289094,1.1245882593140006,1.1194996309380978
1761340691677513200,6.03451318359375,7.715626984542608,1.0638707557618616,0.8143322966400534
1761340691687580200,6.044580078125,7.942374131467938,0.9187778096944094,0.46085744302980597
1761340691697646000,6.05464599609375,8.265279805421828,0.8906120379179716,0.11849995829937979
1761340691707713000,6.064713134765625,8.532804368415475,0.7759592382997273,-0.14806063676662742
1761340691717780200,6.0747802734375,8.78947319087386,0.6637487172670662,-0.21306915204357355
1761340691727847200,6.08484716796875,9.006891368439794,0.6031394963949919,-0.1110414041880518
1761340691737914000,6.0949140625,9.036927025741338,0.5931225447714329,-0.08856737777981906
1761340691747981000,6.10498095703125,8.84699014481902,0.7257064301386476,-0.2992002425871789
1761340691758048000,6.115048095703125,8.406540625980496,0.844584738497436,-0.6346104471966624
1761340691768115000,6.125114990234375,7.6771929167300454,1.0309683108523486,-1.148893117878586
1761340691778182100,6.13518212890625,6.841488527041673,1.6437515416443347,-1.7460874421335755
1761340691788249000,6.1452490234375,5.820469655534625,2.787775153790414,-2.544122172510624
1761340691798316000,6.15531591796875,4.987442960622906,3.381513492372632,-3.135317256350815
1761340691808383000,6.165383056640625,4.850076809415221,1.4580889770403505,-2.468125266762078
1761340691818450000,6.175449951171875,3.816009071242809,-4.801901099789142,1.1896399926781653
1761340691828516900,6.185516845703125,-7.0173752553015944,-10.498251623702048,7.609896327048539
1761340691838584000,6.195583984375,-37.417362128078935,-2.2478967079505323,7.001098658761381
1761340691848650000,6.20564990234375,-68.12378167891502,15.01413797956109,-6.265561447221041
1761340691858717000,6.215717041015625,-69.36820072500706,24.082645553958415,-18.215620483475924
1761340691868783900,6.225783935546875,-68.67872676098347,13.381537946528196,-13.725481147813797
1761340691878850800,6.235850830078125,-57.14561887907981,5.179478859651089,-10.072685785740614
1761340691888918000,6.24591796875,-32.71435277967453,2.1579243222109974,-9.730844525170326
1761340691898985000,6.25598486328125,-17.906864330905673,-2.3679651028767226,-8.00486536669433
1761340691909052200,6.26605224609375,-9.938910937023163,-5.0020717899560925,-7.579628614556789
1761340691919119000,6.276119140625,-5.370840804940462,-5.1569800275951625,-7.695674329838156
1761340691929186000,6.28618603515625,-2.0199071597486733,-4.058120960560441,-7.028562419748305
1761340691939253000,6.2962529296875,1.0643693529337643,-2.9903818389326333,-5.483575203716755
1761340691949320200,6.3063203125,4.037400828614831,-2.112144860071689,-3.787364868299663
1761340691959387100,6.31638720703125,7.0637634969890115,-1.2214490893930197,-2.3925569616891442
1761340691969454000,6.3264541015625,9.911700274014473,-0.4426210176587105,-1.2408407492138445
1761340691979521000,6.33652099609375,12.106806764280796,0.17289602201133966,-0.43341077930815514
1761340691989587000,6.3465869140625,13.65210494595766,0.9118813281789422,0.13246805870151146
1761340691999654100,6.356654052734375,14.761948348343372,1.7011831553936003,0.34494587552212175
1761340692009721000,6.36672119140625,15.477676697564124,2.2593758410811424,0.46247671479471025
1761340692019788000,6.3767880859375,15.78662223522663,2.44865981105268,0.5716329262906685
1761340692029855000,6.38685498046875,15.559198796474933,2.2977418120935558,0.6097256333196536
1761340692039922000,6.396921875,14.945103606301545,2.169417629997432,0.5591092525431886
1761340692049988900,6.40698876953125,14.18422561727762,2.1898528075218198,0.41241303599756207
1761340692060056000,6.41705615234375,13.415595698952673,2.1642583475381136,0.23388733753617852
1761340692070123000,6.427123046875,12.65512804429531,2.0733903281331063,0.18845124547444284
1761340692080190000,6.43718994140625,11.878990526819228,1.812461510142684,0.22025931927599013
1761340692090257000,6.4472568359375,11.149167016750573,1.543465705552697,0.3044183060290292
1761340692100323800,6.45732373046875,10.523654945027827,1.3720664979703723,0.4308646384892985
1761340692110391000,6.46739111328125,10.051714309382438,1.2837455326996743,0.5576326771846041
1761340692120458200,6.477458251953125,9.663494159474968,1.16841205734089,0.6754400318436324
1761340692130524000,6.48752392578125,9.202782189330458,1.0222394993431865,0.677547379386425
1761340692140590800,6.4975908203125,8.852450748312473,0.9865132291845977,0.7600419035259633
1761340692150658000,6.507657958984375,8.669951908436417,0.9577570902995765,0.9198509188186377
1761340692160725000,6.51772509765625,8.510175187978147,1.0240871730364858,1.0088999061029404
1761340692170792200,6.527792236328125,8.405832185450196,1.2778921304963529,1.0574676107212901
1761340692180859100,6.537859130859375,8.331555819883942,1.4720798007309437,1.0083066163849086
1761340692190926000,6.547926025390625,8.273937743651867,1.4509760762952266,0.8263922253333031
1761340692200993000,6.557992919921875,8.244698205164074,1.3652775684826075,0.6127149147961288
1761340692211060000,6.56806005859375,8.161393899011612,1.3987800251118838,0.5407883637590334
1761340692221127000,6.578126953125,7.998650729963183,1.3822516457676888,0.5112913068462163
1761340692231194000,6.588194091796875,7.833728463310003,1.3404421101726591,0.365190571975708
1761340692241261000,6.598260986328125,7.728536150476336,1.4038928380809723,0.13343114984631538
1761340692251328000,6.608327880859375,7.7589008936017745,1.6246698245555162,0.005088537044357508
1761340692261394000,6.618393798828125,7.833450230890512,1.7373551234930753,-0.04668859460717067
1761340692271461000,6.628461181640625,7.888428021746873,1.7632552884250878,-0.048342828087601805
1761340692281528000,6.638528076171875,7.891486824795603,1.881024466498196,-0.10626549502313136
1761340692291595000,6.648594970703125,7.890125473314523,2.070819016340375,-0.17260102112013845
1761340692301662000,6.658661865234375,7.934864194229244,2.1667124626919625,-0.1702317347055301
1761340692311729000,6.66872900390625,7.9401856815129515,2.1233456146523357,-0.19852080406807363
1761340692321795800,6.6787958984375,7.7819485917121165,2.172836498530209,-0.2857908355137333
1761340692331863000,6.688863037109375,7.147676290428638,2.5741879326894876,-0.682390362438187
1761340692341930000,6.698929931640625,6.111331254974007,3.4579476204946635,-1.3194858313836157
1761340692351997200,6.7089970703125,4.802152444201708,4.805942484134436,-1.8751354084596037
1761340692362064100,6.719064208984375,3.377804116460681,5.657157162165642,-1.3879128863997756
1761340692372131000,6.729131103515625,1.3388240074515343,3.43650618853718,0.06554251255579292
1761340692382198000,6.739197998046875,-3.043440059903264,-2.8960107798427344,3.818280231045186
1761340692392264200,6.74926416015625,-16.559119350373745,-6.671814681947231,8.71075270538032
1761340692402331100,6.7593310546875,-42.19376404495239,-0.09855813551619648,5.643306331467628
1761340692412398000,6.769398193359375,-65.69892301468849,11.2160713922441,-4.792288637313247
1761340692422465000,6.779465087890625,-69.50132675442696,15.530482405078411,-10.567169092583656
1761340692432532000,6.789531982421875,-68.38982798604965,9.719830963724851,-7.930711750724911
1761340692442599200,6.79959912109375,-55.659390141487115,4.4678672980993985,-7.616848630404472
1761340692452666000,6.809666015625,-33.31125016680956,0.8990089871242641,-9.191632434284687
1761340692462733000,6.819733154296875,-17.834148638784885,-3.28103067240417,-9.546420854711531
1761340692472800000,6.829800048828125,-7.676100445318221,-5.9535214506745335,-9.82748236014843
1761340692482867000,6.839866943359375,-1.3529384575217962,-6.898951704972982,-9.643290160357951
1761340692492934000,6.849933837890625,2.6478555187076327,-6.502701977866888,-8.596403857144713
1761340692503001000,6.8600009765625,5.240224712514877,-5.444235126975179,-6.633674628645181
1761340692513068000,6.870068115234375,7.402721895599365,-4.381698834687471,-4.409081347131729
1761340692523135000,6.880135009765625,9.575448211753368,-3.195230457782745,-2.8432477424263953
1761340692533201000,6.890200927734375,11.533273886120318,-1.8905086264193056,-1.87138906153813
1761340692543267800,6.900267822265625,13.002044123911856,-0.36324995930194853,-1.2403700629621743
1761340692553335000,6.9103349609375,14.06408298807144,1.0022472432807088,-0.6719430565733462
1761340692563402000,6.920402099609375,14.651826762413977,1.8447244881048797,-0.057776554729416965
1761340692573469000,6.930468994140625,14.790774629855155,2.222366837635636,0.5370690144423395
1761340692583535900,6.940535888671875,14.692564430993794,2.31275730265677,0.9900279593072832
1761340692593603000,6.95060302734375,14.47951555455327,2.29174754011482,1.0716166937135159
1761340692603670000,6.960669921875,14.295006543898582,2.298573294481635,0.9865123524017632
1761340692613737200,6.9707373046875,14.007562059426307,2.2474211993932722,0.9468908283703028
1761340692623804200,6.98080419921875,13.60736213338971,2.180694226293266,1.1028415607996285
1761340692633870800,6.990870849609375,13.161450257492065,2.1480352347508074,1.3606366108089685
1761340692643937800,7.000937744140625,12.721926036804915,2.3928157587558028,1.7696867827773093
1761340692654004700,7.011004638671875,12.482628620386123,2.5703520077884194,2.3587892782524227
1761340692664071000,7.02107080078125,12.200175952851772,2.225998179875314,2.9493995479419826
1761340692674137900,7.031137939453125,11.688771906346082,1.521069164827466,3.390270799323916
1761340692684204800,7.041204833984375,11.165029771792888,0.9715605747245252,3.3745448224037884
1761340692694271700,7.051271728515625,10.60811835808754,0.599127630405128,2.9910528700619934
1761340692704338700,7.061338623046875,10.012074372911453,0.24651246236413715,2.430389702607691
1761340692714406000,7.071406005859375,9.361182360738516,-0.10662994442135094,1.9719161590397356
1761340692724473000,7.08147314453125,8.556869134613871,-0.5700219474300742,1.529433965329826
1761340692734540000,7.0915400390625,7.610967171150445,-0.8844166904091835,1.0456452171109616
1761340692744607000,7.10160693359375,6.771304399225115,-0.7762121901474892,0.7843698507051915
1761340692754674000,7.111673828125,6.0953136016309255,-0.5298023113749921,0.8341993188876659
1761340692764740900,7.121740966796875,5.505819184228778,-0.29985863343067465,1.129588405688852
1761340692774807800,7.131807861328125,4.994481773218512,-0.23858890282325446,1.4595654793336987
1761340692784875000,7.141875,4.7883857846558096,-0.3309922420367598,1.7262100446224211
1761340692794941000,7.15194091796875,4.8478141251802445,-0.5296394489634781,1.7761518871381878
1761340692805008000,7.1620078125,5.012662742075324,-0.614978402748704,1.5117954327866434
1761340692815074800,7.17207470703125,5.177893636286258,-0.5595413238175213,1.1143456091757864
1761340692825142000,7.18214208984375,5.395644406807422,-0.45192558322921395,0.8412384237442165
1761340692835209000,7.192208984375,5.72956013507545,-0.43106414311677216,0.8015476338688283
1761340692845276000,7.20227587890625,6.16067425481379,-0.40947073546797036,0.9251820507135242
1761340692855342800,7.2123427734375,6.598313392406702,-0.2029674812786281,1.09670503080599
1761340692865409800,7.222409912109375,6.732716017633676,0.2987793868266046,1.340512398929894
1761340692875476700,7.232476806640625,6.22984774428308,0.7925387633092701,1.274947747607529
1761340692885544000,7.2425439453125,5.647777923923731,1.0497367242082953,1.0802538083512336
1761340692895611000,7.25261083984375,4.715082648035883,1.025350470970571,0.5278142062976956
1761340692905677800,7.262677734375,3.630556642258167,1.1783952528253197,-0.9201885532751679
1761340692915744800,7.272744873046875,2.0246692595839497,1.6100867340601979,-2.4310996044427156
1761340692925810700,7.282810791015625,-0.41012160059213637,1.3055389929652212,-2.7093437143713235
1761340692935878000,7.2928779296875,-4.542739875993132,-1.1880410330489277,-0.6194595667507499
1761340692945944800,7.30294482421875,-15.066920306199789,-5.701903481864929,3.5067674732431766
1761340692956012000,7.313011962890625,-36.20600130198002,-5.287638790118694,2.9106314258694646
1761340692966079000,7.323078857421875,-59.784211479401584,5.232376337102055,-8.904584255653619
1761340692976146000,7.33314599609375,-69.96575511474609,15.365157402843236,-22.55316687270403
1761340692986212900,7.343212890625,-68.2056848860979,12.676163818061351,-24.190630127859116
1761340692996280000,7.353280029296875,-54.90031131083965,4.674375959116221,-18.779872323071956
1761340693006347000,7.363346923828125,-35.2114139258027,2.4714602564036845,-15.437820487993955
1761340693016414000,7.3734140625,-19.75018567421436,1.0330950937479735,-12.255291690874099
1761340693026481000,7.38348095703125,-8.922862839666008,-1.3435631648026407,-8.835385047221184
1761340693036547800,7.3935478515625,-1.8195540987521408,-2.998907090693712,-6.183887372618913
1761340693046614800,7.40361474609375,2.9119296489864586,-3.1268998488783835,-3.853614871537685
1761340693056681000,7.413680908203125,6.158779234847426,-2.0899305440455676,-1.095235615840554
1761340693066748000,7.423747802734375,8.347464752155542,-1.0513722164556383,1.5433458785653114
1761340693076814800,7.43381494140625,10.153732083833217,-0.5298132711604238,2.937285331778228
1761340693086881800,7.4438818359375,11.641454859375953,0.4147393235206604,2.8632667403653262
1761340693096948700,7.45394873046875,12.705095313513278,1.721566602730751,2.197953988651931
1761340693107016000,7.464015869140625,13.522025444626808,2.6072417687684295,1.7746578491881488
1761340693117083000,7.474082763671875,13.872371498692035,3.0684041130289432,1.6939590493589638
1761340693127149800,7.48414990234375,13.768786036533117,3.3290459307715294,1.9935876003608106
1761340693137216800,7.494216796875,13.383026139259337,3.331529272019863,2.4572224722146987
1761340693147283700,7.50428369140625,13.063165239828825,3.119581050297618,2.895401415772736
1761340693157351000,7.514350830078125,12.909677974903582,2.883916437423229,3.0395930290862916
1761340693167418000,7.524418212890625,12.940373557418583,2.6175778693437577,2.9481647454500197
1761340693177485000,7.534485107421875,13.051613918244838,2.272867483077943,2.589601774920523
1761340693187550700,7.54455078125,13.194990123522281,1.958914638647437,2.170646879531443
1761340693197618000,7.554617919921875,13.221989189606905,1.623737804402411,1.8026134853452442
1761340693207685000,7.56468505859375,13.014312069332599,1.1754206209287046,1.5504554183095693
1761340693217752000,7.574751953125,12.487159834074973,0.6718205261722207,1.3162021335378289
1761340693227819000,7.584819091796875,11.61579668650627,0.34492271384224293,1.0841970660842954
1761340693237886000,7.594885986328125,10.491080709159373,0.3722087801747024,0.8876273230187595
1761340693247953000,7.604952880859375,9.17459829737544,0.6881066211931407,0.6981879432898014
1761340693258019800,7.615019775390625,7.781406739920377,1.0066074843168258,0.6488636481504887
1761340693268086800,7.625086669921875,6.535584256771206,1.0870260058999062,0.7921740947153418
1761340693278154000,7.635154052734375,5.499957598719001,0.8947853780798614,0.894394698261842
1761340693288221000,7.645220947265625,4.733592118194699,0.5052490310072899,0.7142605416905135
1761340693298287900,7.655287841796875,4.38930989421308,0.1675267500631511,0.2355424477994442
1761340693308353800,7.665353759765625,4.275702804255485,-0.07119432777240872,-0.36516477994732555
1761340693318421000,7.6754208984375,4.208751667010784,-0.2829123940005898,-0.7249490359000861
1761340693328488000,7.685488037109375,4.264117580401897,-0.34808687696158885,-0.740482997379452
1761340693338555000,7.695554931640625,4.514644246843457,-0.2841547952771187,-0.61201801857315
1761340693348621800,7.705621826171875,4.802250059357285,-0.11671952288970351,-0.571616450079903
1761340693358688800,7.715688720703125,5.092317293548584,0.143317314697057,-0.6651359338417648
1761340693368755700,7.725755615234375,5.370111321622133,0.23579174638539552,-0.8270498855244368
1761340693378823000,7.735822998046875,5.621607125356793,0.2661361773751676,-0.9633805562045424
1761340693388889900,7.745889892578125,5.637827023273706,0.4122299710482359,-1.073597346136719
1761340693398957000,7.75595703125,5.309941807341575,0.7780079875230789,-1.1603773655757308
1761340693409024000,7.76602392578125,4.99019664324522,1.1590735895007849,-1.10576227055192
1761340693419091000,7.776091064453125,4.397918732604384,0.9190624718546867,-0.7587006449848414
1761340693429158000,7.786157958984375,3.353414940613508,0.2182426456913352,-0.3114604430928826
1761340693439224000,7.79622412109375,1.6359452518075703,-0.29846184531003234,-0.4916744599673897
1761340693449291000,7.806291015625,-0.7094178508996963,-0.4012041346430778,-1.2611257046125828
1761340693459358000,7.81635791015625,-2.7039345488041637,-0.36744448838233945,-1.8768841518230734
1761340693469425000,7.8264248046875,-4.44227576072514,-1.038735437722504,-1.8263067878827453
1761340693479491800,7.836491943359375,-6.294310571843385,-2.7452380345731973,-0.82060268214643
1761340693489559000,7.84655908203125,-6.980148809713125,-4.832115620788931,0.3143903590649366
1761340693499626000,7.8566259765625,-5.842687332561612,-4.925758950126171,-0.1632021648623049
1761340693509693000,7.86669287109375,-6.596458119928837,-5.397141951888799,-1.4553914085194468
1761340693519760000,7.876759765625,-10.545983681213855,-4.1113656440138815,-2.256234766576439
1761340693529826800,7.886826904296875,-17.366486703372,0.6492139959581196,-2.5008278051853177
1761340693539893800,7.896893798828125,-24.401053331971166,5.377792523774504,-2.8997078807950016
1761340693549961000,7.9069609375,-27.841563203191754,8.105356954491137,-2.6773814729213714
1761340693560027000,7.91702685546875,-26.510980954384802,6.81827599375844,-0.8794935547932982
1761340693570093800,7.92709375,-20.872837120246885,3.7795328594997524,0.4247342825081199
1761340693580160800,7.937160888671875,-13.389486275184154,2.27502758372128,0.06312847368400544
1761340693590228000,7.94722802734375,-6.647452394106984,0.8315269578732549,-0.24577021089578047
1761340693600295000,7.957294921875,-1.841007221147418,-0.8761398604512214,0.44349246673099696
1761340693610361900,7.96736181640625,1.096504028341174,-1.614820922975242,1.443804577230662
1761340693620428800,7.9774287109375,2.7871681278079747,-1.338752841911465,2.081248055896163
1761340693630496300,7.987496337890625,3.618039105990529,-0.8583227564707397,2.0787142996348438
1761340693640563200,7.997563232421875,3.9897833373934026,-0.595618599370867,1.6374968651637434
1761340693650630100,8.007630126953124,4.4032513258039945,-0.5024254980191588,1.060130254059285
1761340693660696300,8.0176962890625,4.404280668851733,-0.5409859686903655,1.1294045735545455
1761340693670763300,8.02776318359375,4.980011349317431,-0.6213613817840814,0.44500564777292306
1761340693680830200,8.037830322265625,5.742680897933244,-0.6694380149498581,-0.01731689937338233
1761340693690897200,8.047897216796875,6.734433342945575,-0.6145761055581271,0.03642214346826076
1761340693700964000,8.057964111328126,7.779431640455126,-0.7673973077900708,0.364825976447016
1761340693711031300,8.06803125,8.758118852189183,-0.92118253274858,0.8423572717063128
1761340693721097200,8.07809716796875,9.58521615705192,-0.8827939115129411,1.342497289136797
1761340693731164200,8.0881640625,10.192886867135762,-0.7494660759106277,1.7856363393202423
1761340693741231000,8.098231201171876,10.41557217144966,-0.6619042584441602,2.1474729246929285
1761340693751298300,8.10829833984375,8.507757020920515,0.09294292598292231,1.817976181910932
1761340693761365200,8.118365234375,6.878181304144859,-1.031606754886359,-1.128278638264537
1761340693771432200,8.12843212890625,5.530982267057896,-1.8713485833972692,-1.6064290883354841
1761340693781499100,8.1384990234375,4.452101573690772,-2.333900336189568,-1.8892955973677337
1761340693791566000,8.148566162109375,3.560318738427758,-2.129448753833026,-1.3892048259064553
1761340693801633000,8.158633056640625,3.420985671061277,-1.7728828023396432,-0.01869240724397823
1761340693811700200,8.1687001953125,2.5356629717230796,-1.764141131348908,1.150713026782125
1761340693821767200,8.17876708984375,0.9540823473095893,-1.4707980903573334,1.7466878922447562
1761340693831834000,8.188834228515624,-0.021271336087584494,-1.3281583826608956,2.0998824676088987
1761340693841900000,8.198900146484375,-0.6724211224138736,-1.18196850820221,2.767638959212601
1761340693851967000,8.208967041015624,-1.868329527837038,-0.5395673340640962,3.0470740324914454
1761340693862034200,8.2190341796875,-3.5729648695111274,0.17245273522324858,2.4259805078633128
1761340693872101000,8.22910107421875,-4.913889648634195,0.8107448666073381,1.2698173989817498
1761340693882168000,8.23916796875,-5.50243889414072,1.08215321223177,0.08067614960595965
1761340693892235000,8.249235107421875,-5.229734882682561,1.1424873424895108,-0.8111618499103933
1761340693902302200,8.25930224609375,-4.574166110870242,1.1539743666656315,-1.3362369135677814
1761340693912369200,8.269369140625,-4.750951249274611,1.2988291200630366,-1.4268202708125113
1761340693922436400,8.279436279296876,-5.415415859726071,1.3308499598324297,-1.5822041631393133
1761340693932503300,8.28950341796875,-6.311251185250282,1.46873896587044,-1.5721195531070231
1761340693942570200,8.2995703125,-6.777456492114067,1.6517549614883957,-0.9174993872564285
1761340693952637200,8.30963720703125,-7.060030155679583,1.9246710082620382,0.06544467820450663
1761340693962703000,8.319703125,-6.700610568320751,2.042397077845782,0.8830679061487317
1761340693972770300,8.329770263671875,-5.398790888139605,1.6612582645013927,0.900304726023227
1761340693982837200,8.339837158203125,-3.2860312571704386,0.7140267329346388,0.11780308034271002
1761340693992904200,8.349904296875,-1.008531730377674,-0.01860071037253365,-0.06456435170602053
1761340694002971100,8.35997119140625,1.101235733038187,-0.3018146263366565,0.532721779018268
1761340694013038000,8.3700380859375,2.8535850120455026,-0.19836406087009234,1.2416076419331132
1761340694023105000,8.38010498046875,3.8913212095975873,-0.20530606202771887,1.483184401460737
1761340694033172200,8.390172119140624,4.272136051684618,-0.2594836789497174,1.1852861813828348
1761340694043239200,8.4002392578125,3.8774247861921785,-0.18557892317483202,-0.12009736529234796
1761340694053306000,8.41030615234375,3.4843875913918017,-0.2997913768807426,-0.35853147941268976
1761340694063373000,8.420373046875,3.210139857622981,-0.24561743148686363,-0.28951427648365496
1761340694073440000,8.43043994140625,3.170073220172524,-0.12472734491424635,-0.038873810936696826
1761340694083507000,8.4405068359375,3.040308776140213,-0.11543083478603511,0.1965258673911914
1761340694093574100,8.45057421875,2.8093641775250435,-0.24125561954816802,0.2169459934769198
1761340694103641000,8.46064111328125,2.6118413715183735,-0.39223917629048227,0.06493037200681864
1761340694113708300,8.470708251953125,2.4352695836037395,-0.642257747079432,-0.19872604431658983
1761340694123774000,8.48077392578125,2.370301144608855,-0.8360138940289616,-0.4119065112475306
1761340694133841200,8.490841064453125,2.4460347232460973,-0.8293320781774819,-0.36969869704991576
1761340694143908400,8.500908447265624,1.990884478881955,-0.601573708382994,-0.08806947472766041
1761340694153975300,8.510975341796875,0.3926175080835819,-0.06792053026612847,0.025646336301416158
1761340694164042200,8.521042236328125,-2.3003408886760472,0.6649666416894644,-0.15368855965100228
1761340694174109200,8.531109130859376,-5.481330055138469,1.2748989400297404,-0.29852723869644104
1761340694184176000,8.541176025390625,-8.019817436632513,1.522349121635407,-0.4230586043808609
1761340694194243000,8.5512431640625,-8.712184199488162,1.5522671439066529,-0.534458101291582
1761340694204310300,8.561310302734375,-7.343505151998996,1.4539378487102685,-0.46438751685209567
1761340694214377200,8.571377197265624,-4.593802539232373,1.0941196174226702,-0.2339505389655009
1761340694224444200,8.581444091796875,-1.53820091689229,0.43271746328175065,0.042115057880245145
1761340694234511000,8.591510986328124,1.0348036512315273,-0.04199772424404509,0.50648909419626
1761340694244577300,8.601577392578125,3.1079636777400967,-0.27141793543668463,0.9743934600628912
1761340694254644200,8.611644287109375,4.3173435591548674,-0.417238666055724,1.0940231713108717
1761340694264711200,8.621711181640626,4.6445600820451975,-0.48709546161405737,0.7151058334082364
1761340694274778000,8.631778076171875,4.1385926736354826,-0.46001602376960216,0.027952640482410786
1761340694284845000,8.641844970703126,2.9915766016751526,-0.32986637981198724,-0.6108221598520874
1761340694294912000,8.651912109375,1.6448481047093868,-0.11807221614029258,-0.8980088701710104
1761340694304979200,8.661979248046874,0.3524503328680992,0.14948463255460373,-1.1444384034920483
1761340694315046100,8.672046142578125,-0.6224854173779487,0.2568473208304494,-1.383093649549782
1761340694325113000,8.682113037109374,-1.3397405377745628,0.22802832757597788,-1.4923878447443246
1761340694335180000,8.692179931640625,-1.8139900348842144,0.23056011107591912,-1.2793360456943512
1761340694345247200,8.702247314453125,-2.0802958697378635,0.2562855770281516,-0.9864834185682236
1761340694355314200,8.712314208984376,-1.9967086549907922,0.27570122051276263,-0.7791365531615912
1761340694365380000,8.722380126953125,-1.4182044181585312,0.0881373249326367,-0.6404082467552275
1761340694375447000,8.732447021484376,-0.7173825461685657,-0.32748394165486094,-0.6495272996909917
1761340694385514200,8.74251416015625,0.5215285501569509,-0.3000875833483413,-0.6574802314568311
1761340694395581200,8.752581298828124,1.48178461766541,-0.18038064214568583,-0.06873641322627663
1761340694405648100,8.762648193359375,1.7421861969113348,-0.29989328461894765,0.06271079626120626
1761340694415715300,8.77271533203125,1.6006903985530136,-0.7391196731369942,-0.11533500972874462
1761340694425782300,8.7827822265625,1.0911375328719615,-1.1413421910423784,-0.2922060728508979
1761340694435849200,8.79284912109375,0.422017205569148,-1.145331041482836,-0.3758772395543754
1761340694445916200,8.802916259765626,-0.2139566389352083,-0.4258240139735862,-0.04653407989889383
