time,seconds_elapsed,z,y,x
1761340685727945200,0.0849453125,0.48434364795684814,0.4065563380718231,0.4273895025253296
1761340685738012200,0.09501220703125,0.4499385356903076,0.42654868960380554,0.564028799533844
1761340685748079000,0.1050791015625,0.4077579975128174,0.37258097529411316,0.6992356777191162
1761340685758146000,0.11514599609375,0.35838964581489563,0.23953132331371307,0.8472363352775574
1761340685768213000,0.125212890625,0.29542991518974304,0.06483674049377441,1.0187450647354126
1761340685778280000,0.135280029296875,0.22247126698493958,-0.0010565221309661865,1.2356005907058716
1761340685788347000,0.145346923828125,0.13543803989887238,0.009682445786893368,1.5183436870574951
1761340685798414000,0.1554140625,0.035343389958143234,-0.05292527750134468,1.7713959217071533
1761340685808481000,0.16548095703125,-0.05323001742362976,-0.15107187628746033,1.935651183128357
1761340685818548000,0.1755478515625,-0.06895971298217773,-0.18761710822582245,2.05842924118042
1761340685828615000,0.185614990234375,-0.07477658987045288,-0.7143389582633972,1.970165491104126
1761340685838681900,0.195681884765625,-0.16234850883483887,-1.1005101203918457,1.8567225933074951
1761340685848748800,0.205748779296875,-0.2613493800163269,-1.3199505805969238,1.7569892406463623
1761340685858816000,0.21581591796875,-0.3129308223724365,-1.8403774499893188,1.4852741956710815
1761340685868883200,0.22588330078125,-0.30351972579956055,-2.4203710556030273,1.0663440227508545
1761340685878950100,0.2359501953125,-0.2608926594257355,-2.5248658657073975,0.6494671106338501
1761340685889017000,0.24601708984375,-0.14571379125118256,-2.152543544769287,0.2787647843360901
1761340685899084000,0.256083984375,0.026667825877666473,-1.5118767023086548,-0.007037944160401821
1761340685909151000,0.26615087890625,0.20647196471691132,-0.9485552906990051,-0.15276268124580383
1761340685919218200,0.27621826171875,0.36041706800460815,-0.6045092344284058,-0.1400570124387741
1761340685929285000,0.28628515625,0.5058486461639404,-0.3278190493583679,0.008452164940536022
1761340685939352000,0.29635205078125,0.5717892646789551,-0.144993856549263,0.22889506816864014
1761340685949419000,0.3064189453125,0.5111706256866455,0.01995091885328293,0.49736079573631287
1761340685959486000,0.31648583984375,0.3073544204235077,0.06524781882762909,0.724748969078064
1761340685969553000,0.326552978515625,0.12912778556346893,-0.09743855148553848,0.8104814291000366
1761340685979620000,0.3366201171875,0.12059927731752396,-0.33059749007225037,0.7845011949539185
1761340685989687000,0.34668701171875,0.20798349380493164,-0.5922451615333557,0.7152506113052368
1761340685999754000,0.35675390625,0.3029877841472626,-0.4595571756362915,0.7043308615684509
1761340686009820000,0.36681982421875,0.3387233018875122,-0.04154464602470398,0.7796329259872437
1761340686019886800,0.376886962890625,0.24674224853515625,0.24891221523284912,0.84281325340271
1761340686029954000,0.3869541015625,0.13566869497299194,0.13247643411159515,0.7986264228820801
1761340686040021000,0.39702099609375,0.09707816690206528,-0.025797612965106964,0.795706570148468
1761340686050088000,0.407087890625,0.10220297425985336,-0.04010460525751114,0.7799785733222961
1761340686060155000,0.41715478515625,0.09626838564872742,0.0009578755125403404,0.6983369588851929
1761340686070222000,0.42722216796875,0.10556046664714813,-0.00021841935813426971,0.5941569805145264
1761340686080289000,0.4372890625,0.1797550767660141,-0.32801973819732666,0.27496886253356934
1761340686090356200,0.447356201171875,0.22375331819057465,-0.30900901556015015,0.057411789894104004
1761340686100423200,0.457423095703125,0.09887636452913284,-0.06762516498565674,-0.004557039588689804
1761340686110490000,0.467489990234375,-0.22616927325725555,0.6212443709373474,0.12251152843236923
1761340686120557000,0.47755712890625,-0.43189847469329834,1.156477689743042,0.20857849717140198
1761340686130624000,0.4876240234375,-0.19595755636692047,0.7767438888549805,0.11558225005865097
1761340686140691000,0.49769091796875,0.06805332005023956,0.659845769405365,-0.031683631241321564
1761340686150758100,0.507758056640625,0.14636731147766113,0.5664955377578735,-0.2801809310913086
1761340686160825000,0.5178251953125,0.23192135989665985,-0.15770025551319122,-0.5984659790992737
1761340686170892000,0.52789208984375,0.5565766096115112,-1.0351133346557617,-1.0112231969833374
1761340686180959000,0.537958984375,1.0651271343231201,-1.2941949367523193,-1.4525526762008667
1761340686191026000,0.54802587890625,1.6282117366790771,-1.0571720600128174,-1.524853229522705
1761340686201092900,0.5580927734375,2.1223528385162354,-0.9521263241767883,-1.0443191528320312
1761340686211160000,0.56816015625,2.301518678665161,-1.0709564685821533,-0.07328850775957108
1761340686221227000,0.57822705078125,2.1476268768310547,-1.4501994848251343,1.0910279750823975
1761340686231294000,0.5882939453125,1.862932562828064,-1.798081636428833,1.9233663082122803
1761340686241361200,0.598361083984375,1.5221878290176392,-1.88627028465271,2.2140064239501953
1761340686251428000,0.608427978515625,1.1073535680770874,-1.6553484201431274,1.9446978569030762
1761340686261495000,0.6184951171875,0.6879129409790039,-1.2778397798538208,1.2223316431045532
1761340686271562000,0.62856201171875,0.3504694402217865,-0.8783750534057617,0.20474554598331451
1761340686281629200,0.638629150390625,0.1230006068944931,-0.48696863651275635,-0.9122840762138367
1761340686291696000,0.648696044921875,0.012769438326358795,-0.08602586388587952,-2.010993480682373
1761340686301763000,0.65876318359375,-0.06449845433235168,0.2985936999320984,-2.94364595413208
1761340686311830000,0.668830078125,-0.16143932938575745,0.6294834017753601,-3.6056997776031494
1761340686321896200,0.678896240234375,-0.36723777651786804,0.9701709151268005,-4.007083415985107
1761340686331963100,0.688963134765625,-0.5973765850067139,1.2480586767196655,-4.187186241149902
1761340686342030000,0.699030029296875,-0.8894302845001221,1.7816592454910278,-4.003431797027588
1761340686352097000,0.709096923828125,-1.1883463859558105,2.172623872756958,-3.554466724395752
1761340686362164000,0.7191640625,-1.4088082313537598,2.261998414993286,-2.8875417709350586
1761340686372231000,0.72923095703125,-1.5692416429519653,2.1087143421173096,-2.0578949451446533
1761340686382298000,0.739298095703125,-1.6280626058578491,1.6999069452285767,-1.309360146522522
1761340686392365000,0.749364990234375,-1.5505905151367188,1.234535813331604,-0.6602298021316528
1761340686402432000,0.759431884765625,-1.4297927618026733,0.6640608310699463,-0.11770150810480118
1761340686412499000,0.7694990234375,-1.4482866525650024,-0.016483448445796967,0.3485284149646759
1761340686422566000,0.77956591796875,-1.637877106666565,-0.5733168721199036,0.7555055022239685
1761340686432632800,0.7896328125,-1.4720429182052612,-0.6136943697929382,1.0368897914886475
1761340686442700000,0.799699951171875,-1.0043308734893799,-0.24747297167778015,1.0738695859909058
1761340686452767200,0.809767333984375,-0.516890287399292,0.27444300055503845,0.8895436525344849
1761340686462834200,0.819834228515625,-0.1395949274301529,0.7480971813201904,0.5674404501914978
1761340686472901000,0.829901123046875,0.11117590963840485,1.1752898693084717,0.15521284937858582
1761340686482968000,0.839968017578125,0.2844981551170349,1.4051907062530518,-0.28421884775161743
1761340686493035000,0.850034912109375,0.3638239800930023,1.3505579233169556,-0.6745061278343201
1761340686503102000,0.86010205078125,0.28758859634399414,0.8557777404785156,-0.9373494982719421
1761340686513169200,0.870169189453125,0.10362422466278076,0.10443028062582016,-1.1144914627075195
1761340686523236000,0.880236083984375,-0.07129619270563126,-0.3802107274532318,-1.230654239654541
1761340686533303000,0.890302978515625,-0.15521880984306335,-0.5817579030990601,-1.1328151226043701
1761340686543370000,0.900369873046875,-0.15353542566299438,-0.28847938776016235,-0.6252333521842957
1761340686553437000,0.91043701171875,-0.08822233974933624,-0.3770448863506317,-0.24103160202503204
1761340686563503900,0.92050390625,-0.20228871703147888,-0.513052761554718,0.1843487173318863
1761340686573571000,0.930571044921875,-0.16548730432987213,-0.5453428030014038,0.5010406374931335
1761340686583638000,0.940637939453125,0.036634646356105804,-0.5470291376113892,0.6956881284713745
1761340686593705000,0.950705078125,0.2682049870491028,-0.4630606472492218,0.8102684020996094
1761340686603771000,0.96077099609375,0.45491868257522583,-0.3708433508872986,0.9205094575881958
1761340686613838000,0.970838134765625,0.5621106624603271,-0.4082050621509552,1.056779146194458
1761340686623904500,0.980904541015625,0.6477528810501099,-0.5653459429740906,1.221319317817688
1761340686633971500,0.990971435546875,0.7270780205726624,-0.7509019374847412,1.3711977005004883
1761340686644038400,1.001038330078125,0.7708478569984436,-0.8686406016349792,1.5251185894012451
1761340686654105300,1.011105224609375,0.7739434838294983,-0.910719633102417,1.6684943437576294
1761340686664172300,1.02117236328125,0.7309273481369019,-0.8781102895736694,1.7674952745437622
1761340686674239700,1.03123974609375,0.6413328647613525,-0.753605842590332,1.8161859512329102
1761340686684306700,1.041306640625,0.4963684678077698,-0.46077239513397217,1.7687907218933105
1761340686694373600,1.05137353515625,0.2570396065711975,0.009962598793208599,1.6139230728149414
1761340686704440600,1.061440673828125,-0.07166102528572083,0.6735514998435974,1.344035029411316
1761340686714507500,1.071507568359375,-0.40693771839141846,1.4271901845932007,0.952583372592926
1761340686724574500,1.081574462890625,-0.6421627402305603,2.1442267894744873,0.36640000343322754
1761340686734641700,1.0916416015625,-0.9749506711959839,2.730849504470825,-0.6318513751029968
1761340686744708600,1.10170849609375,-1.4591416120529175,2.074610710144043,-2.237795829772949
1761340686754775600,1.111775634765625,-1.5258252620697021,-0.1808762103319168,-4.3933563232421875
1761340686764842500,1.121842529296875,-0.5276325941085815,-2.3963122367858887,-6.168183326721191
1761340686774909400,1.131909423828125,0.7047070860862732,-2.9535632133483887,-6.054516792297363
1761340686784976400,1.141976318359375,1.0583975315093994,-2.065964460372925,-3.6330296993255615
1761340686795043600,1.152043701171875,1.0444658994674683,-0.40677186846733093,-0.1756094992160797
1761340686805110500,1.162110595703125,1.141323447227478,0.628032922744751,2.727762222290039
1761340686815177500,1.172177490234375,0.8808704018592834,0.7346792817115784,4.000771999359131
1761340686825244400,1.182244384765625,0.36592957377433777,0.5156521797180176,3.8197789192199707
1761340686835311400,1.192311279296875,-0.17265406250953674,0.5193041563034058,2.8091723918914795
1761340686845378600,1.202378662109375,-0.8071263432502747,0.8861998319625854,1.5865132808685303
1761340686855445500,1.212445556640625,-1.5387271642684937,1.4596682786941528,0.4525167644023895
1761340686865511400,1.222511474609375,-2.2135508060455322,1.8802099227905273,-0.5128756761550903
1761340686875578600,1.23257861328125,-2.6633362770080566,1.9812519550323486,-1.2492789030075073
1761340686885645600,1.2426455078125,-2.898285150527954,1.860332727432251,-1.7950860261917114
1761340686895712500,1.25271240234375,-3.0101139545440674,1.6274936199188232,-2.0873916149139404
1761340686905779700,1.26277978515625,-2.9664154052734375,1.3728758096694946,-2.099336624145508
1761340686915846700,1.2728466796875,-2.721191883087158,1.2289565801620483,-1.8789517879486084
1761340686925913600,1.28291357421875,-2.3077194690704346,1.2522293329238892,-1.5087202787399292
1761340686935980500,1.29298046875,-1.779201865196228,1.2724368572235107,-1.045011043548584
1761340686946047500,1.303047607421875,-1.130574345588684,1.1757893562316895,-0.5088488459587097
1761340686956114400,1.313114501953125,-0.4085145890712738,0.8948192596435547,0.025519397109746933
1761340686966181600,1.323181640625,0.2967008650302887,0.5000991225242615,0.48188266158103943
1761340686976248600,1.33324853515625,0.8354054093360901,0.11377330869436264,0.8469716906547546
1761340686986315500,1.3433154296875,1.3178248405456543,-0.17437300086021423,1.2185932397842407
1761340686996382500,1.353382568359375,1.8360751867294312,-0.5042752027511597,1.589767575263977
1761340687006449400,1.363449462890625,2.135300397872925,-0.8177329897880554,1.867066502571106
1761340687016516400,1.373516357421875,2.1770060062408447,-0.9750418066978455,1.998092770576477
1761340687026583600,1.38358349609375,1.9966952800750732,-0.8659869432449341,1.9208837747573853
1761340687036650500,1.393650390625,1.6476073265075684,-0.46767663955688477,1.6581822633743286
1761340687046717700,1.4037177734375,1.2374080419540405,-0.11573883891105652,1.1832479238510132
1761340687056784600,1.41378466796875,0.7833771705627441,0.2189205139875412,0.5092819929122925
1761340687066851600,1.4238515625,0.33877068758010864,0.5256122350692749,-0.18019577860832214
1761340687076918500,1.43391845703125,0.05237362161278725,0.716696560382843,-0.8190122246742249
1761340687086985500,1.4439853515625,-0.02565300278365612,0.6465704441070557,-1.3712756633758545
1761340687097052700,1.454052734375,0.042462896555662155,0.5600236654281616,-1.7350199222564697
1761340687107118600,1.46411865234375,0.15386159718036652,0.48742085695266724,-1.9225738048553467
1761340687117185500,1.474185546875,0.266659677028656,0.3691663146018982,-1.945164680480957
1761340687127252500,1.48425244140625,0.41837838292121887,0.18207313120365143,-1.8346107006072998
1761340687137319700,1.494319580078125,0.6141712069511414,-0.020564762875437737,-1.588138222694397
1761340687147386600,1.50438671875,0.8439303636550903,-0.17836052179336548,-1.2267770767211914
1761340687157453600,1.51445361328125,1.0805494785308838,-0.25851041078567505,-0.7362761497497559
1761340687167520500,1.5245205078125,1.3280248641967773,-0.25150227546691895,-0.0204746313393116
1761340687177587500,1.53458740234375,1.531715750694275,-0.5742011666297913,0.5510423183441162
1761340687187654400,1.544654296875,1.5375792980194092,-0.8779336214065552,1.0277860164642334
1761340687197721600,1.5547216796875,1.4628657102584839,-0.9239619374275208,1.427991271018982
1761340687207788500,1.56478857421875,1.40936279296875,-0.9188894033432007,1.6581411361694336
1761340687217855500,1.57485546875,1.3633655309677124,-0.7857783436775208,1.7694562673568726
1761340687227922400,1.58492236328125,1.293595790863037,-0.551077127456665,1.7956784963607788
1761340687237989400,1.5949892578125,1.192859172821045,-0.3098560869693756,1.7792237997055054
1761340687248056300,1.605056396484375,1.0120515823364258,-0.08788798749446869,1.7013976573944092
1761340687258123500,1.61512353515625,0.7846810817718506,0.21181395649909973,1.5123785734176636
1761340687268190700,1.625190673828125,0.5484325885772705,1.0104975700378418,1.234854817390442
1761340687278257700,1.635257568359375,0.2815580368041992,2.1157615184783936,0.9386431574821472
1761340687288324600,1.64532470703125,0.011065015569329262,2.6930019855499268,0.7041987180709839
1761340687298391600,1.6553916015625,-0.31547197699546814,1.9364749193191528,0.2642265558242798
1761340687308458500,1.66545849609375,-0.6138342022895813,-0.7952823042869568,-0.8472618460655212
1761340687318525400,1.675525390625,-0.37571999430656433,-4.52775239944458,-2.605496883392334
1761340687328592600,1.685592529296875,0.3633737862110138,-6.8171000480651855,-4.012267112731934
1761340687338658600,1.695658447265625,0.6056806445121765,-5.873898983001709,-3.9049487113952637
1761340687348725500,1.7057255859375,-0.03369003161787987,-2.9043121337890625,-1.7906970977783203
1761340687358792400,1.71579248046875,-0.40810802578926086,0.2860427796840668,1.1353434324264526
1761340687368859600,1.725859619140625,-0.6353352665901184,2.0022194385528564,2.884648323059082
1761340687378926600,1.735926513671875,-0.8700005412101746,2.649315595626831,3.106903314590454
1761340687388993500,1.74599365234375,-0.9168862700462341,2.967771530151367,2.6513724327087402
1761340687399060500,1.756060546875,-0.8724212050437927,3.150763750076294,2.1917123794555664
1761340687409127400,1.76612744140625,-0.9489521980285645,3.08249831199646,1.9772042036056519
1761340687419194400,1.7761943359375,-1.222710371017456,2.7048799991607666,2.007795572280884
1761340687429261600,1.786261474609375,-1.609621286392212,2.0795395374298096,2.117215871810913
1761340687439328500,1.79632861328125,-1.97794771194458,1.4370321035385132,2.172090530395508
1761340687449395500,1.8063955078125,-2.247669219970703,0.8836719393730164,2.113659381866455
1761340687459462700,1.816462646484375,-2.3868823051452637,0.44998088479042053,1.8942360877990723
1761340687469529600,1.826529541015625,-2.375908374786377,0.11971615254878998,1.4759525060653687
1761340687479596500,1.836596435546875,-2.218735694885254,-0.014334267936646938,0.920757532119751
1761340687489663500,1.84666357421875,-1.9282772541046143,-0.040048420429229736,0.302467942237854
1761340687499730700,1.856730712890625,-1.5468789339065552,-0.004101724363863468,-0.29500138759613037
1761340687509797600,1.866797607421875,-1.1965060234069824,0.0329231396317482,-0.8029410243034363
1761340687519864600,1.876864501953125,-0.9014092087745667,0.05551612377166748,-1.1441407203674316
1761340687529931500,1.886931640625,-0.6128189563751221,0.057223208248615265,-1.3022397756576538
1761340687539998500,1.89699853515625,-0.333568811416626,0.004522825591266155,-1.2915414571762085
1761340687550065400,1.9070654296875,-0.0737830325961113,-0.10997339338064194,-1.1587719917297363
1761340687560132600,1.917132568359375,0.16236646473407745,-0.2793886363506317,-0.9531470537185669
1761340687570198500,1.927198486328125,0.37061554193496704,-0.4462601840496063,-0.7304138541221619
1761340687580265500,1.937265380859375,0.5354741811752319,-0.5360020995140076,-0.5231293439865112
1761340687590332400,1.94733251953125,0.6663219332695007,-0.5933117270469666,-0.33246082067489624
1761340687600399600,1.957399658203125,0.7477549314498901,-0.6556496024131775,-0.1689472496509552
1761340687610466600,1.967466552734375,0.7905076742172241,-0.7385380864143372,-0.048874907195568085
1761340687620533500,1.977533447265625,0.7787542939186096,-0.8100540637969971,0.02177327498793602
1761340687630601200,1.987601318359375,0.7330909371376038,-0.8486840128898621,0.05352507531642914
1761340687640668200,1.997668212890625,0.6773717403411865,-0.8363896608352661,0.025150882080197334
1761340687650735000,2.007735107421875,0.6418811082839966,-0.6967193484306335,-0.0830453634262085
1761340687660802000,2.017802001953125,0.6066859364509583,-0.49679887294769287,-0.2477719485759735
1761340687670869000,2.027868896484375,0.5609573721885681,-0.2647315561771393,-0.3961654007434845
1761340687680936200,2.037936279296875,0.5223267078399658,-0.09396854043006897,-0.45976993441581726
1761340687691003100,2.048003173828125,0.4731155037879944,-0.017291869968175888,-0.4393184781074524
1761340687701070000,2.058070068359375,0.4322488307952881,0.022975731641054153,-0.33798760175704956
1761340687711137000,2.068136962890625,0.40240278840065,0.010128377936780453,-0.15539169311523438
1761340687721204000,2.078203857421875,0.37981143593788147,-0.09113042056560516,0.09329728782176971
1761340687731271200,2.088271240234375,0.36131125688552856,-0.25150489807128906,0.3993869125843048
1761340687741338400,2.09833837890625,0.3629177510738373,-0.41203585267066956,0.688083291053772
1761340687751405300,2.1084052734375,0.38998958468437195,-0.4995015263557434,0.924706757068634
1761340687761472300,2.11847216796875,0.4310142397880554,-0.49145668745040894,1.0717371702194214
1761340687771539200,2.128539306640625,0.4518236517906189,-0.4358176589012146,1.1500293016433716
1761340687781605000,2.138605224609375,0.4595305919647217,-0.4343719184398651,1.2077685594558716
1761340687791672300,2.14867236328125,0.4086540937423706,-0.4523213505744934,1.2677807807922363
1761340687801739300,2.1587392578125,0.31841403245925903,-0.46294957399368286,1.2671449184417725
1761340687811806200,2.16880615234375,0.21908771991729736,-0.404392272233963,1.1372790336608887
1761340687821873200,2.178873046875,0.1278058886528015,-0.15132813155651093,0.8571548461914062
1761340687831940000,2.188940185546875,0.06974178552627563,0.3990468680858612,0.48726576566696167
1761340687842007000,2.199007080078125,-0.015532209537923336,1.3979201316833496,0.1816042810678482
1761340687852074200,2.20907421875,-0.1760111004114151,2.4736061096191406,-0.04583952575922012
1761340687862141200,2.21914111328125,-0.42599406838417053,2.961268663406372,-0.3224221169948578
1761340687872208100,2.2292080078125,-0.5626893043518066,1.7408689260482788,-1.100913643836975
1761340687882275000,2.239275146484375,-0.34493598341941833,-1.3951419591903687,-2.8022232055664062
1761340687892342000,2.249342041015625,0.2936735153198242,-4.5899882316589355,-4.828711032867432
1761340687902409000,2.259408935546875,1.2695139646530151,-6.340084075927734,-5.80405330657959
1761340687912476200,2.26947607421875,1.7505162954330444,-5.405322074890137,-4.540731906890869
1761340687922543000,2.279543212890625,1.6985597610473633,-3.1884191036224365,-1.5785564184188843
1761340687932610000,2.289610107421875,1.7817057371139526,-1.027055025100708,1.7783682346343994
1761340687942677200,2.29967724609375,1.6953020095825195,-0.04507753998041153,3.8282852172851562
1761340687952744200,2.309744140625,1.2606868743896484,0.39619332551956177,4.221152305603027
1761340687962811100,2.31981103515625,0.6800874471664429,0.6415557861328125,3.5427417755126953
1761340687972878300,2.32987841796875,0.07475869357585907,0.8957207202911377,2.5346996784210205
1761340687982945300,2.3399453125,-0.5752204656600952,1.1557345390319824,1.6568844318389893
1761340687993011200,2.35001123046875,-1.2107117176055908,1.4359595775604248,1.055655598640442
1761340688003078100,2.360078125,-1.7523916959762573,1.6837128400802612,0.6915488243103027
1761340688013145000,2.37014501953125,-2.105191946029663,1.781848430633545,0.508025586605072
1761340688023212300,2.38021240234375,-2.315429210662842,1.7776418924331665,0.4865334630012512
1761340688033279200,2.390279296875,-2.452979326248169,1.6053688526153564,0.5556486248970032
1761340688043346200,2.40034619140625,-2.5250885486602783,1.2575229406356812,0.6335901618003845
1761340688053413000,2.4104130859375,-2.4463846683502197,0.7749411463737488,0.6521720886230469
1761340688063480000,2.42047998046875,-2.1903023719787598,0.3288279175758362,0.565812349319458
1761340688073547000,2.430547119140625,-1.7799264192581177,0.08008921146392822,0.36525341868400574
1761340688083614200,2.4406142578125,-1.297087550163269,0.028920484706759453,0.08421193063259125
1761340688093681200,2.45068115234375,-0.8099778294563293,0.08458960801362991,-0.20356260240077972
1761340688103748000,2.460748046875,-0.36736083030700684,0.16052702069282532,-0.4744357764720917
1761340688113815000,2.47081494140625,-0.0007402338087558746,0.2133396416902542,-0.6928749084472656
1761340688123882000,2.480882080078125,0.29107174277305603,0.20024381577968597,-0.8350821137428284
1761340688133949000,2.490948974609375,0.48125073313713074,0.09873289614915848,-0.8865378499031067
1761340688144016400,2.501016357421875,0.5894365310668945,-0.08506274223327637,-0.8663280606269836
1761340688154083300,2.511083251953125,0.6259633898735046,-0.2575141489505768,-0.8195608258247375
1761340688164150300,2.521150390625,0.6240921020507812,-0.3599694073200226,-0.7909519076347351
1761340688174217200,2.53121728515625,0.61537104845047,-0.3990318477153778,-0.7807943224906921
1761340688184284200,2.5412841796875,0.6156692504882812,-0.3744983375072479,-0.7936840057373047
1761340688194350300,2.551350341796875,0.6395290493965149,-0.2680855989456177,-0.8194063901901245
1761340688204417300,2.561417236328125,0.6789103746414185,-0.11111213266849518,-0.8234273791313171
1761340688214484200,2.571484130859375,0.7387750148773193,0.01365190465003252,-0.760751485824585
1761340688224551200,2.58155126953125,0.7844669222831726,0.056095272302627563,-0.6242438554763794
1761340688234618000,2.5916181640625,0.7967427968978882,0.0677761659026146,-0.41756099462509155
1761340688244685000,2.60168505859375,0.7883386611938477,0.03335828334093094,-0.16242492198944092
1761340688254752300,2.611752197265625,0.7799361348152161,-0.030569296330213547,0.10959222167730331
1761340688264819200,2.621819091796875,0.7692206501960754,-0.10978665202856064,0.35570329427719116
1761340688274886100,2.63188623046875,0.7363577485084534,-0.0980820581316948,0.5533156991004944
1761340688284953000,2.641953125,0.6973847150802612,-0.003792732022702694,0.7045245170593262
1761340688295020000,2.65202001953125,0.6480507254600525,0.07873570173978806,0.8182372450828552
1761340688305087000,2.6620869140625,0.5883544683456421,0.11683671921491623,0.895792543888092
1761340688315154200,2.672154296875,0.5252436995506287,0.15251243114471436,0.9341335296630859
1761340688325221000,2.68222119140625,0.4644932150840759,0.17340023815631866,0.9338417649269104
1761340688335288000,2.6922880859375,0.4046168327331543,0.1664147675037384,0.9112771153450012
1761340688345355000,2.70235498046875,0.34465014934539795,0.1279469132423401,0.8676642179489136
1761340688355422200,2.712422119140625,0.2610436677932739,0.17373250424861908,0.7801130414009094
1761340688365489200,2.7224892578125,0.1590992659330368,0.3938671052455902,0.6711366176605225
1761340688375556400,2.732556396484375,0.08277840167284012,0.7226036787033081,0.47043442726135254
1761340688385623300,2.742623291015625,0.08711382746696472,1.1608872413635254,0.21102777123451233
1761340688395689200,2.752689208984375,0.23296663165092468,1.7085634469985962,-0.09189828485250473
1761340688405756200,2.762756103515625,0.5524449348449707,2.182626247406006,-0.3484668433666229
1761340688415823000,2.772822998046875,0.8192566633224487,1.6825731992721558,-0.8418984413146973
1761340688425890300,2.782890380859375,0.7186614871025085,-0.9972728490829468,-2.126328468322754
1761340688435957200,2.792957275390625,0.7227129340171814,-4.858375549316406,-4.001762390136719
1761340688446024200,2.803024169921875,1.3300843238830566,-7.254241943359375,-5.224776268005371
1761340688456091100,2.813091064453125,1.5073221921920776,-6.476075649261475,-4.646578788757324
1761340688466158000,2.823157958984375,0.8286512494087219,-3.5131731033325195,-2.4780640602111816
1761340688476225000,2.83322509765625,0.46344900131225586,-0.045775528997182846,0.08928234130144119
1761340688486292200,2.843292236328125,0.36594122648239136,2.3307974338531494,1.675197720527649
1761340688496359200,2.853359130859375,0.14698436856269836,3.364956855773926,1.9498690366744995
1761340688506426000,2.863426025390625,-0.0022652912884950638,3.7385404109954834,1.5617942810058594
1761340688516493000,2.8734931640625,-0.09338721632957458,3.6443159580230713,1.0928611755371094
1761340688526560000,2.88356005859375,-0.3219529688358307,3.2616360187530518,0.8509567975997925
1761340688536627000,2.893626953125,-0.7028430700302124,2.768026828765869,0.8537264466285706
1761340688546694100,2.903694091796875,-1.0880241394042969,2.2602345943450928,1.0069776773452759
1761340688556761300,2.91376123046875,-1.3214181661605835,1.7534725666046143,1.193250060081482
1761340688566828300,2.923828369140625,-1.3915033340454102,1.1448595523834229,1.3515948057174683
1761340688576895200,2.933895263671875,-1.285630464553833,0.4228726327419281,1.4285945892333984
1761340688586962200,2.943962158203125,-1.1672488451004028,-0.2402006834745407,1.3994547128677368
1761340688597028400,2.9540283203125,-1.1580479145050049,-0.7442145943641663,1.3005813360214233
1761340688607095300,2.96409521484375,-1.2962229251861572,-1.0259588956832886,1.1979066133499146
1761340688617162200,2.974162353515625,-1.4859111309051514,-1.059414029121399,1.0553592443466187
1761340688627228700,2.984228759765625,-1.6197700500488281,-0.6379605531692505,0.7158015966415405
1761340688637295600,2.994295654296875,-1.7106280326843262,0.03890768438577652,0.21065877377986908
1761340688647362800,3.00436279296875,-1.7631958723068237,0.6536349058151245,-0.3504299223423004
1761340688657429800,3.0144296875,-1.7509658336639404,1.0518107414245605,-0.8721154928207397
1761340688667496700,3.02449658203125,-1.7016087770462036,1.229260802268982,-1.3020662069320679
1761340688677563600,3.034563720703125,-1.6041373014450073,1.245828628540039,-1.5969274044036865
1761340688687630800,3.044630859375,-1.448701024055481,1.0843919515609741,-1.7446531057357788
1761340688697697800,3.05469775390625,-1.1988615989685059,0.8256751298904419,-1.7159950733184814
1761340688707764700,3.0647646484375,-0.895979106426239,0.5480821132659912,-1.5880943536758423
1761340688717832000,3.07483203125,-0.5585451126098633,0.29586347937583923,-1.388414740562439
1761340688727899000,3.08489892578125,-0.17428182065486908,0.09106911718845367,-1.1274231672286987
1761340688737965800,3.0949658203125,0.21591255068778992,-0.06672956794500351,-0.8131062388420105
1761340688748032800,3.10503271484375,0.5504313111305237,-0.17109882831573486,-0.44990232586860657
1761340688758099700,3.115099609375,0.815504252910614,-0.24665643274784088,-0.019311783835291862
1761340688768166700,3.125166748046875,1.0228303670883179,-0.3325287699699402,0.417915940284729
1761340688778233900,3.13523388671875,1.185424566268921,-0.40398937463760376,0.8067492246627808
1761340688788299800,3.1452998046875,1.3023942708969116,-0.4841247797012329,1.0899890661239624
1761340688798366700,3.15536669921875,1.3596210479736328,-0.5596330761909485,1.280187964439392
1761340688808433700,3.16543359375,1.3536375761032104,-0.6234281659126282,1.368868112564087
1761340688818500900,3.1755009765625,1.3407799005508423,-0.6430644392967224,1.3276503086090088
1761340688828567800,3.18556787109375,1.3064501285552979,-0.5731028318405151,1.1663460731506348
1761340688838634800,3.195634765625,1.2761931419372559,-0.4993050694465637,0.9389238357543945
1761340688848701700,3.20570166015625,1.2675549983978271,-0.4511069357395172,0.714527428150177
1761340688858768600,3.2157685546875,1.2484064102172852,-0.44248655438423157,0.5335283875465393
1761340688868835600,3.225835693359375,1.1915996074676514,-0.44563907384872437,0.3876614272594452
1761340688878902800,3.23590283203125,1.0874665975570679,-0.42743292450904846,0.2630145847797394
1761340688888969700,3.2459697265625,0.9398770928382874,-0.42650994658470154,0.16691365838050842
1761340688899037000,3.256036865234375,0.7686887979507446,-0.4340674579143524,0.08214525133371353
1761340688909103900,3.266103759765625,0.6222871541976929,-0.39066335558891296,-0.08097991347312927
1761340688919170800,3.2761708984375,0.46323809027671814,-0.1728156954050064,-0.351665198802948
1761340688929237800,3.28623779296875,0.24499137699604034,0.2890329658985138,-0.7203890085220337
1761340688939304700,3.2963046875,0.18206247687339783,0.6305580735206604,-1.1794888973236084
1761340688949372000,3.306371826171875,0.4049551486968994,0.8073953986167908,-1.5236090421676636
1761340688959438800,3.31643896484375,0.6804948449134827,0.7964867949485779,-1.4961038827896118
1761340688969504800,3.3265048828125,0.6650618314743042,0.6807846426963806,-0.9654181599617004
1761340688979571700,3.33657177734375,0.2871757745742798,-0.27103811502456665,-0.3799738585948944
1761340688989639000,3.346638916015625,-0.09586701542139053,-2.440370559692383,-0.5839359164237976
1761340688999705900,3.356705810546875,-0.0975932776927948,-4.249078750610352,-1.5104166269302368
1761340689009772800,3.366772705078125,0.15249402821063995,-4.754243850708008,-2.4819159507751465
1761340689019839700,3.37683984375,0.3768126368522644,-3.962932586669922,-2.7166197299957275
1761340689029906700,3.38690673828125,0.6136889457702637,-2.0516653060913086,-1.890364646911621
1761340689039973600,3.3969736328125,0.5723865032196045,-0.05687924474477768,-0.521342933177948
1761340689050040800,3.407040771484375,0.22105079889297485,1.0616419315338135,0.5463547110557556
1761340689060107800,3.417107666015625,-0.0981394350528717,1.3651820421218872,0.9390324354171753
1761340689070174700,3.4271748046875,-0.3228558897972107,1.2645113468170166,0.7766797542572021
1761340689080241700,3.43724169921875,-0.46485430002212524,1.1926730871200562,0.3992706835269928
1761340689090308600,3.44730859375,-0.6015670895576477,1.25795316696167,0.08363398909568787
1761340689100375800,3.457375732421875,-0.7977874279022217,1.3467762470245361,-0.0636657178401947
1761340689110442800,3.46744287109375,-1.036734938621521,1.3440440893173218,-0.02852768450975418
1761340689120510000,3.477510009765625,-1.2596590518951416,1.2416080236434937,0.140123650431633
1761340689130577000,3.487576904296875,-1.463075876235962,1.0490163564682007,0.39162275195121765
1761340689140643800,3.497643798828125,-1.6508185863494873,0.8157080411911011,0.6846423745155334
1761340689150710800,3.507710693359375,-1.7568482160568237,0.5991507172584534,0.9723267555236816
1761340689160777000,3.51777685546875,-1.7541230916976929,0.48185229301452637,1.2248023748397827
1761340689170844000,3.527843994140625,-1.6761202812194824,0.39588677883148193,1.4081978797912598
1761340689180910800,3.537910888671875,-1.5508191585540771,0.31374210119247437,1.5004082918167114
1761340689190977800,3.547977783203125,-1.3870551586151123,0.30274468660354614,1.5041706562042236
1761340689201044700,3.558044677734375,-1.2133253812789917,0.33874502778053284,1.3981437683105469
1761340689211111700,3.568111572265625,-1.070236325263977,0.3405718207359314,1.2099086046218872
1761340689221179000,3.578178955078125,-1.0029246807098389,0.11064621061086655,1.1320455074310303
1761340689231245800,3.588245849609375,-0.9732774496078491,-0.4261392056941986,1.1796724796295166
1761340689241312800,3.598312744140625,-0.9445643424987793,-1.0065568685531616,1.2593436241149902
1761340689251379700,3.608379638671875,-0.83113694190979,-1.3464893102645874,1.122177004814148
1761340689261446700,3.61844677734375,-0.6229051947593689,-1.2144948244094849,0.7712206244468689
1761340689271513600,3.628513671875,-0.4199521839618683,-0.8878391981124878,0.18840163946151733
1761340689281580800,3.638580810546875,-0.26311010122299194,-0.41201382875442505,-0.4787106215953827
1761340689291647700,3.648647705078125,-0.126496821641922,0.022182192653417587,-1.0323246717453003
1761340689301714700,3.658714599609375,-0.02105163037776947,0.3327437937259674,-1.3965177536010742
1761340689311782000,3.668781982421875,0.023130200803279877,0.4706999659538269,-1.5457149744033813
1761340689321848800,3.678848876953125,0.03000621497631073,0.4322737455368042,-1.489383578300476
1761340689331915800,3.688915771484375,0.02204730361700058,0.2615121304988861,-1.2816178798675537
1761340689341982000,3.69898193359375,0.021344762295484543,0.027205616235733032,-0.9817923307418823
1761340689352049000,3.709048828125,0.0496038943529129,-0.24105103313922882,-0.633228063583374
1761340689362115800,3.71911572265625,0.09413248300552368,-0.49397945404052734,-0.28269273042678833
1761340689372182800,3.729182861328125,0.1552354395389557,-0.6689683794975281,0.03756708651781082
1761340689382249700,3.739249755859375,0.22666461765766144,-0.7565410733222961,0.29328539967536926
1761340689392317000,3.74931689453125,0.31015026569366455,-0.7464634776115417,0.48395615816116333
1761340689402384000,3.7593837890625,0.38306599855422974,-0.6468018293380737,0.590904951095581
1761340689412450800,3.769450927734375,0.4394221305847168,-0.5093331933021545,0.6385675072669983
1761340689422517800,3.779517822265625,0.47943052649497986,-0.38912343978881836,0.6488643288612366
1761340689432584700,3.789584716796875,0.5184505581855774,-0.33944419026374817,0.6505202054977417
1761340689442651600,3.799651611328125,0.5321910977363586,-0.3528399169445038,0.6519231796264648
1761340689452718800,3.80971875,0.5180354714393616,-0.381197065114975,0.6442347168922424
1761340689462785800,3.819785888671875,0.47136780619621277,-0.3484042286872864,0.6197160482406616
1761340689472852700,3.829852783203125,0.39981746673583984,-0.21664465963840485,0.5302858352661133
1761340689482919700,3.839919677734375,0.30453595519065857,0.12546314299106598,0.35908180475234985
1761340689492986600,3.849986572265625,0.1694551706314087,0.6910263895988464,0.08411216735839844
1761340689503053600,3.860053466796875,0.01473882608115673,1.4437910318374634,-0.17725737392902374
1761340689513119700,3.87011962890625,-0.058713506907224655,2.1102771759033203,-0.39567485451698303
1761340689523186700,3.880186767578125,0.051995426416397095,2.4278109073638916,-0.47146281599998474
1761340689533253600,3.890253662109375,0.2757451832294464,1.8609251976013184,-0.44683414697647095
1761340689543320600,3.900320556640625,0.45876508951187134,-0.32415586709976196,-0.6682543754577637
1761340689553387800,3.9103876953125,0.7702881097793579,-3.686403274536133,-1.3128139972686768
1761340689563455000,3.920455078125,1.446531891822815,-6.281617641448975,-2.0341830253601074
1761340689573522000,3.93052197265625,2.0736289024353027,-6.7491559982299805,-2.240335702896118
1761340689583588900,3.9405888671875,2.0097532272338867,-4.94841194152832,-1.4675918817520142
1761340689593655800,3.95065576171875,1.5895441770553589,-1.9444572925567627,0.035647422075271606
1761340689603722800,3.96072265625,1.076907992362976,0.8986436724662781,1.3845473527908325
1761340689613789700,3.970789794921875,0.5493863224983215,2.5156712532043457,1.9870824813842773
1761340689623857000,3.98085693359375,0.14068429172039032,3.138068437576294,1.9928449392318726
1761340689633924000,3.990924072265625,-0.13426382839679718,3.061624050140381,1.722965955734253
1761340689643991000,4.000990966796875,-0.35316288471221924,2.561020851135254,1.4136946201324463
1761340689654058000,4.01105810546875,-0.5723584890365601,1.802341341972351,1.174311876296997
1761340689664125000,4.021125,-0.6871867775917053,0.9839260578155518,1.0539116859436035
1761340689674192000,4.03119189453125,-0.6681262850761414,0.3050049841403961,1.026404857635498
1761340689684258800,4.0412587890625,-0.6201116442680359,-0.07692238688468933,1.0103148221969604
1761340689694325000,4.051324951171875,-0.6610364317893982,-0.19248121976852417,0.9506101608276367
1761340689704392000,4.061391845703125,-0.8203597664833069,-0.16157390177249908,0.8198161721229553
1761340689714459000,4.071458984375,-1.060468316078186,-0.018655160441994667,0.6292345523834229
1761340689724525800,4.08152587890625,-1.296897292137146,0.18513791263103485,0.38006678223609924
1761340689734593000,4.091593017578125,-1.4827805757522583,0.41190770268440247,0.059232790023088455
1761340689744660200,4.10166015625,-1.5826683044433594,0.6769151091575623,-0.2862444221973419
1761340689754727200,4.11172705078125,-1.577227234840393,0.887398362159729,-0.6081295013427734
1761340689764794000,4.121794189453125,-1.489371418952942,0.973164439201355,-0.8472284078598022
1761340689774861000,4.131861083984375,-1.3429713249206543,0.9208918809890747,-1.0024725198745728
1761340689784928000,4.141927978515625,-1.1496937274932861,0.753199577331543,-1.0678163766860962
1761340689794995000,4.151994873046875,-0.9128542542457581,0.4992198050022125,-1.0936458110809326
1761340689805062100,4.162062255859375,-0.6174671053886414,0.29130151867866516,-0.9902473092079163
1761340689815129000,4.172129150390625,-0.33079567551612854,0.13299018144607544,-0.8609365820884705
1761340689825196000,4.182196044921875,-0.08595584332942963,0.01958293840289116,-0.6880561113357544
1761340689835263000,4.192262939453125,0.11560320854187012,-0.08754777163267136,-0.5027698874473572
1761340689845330000,4.202329833984375,0.2702851891517639,-0.2231828272342682,-0.3037002384662628
1761340689855396900,4.21239697265625,0.3582191467285156,-0.36573928594589233,-0.11274140328168869
1761340689865463000,4.222463134765625,0.39421388506889343,-0.526781439781189,0.03260488063097
1761340689875530000,4.232530029296875,0.3734854757785797,-0.6384526491165161,0.12748649716377258
1761340689885597000,4.242596923828125,0.33017289638519287,-0.6147904396057129,0.1717415750026703
1761340689895663900,4.252663818359375,0.27583011984825134,-0.4612453877925873,0.1642729938030243
1761340689905731000,4.26273095703125,0.24462001025676727,-0.27414074540138245,0.10933410376310349
1761340689915798000,4.272798095703125,0.2796206474304199,-0.06341367214918137,0.010989276692271233
1761340689925865000,4.282864990234375,0.38790929317474365,0.11348546296358109,-0.06823630630970001
1761340689935932000,4.292931884765625,0.5140883922576904,0.15932318568229675,-0.08897402137517929
1761340689945998800,4.302998779296875,0.6117757558822632,0.04362481087446213,-0.041074931621551514
1761340689956066000,4.313066162109375,0.6798167824745178,-0.16743215918540955,0.06462514400482178
1761340689966133000,4.323133056640625,0.7310525178909302,-0.37122124433517456,0.20683956146240234
1761340689976200200,4.3332001953125,0.7553410530090332,-0.500510573387146,0.3541513979434967
1761340689986267100,4.34326708984375,0.7485768795013428,-0.5754684209823608,0.48596641421318054
1761340689996334000,4.353333984375,0.7108279466629028,-0.5944267511367798,0.5869860649108887
1761340690006401000,4.363401123046875,0.6714019775390625,-0.5401573777198792,0.6787573099136353
1761340690016468000,4.373468017578125,0.5919456481933594,-0.4214558005332947,0.7471848726272583
1761340690026534100,4.3835341796875,0.4647791385650635,-0.23138973116874695,0.7708917856216431
1761340690036601000,4.39360107421875,0.3093019127845764,0.04361293464899063,0.7480618357658386
1761340690046668000,4.40366796875,0.12896890938282013,0.3828890025615692,0.6649323105812073
1761340690056735000,4.41373486328125,-0.07265448570251465,0.7735104560852051,0.5162336826324463
1761340690066802000,4.423802001953125,-0.2990495562553406,1.1980987787246704,0.2285313457250595
1761340690076870000,4.433869873046875,-0.5198640823364258,1.6426873207092285,-0.30806228518486023
1761340690086936800,4.443936767578125,-0.6036263704299927,1.593101143836975,-1.2614898681640625
1761340690097004000,4.454004150390625,-0.48325908184051514,0.17188921570777893,-2.8712658882141113
1761340690107071000,4.464071044921875,0.001464987639337778,-2.5868537425994873,-4.879873752593994
1761340690117138000,4.474137939453125,1.0774651765823364,-5.476235866546631,-6.01934289932251
1761340690127205000,4.484205078125,1.8983392715454102,-5.894314289093018,-4.9191060066223145
1761340690137272000,4.49427197265625,1.5837202072143555,-3.927320957183838,-1.991166114807129
1761340690147339000,4.504339111328125,1.2757482528686523,-1.5579358339309692,1.392709493637085
1761340690157406200,4.51440625,1.2912359237670898,-0.0031359530985355377,3.5960452556610107
1761340690167472000,4.52447216796875,1.0168150663375854,0.7544950246810913,3.9737982749938965
1761340690177539000,4.5345390625,0.6841926574707031,1.241608738899231,3.11153507232666
1761340690187606000,4.54460595703125,0.437341570854187,1.77974271774292,1.9319651126861572
1761340690197673000,4.5546728515625,0.08673421293497086,2.2377827167510986,1.0685174465179443
1761340690207740200,4.564740234375,-0.4131280779838562,2.485074520111084,0.7066411375999451
1761340690217807000,4.57480712890625,-0.9364184141159058,2.51585054397583,0.7502308487892151
1761340690227874000,4.5848740234375,-1.3716336488723755,2.3657922744750977,1.029593825340271
1761340690237941000,4.59494091796875,-1.721719741821289,2.013857841491699,1.4005377292633057
1761340690248008000,4.605008056640625,-2.033756971359253,1.4260940551757812,1.7852859497070312
1761340690258075000,4.615074951171875,-2.2770447731018066,0.702292799949646,2.04978084564209
1761340690268142000,4.62514208984375,-2.3641469478607178,-0.011835979297757149,2.102447271347046
1761340690278209000,4.635208984375,-2.2492105960845947,-0.526738703250885,1.8612310886383057
1761340690288276000,4.64527587890625,-1.9530895948410034,-0.747445285320282,1.312111496925354
1761340690298343000,4.655343017578125,-1.5120645761489868,-0.5933935046195984,0.5605961680412292
1761340690308409900,4.665409912109375,-1.0918339490890503,-0.29836663603782654,-0.23793165385723114
1761340690318476800,4.675476806640625,-0.825829029083252,-0.13429610431194305,-0.8693178296089172
1761340690328543000,4.68554296875,-0.6929002404212952,-0.20075634121894836,-1.2371739149093628
1761340690338610000,4.69560986328125,-0.6392300724983215,-0.41260096430778503,-1.360164999961853
1761340690348676900,4.7056767578125,-0.592422366142273,-0.6568482518196106,-1.3321925401687622
1761340690358743800,4.715743896484375,-0.5318403244018555,-0.7993083596229553,-1.2713855504989624
1761340690368811000,4.72581103515625,-0.45390161871910095,-0.7606858611106873,-1.2429065704345703
1761340690378878200,4.735878173828125,-0.3837456703186035,-0.5713750123977661,-1.248884916305542
1761340690388945200,4.745945068359375,-0.33437812328338623,-0.29947876930236816,-1.2637975215911865
1761340690399012000,4.75601220703125,-0.29224488139152527,-0.03506487235426903,-1.2399271726608276
1761340690409079000,4.7660791015625,-0.23187288641929626,0.1650381237268448,-1.1587889194488525
1761340690419146000,4.77614599609375,-0.1511363387107849,0.27108705043792725,-1.0229946374893188
1761340690429213000,4.786212890625,-0.08568328619003296,0.3352428674697876,-0.854045569896698
1761340690439280000,4.796280029296875,-0.026260513812303543,0.3645322322845459,-0.6818065643310547
1761340690449347000,4.80634716796875,0.03271279111504555,0.33210423588752747,-0.5159699320793152
1761340690459414000,4.8164140625,0.10689686238765717,0.25612276792526245,-0.38337814807891846
1761340690469481000,4.82648095703125,0.20630361139774323,0.16954472661018372,-0.26514044404029846
1761340690479548000,4.8365478515625,0.3231452703475952,0.07029245048761368,-0.1620596945285797
1761340690489614800,4.84661474609375,0.4572135806083679,-0.020113345235586166,-0.04639727622270584
1761340690499681000,4.856680908203125,0.5832990407943726,-0.08366197347640991,0.08470167964696884
1761340690509748000,4.866748046875,0.6873740553855896,-0.0907803326845169,0.23063331842422485
1761340690519815000,4.87681494140625,0.7569013833999634,-0.09156666696071625,0.37211546301841736
1761340690529881900,4.8868818359375,0.7995356321334839,-0.14384825527668,0.5178995728492737
1761340690539949000,4.896948974609375,0.8416953086853027,-0.2198459953069687,0.6613848209381104
1761340690550016000,4.90701611328125,0.8832427859306335,-0.3033488690853119,0.8003876805305481
1761340690560083000,4.9170830078125,0.9185530543327332,-0.3790431022644043,0.9214552044868469
1761340690570150100,4.927150146484375,0.9461522102355957,-0.45097827911376953,1.0094470977783203
1761340690580217000,4.937217041015625,0.943555474281311,-0.5079774856567383,1.0661784410476685
1761340690590284000,4.947283935546875,0.8947408199310303,-0.49324220418930054,1.0838671922683716
1761340690600351000,4.95735107421875,0.8203199505805969,-0.3989352881908417,1.0222117900848389
1761340690610418200,4.967418212890625,0.711525022983551,-0.07005433738231659,0.8905994296073914
1761340690620485000,4.977485107421875,0.5880542993545532,0.5001701712608337,0.6945897340774536
1761340690630551600,4.987551513671875,0.463367760181427,1.2231253385543823,0.36133694648742676
1761340690640618500,4.997618408203125,0.33933934569358826,2.0310964584350586,-0.1828683614730835
1761340690650685400,5.007685546875,0.31339454650878906,2.5846214294433594,-1.0368479490280151
1761340690660751600,5.017751708984375,0.3524385094642639,2.272813558578491,-2.2040812969207764
1761340690670818600,5.027818603515625,0.31847575306892395,-0.1842709481716156,-3.7877919673919678
1761340690680885500,5.037885498046875,0.48548850417137146,-4.528374195098877,-5.508640289306641
1761340690690952400,5.047952392578125,1.2175472974777222,-8.198874473571777,-6.1854753494262695
1761340690701019600,5.05801953125,1.614222526550293,-7.529941558837891,-4.688290596008301
1761340690711086600,5.068086669921875,1.2478692531585693,-4.581699371337891,-1.7707301378250122
1761340690721153500,5.078153564453125,1.0377229452133179,-1.3108075857162476,1.2532821893692017
1761340690731220500,5.088220458984375,0.9716436862945557,0.6738932132720947,2.798196315765381
1761340690741287400,5.098287353515625,0.7951902151107788,1.5637394189834595,2.890758514404297
1761340690751354400,5.108354248046875,0.7261645197868347,2.0237553119659424,2.471374273300171
1761340690761421600,5.118421630859375,0.5958754420280457,2.205350399017334,2.0188117027282715
1761340690771488800,5.12848876953125,0.25038567185401917,2.159355640411377,1.6960420608520508
1761340690781555700,5.1385556640625,-0.20601403713226318,2.0230605602264404,1.5505011081695557
1761340690791622700,5.14862255859375,-0.6899823546409607,1.8547415733337402,1.5258787870407104
1761340690801689600,5.158689697265625,-1.0967899560928345,1.6240947246551514,1.5413419008255005
1761340690811755800,5.168755859375,-1.3937276601791382,1.2940139770507812,1.5212541818618774
1761340690821822700,5.17882275390625,-1.5246433019638062,0.8067609667778015,1.4234243631362915
1761340690831889700,5.1888896484375,-1.5127800703048706,0.2945384085178375,1.2084119319915771
1761340690841956600,5.19895654296875,-1.3920916318893433,-0.11896563321352005,0.8730775117874146
1761340690852023600,5.2090234375,-1.193962574005127,-0.3854205012321472,0.4338018596172333
1761340690862090500,5.219090576171875,-0.9773877859115601,-0.4149986207485199,-0.07992440462112427
1761340690872157700,5.22915771484375,-0.7790443301200867,-0.22504384815692902,-0.632244348526001
1761340690882224600,5.239224609375,-0.672981321811676,-0.05472823977470398,-1.1249316930770874
1761340690892291600,5.24929150390625,-0.4382476806640625,-0.13402704894542694,-1.2796176671981812
1761340690902358500,5.259358642578125,-0.09931100904941559,-0.5379887223243713,-1.0397238731384277
1761340690912425500,5.269425537109375,0.11301882565021515,-1.0178487300872803,-0.6089537739753723
1761340690922492400,5.279492431640625,0.13447409868240356,-1.245848298072815,-0.2785208225250244
1761340690932559600,5.2895595703125,0.0006236196495592594,-1.1104052066802979,-0.2166537493467331
1761340690942626600,5.29962646484375,-0.16838301718235016,-0.7378911375999451,-0.3650333881378174
1761340690952693500,5.309693603515625,-0.3161011040210724,-0.35104307532310486,-0.6346387267112732
1761340690962759400,5.319759521484375,-0.45721155405044556,-0.012731322087347507,-0.962744951248169
1761340690972826400,5.329826416015625,-0.5704049468040466,0.280361533164978,-1.2438584566116333
1761340690982893600,5.3398935546875,-0.6531010270118713,0.44860324263572693,-1.4293115139007568
1761340690992960500,5.34996044921875,-0.7050848603248596,0.5182795524597168,-1.5328373908996582
1761340691003027700,5.36002783203125,-0.7257452607154846,0.5043435096740723,-1.5565986633300781
1761340691013094700,5.3700947265625,-0.7082469463348389,0.454537570476532,-1.5211162567138672
1761340691023161600,5.38016162109375,-0.6588196158409119,0.46795156598091125,-1.4119960069656372
1761340691033228500,5.390228515625,-0.5508998036384583,0.48857906460762024,-1.2262355089187622
1761340691043295700,5.400295654296875,-0.3769214153289795,0.4546124041080475,-0.9641955494880676
1761340691053362700,5.41036279296875,-0.16287517547607422,0.364646852016449,-0.6260457038879395
1761340691063429600,5.4204296875,0.07136663794517517,0.2351461797952652,-0.2679152190685272
1761340691073496600,5.43049658203125,0.27692538499832153,0.07053060829639435,0.09531250596046448
1761340691083563500,5.4405634765625,0.44678401947021484,-0.08793236315250397,0.45761629939079285
1761340691093630500,5.45063037109375,0.5802784562110901,-0.23110896348953247,0.8022841811180115
1761340691103697700,5.46069775390625,0.6711468696594238,-0.3734408915042877,1.0959287881851196
1761340691113763600,5.470763671875,0.7238657474517822,-0.4653702676296234,1.320803165435791
1761340691123830500,5.48083056640625,0.7414872050285339,-0.4836089313030243,1.4967457056045532
1761340691133897500,5.4908974609375,0.7363885641098022,-0.45032259821891785,1.6257423162460327
1761340691143964400,5.50096435546875,0.7251944541931152,-0.3765849173069,1.7133002281188965
1761340691154031600,5.511031494140625,0.7053994536399841,-0.2550017535686493,1.7345980405807495
1761340691164098600,5.5210986328125,0.6570556163787842,-0.009693920612335205,1.6762713193893433
1761340691174165500,5.53116552734375,0.5623789429664612,0.37006884813308716,1.5173383951187134
1761340691184232400,5.541232421875,0.43762531876564026,0.8517972230911255,1.263767957687378
1761340691194299400,5.55129931640625,0.2569362223148346,1.428651213645935,0.8833644986152649
1761340691204366600,5.56136669921875,-0.005231685470789671,2.1422300338745117,0.373302161693573
1761340691214433800,5.571433837890625,-0.2505325376987457,2.8812105655670166,-0.3636581599712372
1761340691224500700,5.581500732421875,-0.43193429708480835,2.931518793106079,-1.5891727209091187
1761340691234567700,5.591567626953125,-0.5083321332931519,1.029295802116394,-3.552851915359497
1761340691244634600,5.601634521484375,0.039056602865457535,-2.3922219276428223,-5.777071952819824
1761340691254701600,5.61170166015625,1.4028267860412598,-5.275698184967041,-6.650998592376709
1761340691264767700,5.621767822265625,2.304267168045044,-5.35536527633667,-4.829154968261719
1761340691274834700,5.631834716796875,2.360301971435547,-3.500476598739624,-1.1089383363723755
1761340691284901600,5.641901611328125,2.597165822982788,-1.1871670484542847,2.7384514808654785
1761340691294968600,5.651968505859375,2.6281235218048096,0.15560680627822876,4.800910472869873
1761340691305035500,5.662035400390625,2.4474618434906006,0.8442392945289612,5.030879020690918
1761340691315102500,5.6721025390625,2.275038242340088,1.3381046056747437,4.270427227020264
1761340691325169700,5.682169677734375,1.9096734523773193,1.6068817377090454,3.320185661315918
1761340691335236600,5.692236572265625,1.2271393537521362,1.715755820274353,2.6414737701416016
1761340691345303600,5.702303466796875,0.2726518511772156,1.6006836891174316,2.2610621452331543
1761340691355370500,5.71237060546875,-0.7525929808616638,1.3292542695999146,1.9941134452819824
1761340691365437400,5.7224375,-1.617880940437317,1.1476194858551025,1.7062896490097046
1761340691375504400,5.73250439453125,-2.295454502105713,1.0424236059188843,1.339670181274414
1761340691385571600,5.742571533203125,-2.746051549911499,0.8875747919082642,0.8910019397735596
1761340691395638500,5.752638427734375,-2.9406216144561768,0.7555168867111206,0.36011701822280884
1761340691405705500,5.76270556640625,-2.868272542953491,0.787248969078064,-0.1819523572921753
1761340691415771400,5.772771484375,-2.563190221786499,0.9552648663520813,-0.6821675300598145
1761340691425838600,5.782838623046875,-2.150933265686035,1.0822831392288208,-1.0463215112686157
1761340691435905500,5.792905517578125,-1.7179133892059326,0.9574876427650452,-1.194756269454956
1761340691445972700,5.80297265625,-1.287571907043457,0.5941157937049866,-1.1225119829177856
1761340691456039700,5.813039794921875,-0.8835964202880859,0.1257009208202362,-0.9174342155456543
1761340691466106600,5.823106689453125,-0.5354123115539551,-0.3137471079826355,-0.6569175124168396
1761340691476173600,5.833173583984375,-0.2792271375656128,-0.6453015804290771,-0.4242568612098694
1761340691486240500,5.843240478515625,-0.12066873908042908,-0.8110079169273376,-0.22992295026779175
1761340691496307700,5.8533076171875,-0.039908383041620255,-0.8559040427207947,-0.09714467078447342
1761340691506374700,5.863374755859375,-0.01380936335772276,-0.8345849514007568,-0.01594148576259613
1761340691516441600,5.873441650390625,-0.01895991712808609,-0.8105049133300781,-0.026490267366170883
1761340691526508500,5.883508544921875,-0.039215944707393646,-0.6804170608520508,-0.14292074739933014
1761340691536575500,5.893575439453125,-0.07888825237751007,-0.37184539437294006,-0.31691253185272217
1761340691546642400,5.903642333984375,-0.14392338693141937,-0.023928435519337654,-0.4947260618209839
1761340691556708600,5.91370849609375,-0.2170625776052475,0.24010080099105835,-0.6481620073318481
1761340691566775600,5.923775634765625,-0.2350085824728012,0.4822041988372803,-0.7641561031341553
1761340691576842500,5.933842529296875,-0.17971497774124146,0.7073507905006409,-0.8158435225486755
1761340691586909400,5.943909423828125,-0.07782529294490814,0.825666069984436,-0.7639055848121643
1761340691596976600,5.9539765625,0.04099217802286148,0.7813760638237,-0.5857568979263306
1761340691607043600,5.964043701171875,0.16919644176959991,0.5841171741485596,-0.31644925475120544
1761340691617110500,5.974110595703125,0.3015739321708679,0.300952285528183,-0.00993327610194683
1761340691627178000,5.984177978515625,0.43011295795440674,0.0000644531100988388,0.28215545415878296
1761340691637245000,5.994244873046875,0.5682660937309265,-0.2511259615421295,0.5281558632850647
1761340691647312000,6.004311767578125,0.7120409607887268,-0.3752340078353882,0.7168569564819336
1761340691657378800,6.01437890625,0.8552995324134827,-0.3978455662727356,0.8514052033424377
1761340691667446000,6.024446044921875,0.9677959680557251,-0.3951360583305359,0.9553871750831604
1761340691677513200,6.03451318359375,1.0379364490509033,-0.38468819856643677,1.0538614988327026
1761340691687580200,6.044580078125,1.0768072605133057,-0.3944924771785736,1.1305584907531738
1761340691697646000,6.05464599609375,1.059220552444458,-0.4280259311199188,1.2127599716186523
1761340691707713000,6.064713134765625,0.9802045226097107,-0.48982900381088257,1.287387490272522
1761340691717780200,6.0747802734375,0.8780893087387085,-0.545684814453125,1.3280638456344604
1761340691727847200,6.08484716796875,0.7753475308418274,-0.524413526058197,1.3014723062515259
1761340691737914000,6.0949140625,0.6635869145393372,-0.42914479970932007,1.2301485538482666
1761340691747981000,6.10498095703125,0.5337583422660828,-0.19262325763702393,1.1036901473999023
1761340691758048000,6.115048095703125,0.389211505651474,0.23936942219734192,0.9093422293663025
1761340691768115000,6.125114990234375,0.24761025607585907,0.8958257436752319,0.5983389616012573
1761340691778182100,6.13518212890625,0.15994538366794586,1.9124499559402466,0.16671673953533173
1761340691788249000,6.1452490234375,0.16142410039901733,3.0135529041290283,-0.3327259123325348
1761340691798316000,6.15531591796875,0.09853754192590714,3.5657968521118164,-1.08687162399292
1761340691808383000,6.165383056640625,-0.1651100069284439,1.9426476955413818,-2.5779056549072266
1761340691818450000,6.175449951171875,-0.321472704410553,-2.215041399002075,-5.159660339355469
1761340691828516900,6.185516845703125,0.423795610666275,-6.259011745452881,-7.567790508270264
1761340691838584000,6.195583984375,1.6854221820831299,-7.878627777099609,-7.199159145355225
1761340691848650000,6.20564990234375,1.5336804389953613,-5.586056709289551,-3.3566067218780518
1761340691858717000,6.215717041015625,1.3359482288360596,-2.3510055541992188,1.1333385705947876
1761340691868783900,6.225783935546875,1.4805042743682861,0.09298176318407059,3.9621353149414062
1761340691878850800,6.235850830078125,1.1871240139007568,1.3568570613861084,4.466308116912842
1761340691888918000,6.24591796875,0.8787250518798828,2.231973171234131,3.572446823120117
1761340691898985000,6.25598486328125,0.6028444766998291,2.798959493637085,2.4040560722351074
1761340691909052200,6.26605224609375,0.11942805349826813,2.9675416946411133,1.6220386028289795
1761340691919119000,6.276119140625,-0.5420758724212646,2.7593934535980225,1.3527493476867676
1761340691929186000,6.28618603515625,-1.1565910577774048,2.34515643119812,1.384186863899231
1761340691939253000,6.2962529296875,-1.6025439500808716,1.813329815864563,1.5108593702316284
1761340691949320200,6.3063203125,-1.895827293395996,1.2686660289764404,1.6201136112213135
1761340691959387100,6.31638720703125,-2.055427312850952,0.698992133140564,1.653674602508545
1761340691969454000,6.3264541015625,-2.095109224319458,0.16273367404937744,1.5730942487716675
1761340691979521000,6.33652099609375,-2.01210618019104,-0.20728592574596405,1.364127516746521
1761340691989587000,6.3465869140625,-1.8368743658065796,-0.38363611698150635,1.026868462562561
1761340691999654100,6.356654052734375,-1.63437020778656,-0.35150638222694397,0.5936784148216248
1761340692009721000,6.36672119140625,-1.444828748703003,-0.17679813504219055,0.13472796976566315
1761340692019788000,6.3767880859375,-1.2550619840621948,-0.01846522092819214,-0.2895418107509613
1761340692029855000,6.38685498046875,-1.0842643976211548,0.054833751171827316,-0.6169800162315369
1761340692039922000,6.396921875,-0.9233275055885315,0.08474770933389664,-0.8319512009620667
1761340692049988900,6.40698876953125,-0.8143351078033447,0.07932586967945099,-0.9546575546264648
1761340692060056000,6.41705615234375,-0.742063581943512,0.06292372941970825,-1.0041295289993286
1761340692070123000,6.427123046875,-0.681248128414154,0.0428570881485939,-1.000417709350586
1761340692080190000,6.43718994140625,-0.633820652961731,0.035045236349105835,-0.9545873403549194
1761340692090257000,6.4472568359375,-0.5908608436584473,0.03479151427745819,-0.8771979808807373
1761340692100323800,6.45732373046875,-0.5339927673339844,0.04440179467201233,-0.761701762676239
1761340692110391000,6.46739111328125,-0.4605238735675812,0.02495371177792549,-0.6304757595062256
1761340692120458200,6.477458251953125,-0.3791576623916626,0.012064812704920769,-0.4800055921077728
1761340692130524000,6.48752392578125,-0.30509552359580994,-0.004917901940643787,-0.30000409483909607
1761340692140590800,6.4975908203125,-0.2157195806503296,-0.06424407660961151,-0.11856240034103394
1761340692150658000,6.507657958984375,-0.10983697324991226,-0.10745562613010406,0.03419259935617447
1761340692160725000,6.51772509765625,0.022154616191983223,-0.07057484239339828,0.12678219377994537
1761340692170792200,6.527792236328125,0.16779814660549164,0.016810674220323563,0.18031753599643707
1761340692180859100,6.537859130859375,0.31448131799697876,0.0808945894241333,0.23442071676254272
1761340692190926000,6.547926025390625,0.43319499492645264,0.08124236762523651,0.30714520812034607
1761340692200993000,6.557992919921875,0.527450680732727,0.0007935985922813416,0.38298776745796204
1761340692211060000,6.56806005859375,0.6095779538154602,-0.12929001450538635,0.47998663783073425
1761340692221127000,6.578126953125,0.6858961582183838,-0.26281610131263733,0.5861945748329163
1761340692231194000,6.588194091796875,0.7355439066886902,-0.37713220715522766,0.6887344121932983
1761340692241261000,6.598260986328125,0.7652038335800171,-0.4168418049812317,0.764209508895874
1761340692251328000,6.608327880859375,0.775130033493042,-0.3974687159061432,0.8255442380905151
1761340692261394000,6.618393798828125,0.7580328583717346,-0.4143497049808502,0.8820778131484985
1761340692271461000,6.628461181640625,0.7308236956596375,-0.48841193318367004,0.9392044544219971
1761340692281528000,6.638528076171875,0.686998188495636,-0.5105803608894348,0.965058445930481
1761340692291595000,6.648594970703125,0.6249403357505798,-0.4413241446018219,0.9444518089294434
1761340692301662000,6.658661865234375,0.5360751748085022,-0.3085346817970276,0.8849722146987915
1761340692311729000,6.66872900390625,0.41868269443511963,-0.12170399725437164,0.8021433353424072
1761340692321795800,6.6787958984375,0.2931942939758301,0.15502959489822388,0.6894985437393188
1761340692331863000,6.688863037109375,0.16189107298851013,0.5313414335250854,0.5183833837509155
1761340692341930000,6.698929931640625,0.06296822428703308,1.1209794282913208,0.2368483990430832
1761340692351997200,6.7089970703125,0.12359381467103958,1.6383103132247925,-0.27078184485435486
1761340692362064100,6.719064208984375,0.30157554149627686,1.7075961828231812,-1.1365413665771484
1761340692372131000,6.729131103515625,0.21742814779281616,0.29358339309692383,-2.589082956314087
1761340692382198000,6.739197998046875,0.3402440547943115,-2.779245615005493,-4.610631942749023
1761340692392264200,6.74926416015625,1.3900150060653687,-5.495671272277832,-6.03185510635376
1761340692402331100,6.7593310546875,2.297516345977783,-5.829264163970947,-5.31805944442749
1761340692412398000,6.769398193359375,2.1836726665496826,-4.647105693817139,-2.6474146842956543
1761340692422465000,6.779465087890625,2.365083694458008,-2.747596025466919,0.8997980952262878
1761340692432532000,6.789531982421875,2.7350828647613525,-0.9830467700958252,3.625286102294922
1761340692442599200,6.79959912109375,2.6152737140655518,0.22141021490097046,4.564957618713379
1761340692452666000,6.809666015625,2.2540743350982666,1.1433885097503662,4.25438117980957
1761340692462733000,6.819733154296875,1.7338758707046509,1.74411940574646,3.4129366874694824
1761340692472800000,6.829800048828125,0.9836862087249756,1.89187753200531,2.5795793533325195
1761340692482867000,6.839866943359375,0.11792340874671936,1.571815848350525,1.9941614866256714
1761340692492934000,6.849933837890625,-0.6774768233299255,1.0573666095733643,1.606263279914856
1761340692503001000,6.8600009765625,-1.2650450468063354,0.7015684843063354,1.2973898649215698
1761340692513068000,6.870068115234375,-1.6361398696899414,0.35634708404541016,1.0198100805282593
1761340692523135000,6.880135009765625,-1.8825277090072632,-0.009400538168847561,0.6839948296546936
1761340692533201000,6.890200927734375,-2.0503132343292236,-0.14635919034481049,0.33701983094215393
1761340692543267800,6.900267822265625,-2.1525168418884277,-0.032917581498622894,-0.09516273438930511
1761340692553335000,6.9103349609375,-2.208333730697632,0.15731404721736908,-0.5713779330253601
1761340692563402000,6.920402099609375,-2.2167725563049316,0.38802316784858704,-0.9500482678413391
1761340692573469000,6.930468994140625,-2.165269136428833,0.49369004368782043,-1.2290229797363281
1761340692583535900,6.940535888671875,-2.094078302383423,0.5016329288482666,-1.3698946237564087
1761340692593603000,6.95060302734375,-2.0535948276519775,0.40502309799194336,-1.4007152318954468
1761340692603670000,6.960669921875,-2.0333778858184814,0.21916748583316803,-1.3566402196884155
1761340692613737200,6.9707373046875,-2.0218186378479004,-0.0354461632668972,-1.2593159675598145
1761340692623804200,6.98080419921875,-1.9899781942367554,-0.34270918369293213,-1.1248787641525269
1761340692633870800,6.990870849609375,-1.88006591796875,-0.628704309463501,-0.9959196448326111
1761340692643937800,7.000937744140625,-1.6761494874954224,-0.6865566968917847,-0.9694454073905945
1761340692654004700,7.011004638671875,-1.4152581691741943,-0.5872702598571777,-1.0579657554626465
1761340692664071000,7.02107080078125,-1.1127755641937256,-0.41661199927330017,-1.1840029954910278
1761340692674137900,7.031137939453125,-0.794437825679779,-0.2738645076751709,-1.290546178817749
1761340692684204800,7.041204833984375,-0.49703994393348694,-0.19966617226600647,-1.3662526607513428
1761340692694271700,7.051271728515625,-0.28275981545448303,-0.18406341969966888,-1.38816499710083
1761340692704338700,7.061338623046875,-0.15824878215789795,-0.24453555047512054,-1.365004301071167
1761340692714406000,7.071406005859375,-0.09305299818515778,-0.37018856406211853,-1.294628620147705
1761340692724473000,7.08147314453125,-0.0842515155673027,-0.4853558838367462,-1.166256308555603
1761340692734540000,7.0915400390625,-0.11266394704580307,-0.5654997825622559,-0.9840324521064758
1761340692744607000,7.10160693359375,-0.1269960105419159,-0.5844601988792419,-0.7699267864227295
1761340692754674000,7.111673828125,-0.09496713429689407,-0.5148033499717712,-0.5510244965553284
1761340692764740900,7.121740966796875,-0.021452970802783966,-0.3499760627746582,-0.3477959930896759
1761340692774807800,7.131807861328125,0.10123209655284882,-0.1609155833721161,-0.1144186407327652
1761340692784875000,7.141875,0.24062833189964294,-0.08098107576370239,0.1047467291355133
1761340692794941000,7.15194091796875,0.3687838017940521,-0.08733279258012772,0.3168525993824005
1761340692805008000,7.1620078125,0.4468061625957489,-0.13592828810214996,0.5287914872169495
1761340692815074800,7.17207470703125,0.45973289012908936,-0.21970780193805695,0.7550134658813477
1761340692825142000,7.18214208984375,0.4379439651966095,-0.3430235981941223,0.9778153896331787
1761340692835209000,7.192208984375,0.3978288471698761,-0.48800456523895264,1.1841658353805542
1761340692845276000,7.20227587890625,0.3649579882621765,-0.6098982691764832,1.3531394004821777
1761340692855342800,7.2123427734375,0.36938613653182983,-0.6272361874580383,1.4526246786117554
1761340692865409800,7.222409912109375,0.3921803832054138,-0.4146547317504883,1.4981919527053833
1761340692875476700,7.232476806640625,0.43735605478286743,-0.08587116748094559,1.517246127128601
1761340692885544000,7.2425439453125,0.46105659008026123,0.2997193932533264,1.4763833284378052
1761340692895611000,7.25261083984375,0.44334307312965393,0.6961771249771118,1.3203847408294678
1761340692905677800,7.262677734375,0.356896311044693,1.1716786623001099,0.9373417496681213
1761340692915744800,7.272744873046875,0.2297554612159729,1.750880479812622,0.2624571919441223
1761340692925810700,7.282810791015625,0.17456065118312836,1.3259737491607666,-0.8024322986602783
1761340692935878000,7.2928779296875,0.41086605191230774,-1.7042551040649414,-2.2991676330566406
1761340692945944800,7.30294482421875,1.3693835735321045,-5.950076103210449,-3.473618745803833
1761340692956012000,7.313011962890625,2.5874316692352295,-7.857542991638184,-3.3010330200195312
1761340692966079000,7.323078857421875,2.735666513442993,-6.4072489738464355,-1.6384307146072388
1761340692976146000,7.33314599609375,2.0556442737579346,-3.5158638954162598,0.7374275922775269
1761340692986212900,7.343212890625,1.5508116483688354,-0.4864239990711212,2.794588327407837
1761340692996280000,7.353280029296875,1.0882222652435303,1.5873663425445557,3.6051218509674072
1761340693006347000,7.363346923828125,0.5393317937850952,2.82798171043396,3.4123167991638184
1761340693016414000,7.3734140625,0.05874398723244667,3.3931753635406494,2.7802774906158447
1761340693026481000,7.38348095703125,-0.3808925151824951,3.2949070930480957,2.151588201522827
1761340693036547800,7.3935478515625,-0.8333218693733215,2.6254665851593018,1.7101720571517944
1761340693046614800,7.40361474609375,-1.251465082168579,1.646064281463623,1.4159384965896606
1761340693056681000,7.413680908203125,-1.4297692775726318,0.7655313014984131,1.1585396528244019
1761340693066748000,7.423747802734375,-1.3545241355895996,0.17509198188781738,0.8419961333274841
1761340693076814800,7.43381494140625,-1.2156333923339844,-0.18088530004024506,0.5022343993186951
1761340693086881800,7.4438818359375,-1.1484556198120117,-0.24699826538562775,0.16099555790424347
1761340693096948700,7.45394873046875,-1.160601019859314,-0.04910675808787346,-0.21258969604969025
1761340693107016000,7.464015869140625,-1.2037527561187744,0.3090583086013794,-0.5440453886985779
1761340693117083000,7.474082763671875,-1.2110307216644287,0.606438934803009,-0.809432864189148
1761340693127149800,7.48414990234375,-1.1458059549331665,0.8209014534950256,-0.9093243479728699
1761340693137216800,7.494216796875,-0.9970135688781738,0.8991595506668091,-0.8880810141563416
1761340693147283700,7.50428369140625,-0.7807598114013672,0.8674352169036865,-0.7667149305343628
1761340693157351000,7.514350830078125,-0.5226439833641052,0.7409518957138062,-0.6290845274925232
1761340693167418000,7.524418212890625,-0.2882626950740814,0.5846623778343201,-0.4969952404499054
1761340693177485000,7.534485107421875,-0.10528437793254852,0.3901233375072479,-0.41690656542778015
1761340693187550700,7.54455078125,0.025954866781830788,0.21410489082336426,-0.4064784348011017
1761340693197618000,7.554617919921875,0.10521107167005539,0.060487911105155945,-0.48440125584602356
1761340693207685000,7.56468505859375,0.1412268579006195,-0.05362827330827713,-0.6313542127609253
1761340693217752000,7.574751953125,0.14559151232242584,-0.10872774571180344,-0.8164001703262329
1761340693227819000,7.584819091796875,0.12264439463615417,-0.06397199630737305,-0.9988711476325989
1761340693237886000,7.594885986328125,0.10855910927057266,0.07591462135314941,-1.1502312421798706
1761340693247953000,7.604952880859375,0.12494100630283356,0.3061382472515106,-1.236322283744812
1761340693258019800,7.615019775390625,0.18833312392234802,0.5240851044654846,-1.2163329124450684
1761340693268086800,7.625086669921875,0.293570876121521,0.618423581123352,-1.0730228424072266
1761340693278154000,7.635154052734375,0.4269118309020996,0.559442400932312,-0.8244038224220276
1761340693288221000,7.645220947265625,0.5280096530914307,0.39074021577835083,-0.4979493021965027
1761340693298287900,7.655287841796875,0.5727468729019165,0.14156748354434967,-0.15027210116386414
1761340693308353800,7.665353759765625,0.5538240075111389,-0.19533996284008026,0.2001093626022339
1761340693318421000,7.6754208984375,0.4932240843772888,-0.5157167315483093,0.5376880168914795
1761340693328488000,7.685488037109375,0.4368571937084198,-0.7451552748680115,0.8259775638580322
1761340693338555000,7.695554931640625,0.40549248456954956,-0.862147867679596,1.0403141975402832
1761340693348621800,7.705621826171875,0.3635317087173462,-0.8137531280517578,1.1629694700241089
1761340693358688800,7.715688720703125,0.2809978127479553,-0.5776864290237427,1.188687801361084
1761340693368755700,7.725755615234375,0.14433850347995758,-0.19039225578308105,1.1383486986160278
1761340693378823000,7.735822998046875,-0.017493383958935738,0.2845654785633087,1.0244699716567993
1761340693388889900,7.745889892578125,-0.1769871562719345,0.8396121859550476,0.8780999183654785
1761340693398957000,7.75595703125,-0.28311699628829956,1.423818826675415,0.7484100461006165
1761340693409024000,7.76602392578125,-0.3354473114013672,1.71583890914917,0.5855132937431335
1761340693419091000,7.776091064453125,-0.33615779876708984,1.6863930225372314,0.41240793466567993
1761340693429158000,7.786157958984375,-0.2680591642856598,1.4868954420089722,0.2593232989311218
1761340693439224000,7.79622412109375,-0.23157203197479248,1.3522785902023315,0.10948701202869415
1761340693449291000,7.806291015625,-0.28618040680885315,1.35037100315094,-0.001779855228960514
1761340693459358000,7.81635791015625,-0.3815793991088867,1.2393015623092651,-0.06560022383928299
1761340693469425000,7.8264248046875,-0.4618774354457855,1.051198959350586,-0.0735715925693512
1761340693479491800,7.836491943359375,-0.4626395106315613,1.0151081085205078,0.08691553771495819
1761340693489559000,7.84655908203125,-0.3427099287509918,-0.032483574002981186,0.08017586916685104
1761340693499626000,7.8566259765625,-0.4469621479511261,-2.268272876739502,-0.523025631904602
1761340693509693000,7.86669287109375,-0.9990822672843933,-4.120619773864746,-1.475750207901001
1761340693519760000,7.876759765625,-1.3735803365707397,-4.743642807006836,-2.526930570602417
1761340693529826800,7.886826904296875,-1.3066236972808838,-3.622344732284546,-3.187382221221924
1761340693539893800,7.896893798828125,-1.0933843851089478,-1.298133373260498,-3.0738120079040527
1761340693549961000,7.9069609375,-0.8510583639144897,1.0451048612594604,-2.2909963130950928
1761340693560027000,7.91702685546875,-0.5000030994415283,2.4337284564971924,-1.197365403175354
1761340693570093800,7.92709375,-0.2550293207168579,2.826465606689453,-0.23735414445400238
1761340693580160800,7.937160888671875,-0.240347221493721,2.299241065979004,0.39784887433052063
1761340693590228000,7.94722802734375,-0.36527320742607117,1.164582371711731,0.7225039601325989
1761340693600295000,7.957294921875,-0.44218316674232483,-0.0926218330860138,0.7847122550010681
1761340693610361900,7.96736181640625,-0.3822931945323944,-1.0215781927108765,0.6384972929954529
1761340693620428800,7.9774287109375,-0.20994523167610168,-1.5011985301971436,0.37234142422676086
1761340693630496300,7.987496337890625,-0.0158535148948431,-1.5856926441192627,0.08940505981445312
1761340693640563200,7.997563232421875,0.13815122842788696,-1.354863166809082,-0.1438649594783783
1761340693650630100,8.007630126953124,0.20825521647930145,-0.9303198456764221,-0.32423871755599976
1761340693660696300,8.0176962890625,0.16392691433429718,-0.4283125698566437,-0.4306211769580841
1761340693670763300,8.02776318359375,0.03555190563201904,0.0010355887934565544,-0.45005130767822266
1761340693680830200,8.037830322265625,-0.12275028973817825,0.24260710179805756,-0.403380811214447
1761340693690897200,8.047897216796875,-0.2806682884693146,0.2442673295736313,-0.3133696913719177
1761340693700964000,8.057964111328126,-0.41860470175743103,0.05380098521709442,-0.20972581207752228
1761340693711031300,8.06803125,-0.5024628639221191,-0.2345530390739441,-0.1592690348625183
1761340693721097200,8.07809716796875,-0.5141348838806152,-0.5075757503509521,-0.23019270598888397
1761340693731164200,8.0881640625,-0.4317640960216522,-0.20394639670848846,-0.5002683997154236
1761340693741231000,8.098231201171876,-0.22581376135349274,0.42471468448638916,-1.058493971824646
1761340693751298300,8.10829833984375,-0.36536234617233276,0.6125227212905884,-1.1088711023330688
1761340693761365200,8.118365234375,-0.5963512659072876,0.9944669008255005,-1.1696088314056396
1761340693771432200,8.12843212890625,-0.7205981016159058,1.2506611347198486,-1.1560125350952148
1761340693781499100,8.1384990234375,-0.7414175271987915,1.3157364130020142,-1.1821510791778564
1761340693791566000,8.148566162109375,-0.6719963550567627,1.2554115056991577,-1.2930461168289185
1761340693801633000,8.158633056640625,-0.5079514384269714,1.0463570356369019,-1.3647953271865845
1761340693811700200,8.1687001953125,-0.32520583271980286,0.7141415476799011,-1.3862189054489136
1761340693821767200,8.17876708984375,-0.17197129130363464,0.19206546247005463,-1.3967938423156738
1761340693831834000,8.188834228515624,0.04686703532934189,-0.3763119578361511,-1.382499098777771
1761340693841900000,8.198900146484375,0.3039202094078064,-0.8769524097442627,-1.2466882467269897
1761340693851967000,8.208967041015624,0.4876546263694763,-1.1697269678115845,-0.960163950920105
1761340693862034200,8.2190341796875,0.527936577796936,-1.3327373266220093,-0.6017330288887024
1761340693872101000,8.22910107421875,0.41361716389656067,-1.3285984992980957,-0.3165220618247986
1761340693882168000,8.23916796875,0.1785329282283783,-1.2593753337860107,-0.285797655582428
1761340693892235000,8.249235107421875,-0.1333397477865219,-1.139643669128418,-0.5114840269088745
1761340693902302200,8.25930224609375,-0.41361868381500244,-0.8369283676147461,-0.8323461413383484
1761340693912369200,8.269369140625,-0.6786724328994751,-0.3208852708339691,-1.0787262916564941
1761340693922436400,8.279436279296876,-0.8491834402084351,0.2689182460308075,-1.133432388305664
1761340693932503300,8.28950341796875,-0.9071740508079529,0.7078879475593567,-0.9766302704811096
1761340693942570200,8.2995703125,-0.7780219316482544,0.935501217842102,-0.5765974521636963
1761340693952637200,8.30963720703125,-0.5097113847732544,0.9767389893531799,-0.009046148508787155
1761340693962703000,8.319703125,-0.2660294473171234,0.8354663848876953,0.5266186594963074
1761340693972770300,8.329770263671875,-0.12247122079133987,0.5452055335044861,0.930040180683136
1761340693982837200,8.339837158203125,-0.014688575640320778,0.22025102376937866,1.1367181539535522
1761340693992904200,8.349904296875,0.1174396350979805,0.0210266076028347,1.1175750494003296
1761340694002971100,8.35997119140625,0.2568170726299286,-0.11502736806869507,0.9558244943618774
1761340694013038000,8.3700380859375,0.37434476613998413,-0.2291848361492157,0.7575026154518127
1761340694023105000,8.38010498046875,0.4422481656074524,-0.29858192801475525,0.5863795876502991
1761340694033172200,8.390172119140624,0.4417259097099304,-0.26785677671432495,0.4561094641685486
1761340694043239200,8.4002392578125,0.3958309292793274,-0.19175302982330322,0.3606731593608856
1761340694053306000,8.41030615234375,0.3389681875705719,-0.09640760719776154,0.3148907721042633
1761340694063373000,8.420373046875,0.2960118353366852,-0.020420612767338753,0.2871987223625183
1761340694073440000,8.43043994140625,0.27298110723495483,0.02887316606938839,0.2542514204978943
1761340694083507000,8.4405068359375,0.2688332796096802,0.06965495645999908,0.23281694948673248
1761340694093574100,8.45057421875,0.274562269449234,0.0788540467619896,0.23652459681034088
1761340694103641000,8.46064111328125,0.2556591033935547,0.010523541830480099,0.2551858425140381
1761340694113708300,8.470708251953125,0.21570265293121338,-0.10782600939273834,0.2403981238603592
1761340694123774000,8.48077392578125,0.16290906071662903,-0.2822254002094269,0.12843653559684753
1761340694133841200,8.490841064453125,0.09139280021190643,-0.5103278160095215,-0.16857250034809113
1761340694143908400,8.500908447265624,0.03867371752858162,-0.6557172536849976,-0.6234728097915649
1761340694153975300,8.510975341796875,-0.018414601683616638,-0.5383520126342773,-1.094860315322876
1761340694164042200,8.521042236328125,-0.10925479233264923,-0.1805567443370819,-1.385409951210022
1761340694174109200,8.531109130859376,-0.2097206860780716,0.2652859687805176,-1.3153620958328247
1761340694184176000,8.541176025390625,-0.2784973084926605,0.5725909471511841,-0.8000566363334656
1761340694194243000,8.5512431640625,-0.31180548667907715,0.627961277961731,-0.02205992117524147
1761340694204310300,8.561310302734375,-0.2880907654762268,0.5159322023391724,0.7135518193244934
1761340694214377200,8.571377197265624,-0.22025099396705627,0.3147522509098053,1.1912428140640259
1761340694224444200,8.581444091796875,-0.12211405485868454,0.061605457216501236,1.3714261054992676
1761340694234511000,8.591510986328124,0.011405397206544876,-0.18042981624603271,1.2751009464263916
1761340694244577300,8.601577392578125,0.1617327332496643,-0.32460564374923706,0.9413878321647644
1761340694254644200,8.611644287109375,0.2990852892398834,-0.37075290083885193,0.484862357378006
1761340694264711200,8.621711181640626,0.3810291290283203,-0.38950350880622864,0.0216900035738945
1761340694274778000,8.631778076171875,0.3888665437698364,-0.41920146346092224,-0.3408477008342743
1761340694284845000,8.641844970703126,0.35635530948638916,-0.4494769871234894,-0.5404109954833984
1761340694294912000,8.651912109375,0.321809321641922,-0.4658708870410919,-0.5861344933509827
1761340694304979200,8.661979248046874,0.26971378922462463,-0.44822007417678833,-0.5141411423683167
1761340694315046100,8.672046142578125,0.20856280624866486,-0.4207724630832672,-0.3621056079864502
1761340694325113000,8.682113037109374,0.1376555860042572,-0.3746405839920044,-0.17705489695072174
1761340694335180000,8.692179931640625,0.09267159551382065,-0.2750804126262665,-0.006094598677009344
1761340694345247200,8.702247314453125,0.0808899849653244,-0.13915348052978516,0.155459463596344
1761340694355314200,8.712314208984376,0.09151919186115265,-0.011885804124176502,0.29019036889076233
1761340694365380000,8.722380126953125,0.13041120767593384,0.009673641063272953,0.6027712821960449
1761340694375447000,8.732447021484376,0.11746878921985626,-0.16889077425003052,0.6990421414375305
1761340694385514200,8.74251416015625,0.1086292415857315,-0.16114142537117004,0.6623286604881287
1761340694395581200,8.752581298828124,0.16218380630016327,-0.029173538088798523,0.3621264398097992
1761340694405648100,8.762648193359375,0.19851170480251312,0.25846293568611145,0.038828104734420776
1761340694415715300,8.77271533203125,0.2050926387310028,0.42483192682266235,-0.2642601430416107
1761340694425782300,8.7827822265625,0.20416514575481415,0.5414758920669556,-0.43355751037597656
1761340694435849200,8.79284912109375,0.16882100701332092,0.48272019624710083,-0.4699293375015259
1761340694445916200,8.802916259765626,0.17334266006946564,0.3348405361175537,-0.38603001832962036
