time,seconds_elapsed,z,y,x
1761340608970754000,0.085754150390625,0.20490005677640438,-0.06569839723724871,0.17170326856281606
1761340608980821200,0.0958212890625,0.5563052645057439,-0.23299159427285193,0.16753823957154526
1761340608990889000,0.105888916015625,0.8029612269937991,-0.4297924792131409,0.12639020009255036
1761340609000956200,0.1159560546875,0.8356447684556245,-0.47309382426850494,0.028788506784662604
1761340609011024100,0.126024169921875,0.6128735394239425,-0.2632894461745396,-0.04564082085359841
1761340609021091300,0.13609130859375,0.4706956040203571,0.1698516128141433,0.04200045505724847
1761340609031159000,0.146158935546875,0.3451046462804079,0.39067558023557064,0.26003731251079587
1761340609041226200,0.156226318359375,0.054686698955297465,0.667581354232505,0.25461492213588205
1761340609051293200,0.166293212890625,-0.25153029052615167,0.8836508206032216,0.2131655616227537
1761340609061361200,0.176361083984375,-0.150265380269289,1.121487955211103,0.16319522366486489
1761340609071428000,0.186427978515625,0.021593992170691488,1.0934256438091396,0.12986229664990678
1761340609081496300,0.196496337890625,0.18418927718102932,0.8500666770398616,0.0648690154747106
1761340609091563300,0.206563232421875,0.5462678546160459,0.6008062676744536,-0.09576881532492115
1761340609101631200,0.21663134765625,0.8789256917774677,0.25449706790987403,-0.06517777089662849
1761340609111698200,0.2266982421875,0.7904904524773358,-0.03407718777731061,0.049154601128213106
1761340609121765000,0.23676513671875,0.5777829368203878,0.08119454745687543,-0.21484843667577952
1761340609131833000,0.2468330078125,0.19024317039251326,0.14667433350738138,-0.19561991326110437
1761340609141900000,0.256900146484375,0.0766664755731821,0.1010081224841997,-0.21842592983637005
1761340609151968300,0.26696826171875,-0.00901858823597431,0.06085055534727871,-0.33572449472304433
1761340609162035200,0.27703515625,-0.6157283443331718,-0.24217235080059615,-0.42048433344606306
1761340609172103200,0.287103271484375,-1.0765233165860175,-0.5639772604383528,-0.5148450538050383
1761340609182170000,0.297170166015625,-1.2092331664204596,-0.7542691653434187,-0.535001195192337
1761340609192238000,0.307238037109375,-0.927387232607603,-0.9922523573584854,-0.6002854221381246
1761340609202305000,0.317304931640625,-0.4255687605708837,-1.044834046858549,-0.5707060937693342
1761340609212372000,0.3273720703125,0.21197803233861923,-0.9751889212895184,-0.46107430065087973
1761340609222440200,0.337440185546875,0.7953887459129094,-0.809306869693473,-0.3505083319548517
1761340609232507100,0.347507080078125,1.1599836900830267,-0.5742515478238464,-0.1708044017606415
1761340609242575000,0.3575751953125,1.430524970549345,-0.44832295562736685,0.11032605899292976
1761340609252642000,0.36764208984375,1.6595803944170473,-0.31159773267172275,0.358489613032341
1761340609262710000,0.3777099609375,1.7152327235341072,-0.3232252247644588,0.6524776739291847
1761340609272777000,0.38777685546875,1.4949872135877609,-0.4090964953280985,1.0061715040523558
1761340609282845200,0.39784521484375,1.0853110186755657,-0.4752683187633753,1.3768243600219487
1761340609292912000,0.407912109375,0.4127946191936731,-0.48107755303140726,1.6298025112688541
1761340609302979300,0.417979248046875,-0.46664895897805686,-0.3198408430231735,1.5293690834000706
1761340609313047300,0.42804736328125,-0.9997387675911188,0.15951310108602046,1.0214628158822656
1761340609323114200,0.4381142578125,-1.3850737174510954,0.5285592159787192,0.4539483942937106
1761340609333182200,0.44818212890625,-1.1874129642784594,0.5865797720644623,0.10363162112189456
1761340609343249200,0.458249267578125,-0.731556032949686,0.4952944770954549,-0.07863724592318758
1761340609353317400,0.4683173828125,-0.20812427951991558,0.2517749494696036,-0.06869525923198089
1761340609363384300,0.47838427734375,0.6484674153745174,-0.03092250487236306,0.06903589849635026
1761340609373451300,0.488451171875,1.4005875129252672,-0.20134194416971876,0.09714203990688547
1761340609383519200,0.498519287109375,1.7608347832798956,-0.11576178377345203,0.0797828083622735
1761340609393586200,0.508586181640625,1.651968165847659,0.07039115816336125,0.051400781752960756
1761340609403654100,0.518654052734375,1.6991887667059897,0.28949071294497697,0.024738048650347625
1761340609413721000,0.52872119140625,2.0498270817160607,0.4797498480916023,0.10721450284365563
1761340609423789300,0.538789306640625,2.459304539185762,0.5754805416295304,0.19381353969257323
1761340609433856300,0.548856201171875,2.8934552501410242,0.5600443049035966,0.2607607314145192
1761340609443923200,0.558923095703125,3.210070884039998,0.524861530504562,0.22136919848034156
1761340609453991200,0.5689912109375,3.1811358814567328,0.441054024070315,0.1996703394293785
1761340609464058000,0.57905810546875,2.6962451633453366,0.3763053653059527,0.0793930875254795
1761340609474126000,0.5891259765625,2.0732605642735957,0.426521238990128,-0.054312495348043735
1761340609484193000,0.599193115234375,1.8762872088432312,0.5487267920754849,-0.13168576748371125
1761340609494261200,0.60926123046875,2.092811067917943,0.664897156649828,-0.15488726791627705
1761340609504328200,0.619328125,2.3628625190407035,0.5331157467719168,-0.022972440917044878
1761340609514396200,0.629396240234375,2.3391005351811645,0.43634347175918514,0.238905859817937
1761340609524463000,0.639463134765625,1.731029427602887,0.3980605759203434,0.3102481446936726
1761340609534530000,0.649530029296875,1.1897317626148463,0.2509033177342266,-0.11027626503445208
1761340609544597800,0.65959765625,1.0093044683158396,0.2740444662816822,-0.5255478688009083
1761340609554665000,0.6696650390625,0.5962064822614193,-0.0038943770900368687,-0.6977991631679237
1761340609564733000,0.67973291015625,0.35705870344638824,-0.5472616148937494,-0.41117593195065855
1761340609574800100,0.689800048828125,-0.2099579246878624,-0.991598934951052,-0.13284911217465997
1761340609584867800,0.699867919921875,-1.4706331090539693,-1.2800725432753561,-0.04516330300234258
1761340609594935000,0.70993505859375,-3.0120798759996887,-1.126372585447505,0.05563230924233794
1761340609605003000,0.7200029296875,-4.967285723257064,-0.9630474517926573,0.06063260174766182
1761340609615070000,0.730070068359375,-6.7387091205686325,-0.8335731498133391,-0.2068202111840248
1761340609625137000,0.740136962890625,-7.721130258134007,-0.5720120983339846,-0.49090617900863287
1761340609635204900,0.750204833984375,-8.405479718750716,-0.794450076823309,-0.6850902690466493
1761340609645272000,0.76027197265625,-8.7837863774091,-0.9490534132316708,-0.6843761294279247
1761340609655340000,0.770340087890625,-8.724563204067945,-1.0181677198596297,-0.7205331191539764
1761340609665407000,0.780406982421875,-8.10910257076025,-1.2441539654150604,-0.8693474238321185
1761340609675475000,0.790474853515625,-7.081313766726851,-1.3576374289929867,-0.9438923772066831
1761340609685542000,0.8005419921875,-6.2496718041718005,-1.3374446819223462,-0.8965985649816691
1761340609695608800,0.81060888671875,-5.998756430673599,-0.8681358560852706,-0.6748497378002852
1761340609705676800,0.8206767578125,-5.921594865059852,0.10507657749950886,-0.8663297565113752
1761340609715744000,0.830743896484375,-5.901641625833511,1.4000915461018681,-1.878119100445509
1761340609725812000,0.84081201171875,-5.268824784055352,2.078625890699029,-2.6533576232552525
1761340609735879000,0.85087890625,-5.690677738973498,2.392470890840888,-2.7488462881982323
1761340609745947000,0.86094677734375,-6.6758145652383565,1.3948751266278325,-2.3108785031728445
1761340609756013800,0.871013916015625,-6.894923764631152,-0.2798718572609126,-1.0227936991598456
1761340609766081800,0.881081787109375,-6.707744073462486,-2.0218580015555023,0.7776341857746243
1761340609776148700,0.891148681640625,-6.233966285517812,-3.8117958374619483,2.5415701499402523
1761340609786216000,0.9012158203125,-5.253023988333344,-4.920796359282732,3.889328866736591
1761340609796284000,0.911283935546875,-3.5354753890722987,-4.990619252571463,4.585040556105971
1761340609806350800,0.921350830078125,-1.169593814471364,-4.316440180574357,4.4523029414817685
1761340609816418800,0.931418701171875,0.8897919537067412,-2.6596143455624577,2.8195599928468464
1761340609826485800,0.94148583984375,1.8105138832062482,-1.0264682229541242,0.85699822986871
1761340609836553700,0.9515537109375,1.3199556408524513,-0.35246238863207396,-0.19746844547092912
1761340609846620700,0.96162060546875,0.7127092936605215,-0.1824584348004311,-0.12348762878514825
1761340609856688000,0.971688232421875,-0.011850596791505814,0.6988190808001905,0.033470965512469406
1761340609866755800,0.981755859375,-0.5284779309034348,0.741209119696915,-0.2490308749258518
1761340609876823000,0.991822998046875,-0.8202274190932511,0.11547708508055657,0.03327661198414862
1761340609886891000,1.00189111328125,-0.513313094997406,-0.5137091085776686,0.26254845508150754
1761340609896958000,1.0119580078125,0.4770820901870727,-0.8658230490982533,0.18580226533561944
1761340609907026000,1.02202587890625,1.914525461822748,-0.8744396324045955,0.13450791223235428
1761340609917092900,1.0320927734375,3.6108763747543096,-0.8550375973202288,0.16439674494173376
1761340609927160000,1.04216015625,4.818424949088692,-0.4324392673948779,0.2939123470458202
1761340609937228000,1.05222802734375,6.075006142139435,0.06575500452900306,-0.11737463493072427
1761340609947295000,1.062294921875,7.150612928402423,0.32925807518791406,-0.21911592139452696
1761340609957363000,1.072363037109375,7.907372376191615,0.3706828492490574,-0.022919687816500663
1761340609967430000,1.082429931640625,7.305795306807756,0.24057488900870083,0.30530798487775024
1761340609977497900,1.092497802734375,6.627552346372604,0.8122390506878495,0.8492590139187872
1761340609987564800,1.102564697265625,5.721735725060105,1.1306069350816308,1.3356804487287997
1761340609997632000,1.112632080078125,5.284197709754109,1.257487786501646,1.0326106712318956
1761340610007700000,1.122699951171875,5.81152588610053,1.6067428304597735,0.31766412003859873
1761340610017767000,1.132766845703125,6.134896254956722,1.8279216757334769,-0.4492264072731137
1761340610027835000,1.1428349609375,6.610546266514063,2.1704846747070548,-1.2381842433556913
1761340610037901800,1.15290185546875,6.766565680265426,2.4348713780663904,-1.9940954037524758
1761340610047969800,1.1629697265625,6.881940364417433,2.4442682980954644,-2.4928870753139254
1761340610058036700,1.17303662109375,7.198892098402976,2.5094144317448137,-2.8065423981025814
1761340610068105000,1.18310498046875,7.470968917873502,2.711809812223911,-2.955896801006794
1761340610078172000,1.193171875,7.590748558986187,2.834045614317059,-3.1757369450226425
1761340610088238800,1.20323876953125,7.456770881173014,2.7408994208469983,-3.25523747497797
1761340610098306800,1.213306884765625,6.91603786433041,2.5871707483813164,-2.983938654142618
1761340610108373800,1.223373779296875,6.086178693538904,2.4431398785874245,-2.621995101264119
1761340610118441700,1.233441650390625,5.450407678130269,2.462506550097465,-2.5669445374324917
1761340610128509000,1.243509033203125,4.662748649686574,2.9847531853958964,-2.3027017725884913
1761340610138577000,1.253576904296875,3.923758082821965,3.758882285659015,-1.7635764832034706
1761340610148644000,1.26364404296875,2.5593694260030984,4.329581109437346,-1.0494231282144784
1761340610158711000,1.2737109375,0.7919201930195092,4.795880232064426,-0.6516048366174102
1761340610168779000,1.283779052734375,1.9883038147389887,4.333511726884543,-1.3030202881425619
1761340610178846000,1.293845947265625,2.734887905472517,3.816040635424852,-2.3074960211277005
1761340610188914000,1.303913818359375,2.887235937234759,3.078650781755149,-2.756277899503708
1761340610198980900,1.31398095703125,2.883226117071509,2.4094410226032137,-2.9623262495324014
1761340610209049000,1.324049072265625,2.4553210225075484,1.7351994067639112,-2.823037021307647
1761340610219116000,1.334115966796875,2.733168242073059,1.3445774564117192,-2.450388534541428
1761340610229183000,1.344182861328125,2.881941337957978,0.6345332903072237,-1.703086066405475
1761340610239251000,1.3542509765625,-1.6597797163814305,-0.7750333556264638,2.224370578673482
1761340610249318000,1.36431787109375,-12.829832284772396,-3.3274554467096924,10.109717585539817
1761340610259385900,1.3743857421875,-20.898205370259284,-2.4921461938187477,9.188173233741521
1761340610269452800,1.384452880859375,-23.433940822696684,3.8711058123037216,0.5303998388767243
1761340610279521000,1.39452099609375,-21.121607298409938,4.207425971364975,-2.5162109600171445
1761340610289588000,1.404587890625,-17.31663633853197,0.30207156023979187,-2.243311425986886
1761340610299655000,1.414655029296875,-12.899469884622096,-3.4264737470835445,-1.0782283669382333
1761340610309723000,1.424722900390625,-7.9564955958008765,-4.53466879774034,-0.5558483875837177
1761340610319789800,1.434789794921875,-3.8437113171607256,-3.8506323485955596,-0.9282751213580369
1761340610329857800,1.44485791015625,-1.8893354909867046,-3.5982933720350263,-0.8922980182435363
1761340610339924700,1.4549248046875,-1.290035718885064,-3.2447178345292804,0.003939677536487579
1761340610349993000,1.464992919921875,-2.055202929535508,-3.334222164365649,0.31467933207415044
1761340610360060000,1.475059814453125,-4.108348926541209,-3.423742860814929,-1.1391799715071915
1761340610370126800,1.485126953125,-6.136441730833053,-2.4662454443648456,-2.5040546582773326
1761340610380194800,1.49519482421875,-7.749254528856277,-0.897105199329555,-2.4814132028803226
1761340610390262000,1.505261962890625,-8.93550429457426,1.064334208555147,-0.24194367487756535
1761340610400329700,1.515329833984375,-9.133329298397898,2.5654715422704815,2.4137413501456377
1761340610410397000,1.52539697265625,-7.711132011210918,2.665693665476143,3.2422599199831486
1761340610420465000,1.53546484375,-5.240827939105033,0.5893154441060497,3.7778149496659634
1761340610430532000,1.545531982421875,-2.012120159134269,-1.4482657944232225,2.9283982609674335
1761340610440599800,1.555599853515625,1.3894582161456346,-2.256660006251186,2.4665257226109505
1761340610450667000,1.5656669921875,4.612950891816616,-3.180200646433234,1.8735259274363516
1761340610460734000,1.57573388671875,6.9791101143151515,-4.256844959050417,-0.33365357020050285
1761340610470802000,1.585802001953125,8.22930189858973,-4.41978335841,-0.9712390876851975
1761340610480868900,1.595868896484375,8.44467483406365,-5.330277323883772,-0.48625564978905017
1761340610490937000,1.60593701171875,7.373268422099947,-4.93937538754642,0.45382206450030205
1761340610501004000,1.616004150390625,6.559260315912962,-2.6950390024259683,2.2057100096061824
1761340610511071000,1.626071044921875,6.7587120441555975,-1.096441265303269,4.191095598810911
1761340610521139000,1.636138916015625,6.851597833123803,-1.0709351411901413,6.222523100483417
1761340610531206000,1.646205810546875,6.988675230517983,-1.3805525867648423,6.7508905567497015
1761340610541273900,1.65627392578125,6.995703521719575,-0.6187808637715876,5.978432020047307
1761340610551341800,1.666341796875,6.8750979511767625,-0.16262845662757752,5.248004698866605
1761340610561409800,1.676409912109375,6.779094322448969,-0.24669790193364022,3.9411072770297526
1761340610571476700,1.686476806640625,6.947133844339847,-0.4989582603000104,2.877391127307713
1761340610581544700,1.696544677734375,7.468048646512627,-0.8100912250041962,2.1374559730693696
1761340610591611600,1.706611572265625,8.207700307634472,-1.0575013668604194,1.3825108812257647
1761340610601678600,1.7166787109375,9.197033416545391,-1.0829015463810414,0.6801358615096658
1761340610611746600,1.72674658203125,10.116437249183655,-1.0421916425909847,0.3917415289666503
1761340610621813800,1.736813720703125,10.185331337189673,-0.8121121363725513,0.6443360146582127
1761340610631881700,1.7468818359375,9.655388009908794,-0.7525391266804188,0.930742388254404
1761340610641948700,1.75694873046875,8.850988859066367,-1.1262216326694936,1.1647771349046379
1761340610652016600,1.7670166015625,7.97276926973164,-1.55366210539639,1.2847656695276497
1761340610662083600,1.77708349609375,6.7709028326869,-1.845002574393898,0.754344495601952
1761340610672150500,1.787150634765625,3.2644881184041497,-1.7945321779593824,-0.36806890389099717
1761340610682218500,1.797218505859375,3.34160642939806,-1.8778367763727901,-0.6465467495102435
1761340610692285700,1.80728564453125,2.954507392475009,-1.345633687466383,-1.299174426369369
1761340610702353700,1.817353759765625,2.0479121880054474,-0.971158131403476,-0.9773894270084797
1761340610712420600,1.827420654296875,1.453593126925826,-0.5819274892792106,-1.2405131246946752
1761340610722488600,1.837488525390625,-0.602753127425909,0.10618899572081864,-1.9897946378186344
1761340610732555500,1.847555419921875,-3.7142566697299477,0.7668357283845544,-2.3780834690481423
1761340610742622700,1.857622802734375,-7.142641218870878,1.0430383225481956,-1.0952335700139402
1761340610752690400,1.8676904296875,-11.277788720488548,0.6734383366324007,1.0618585391566158
1761340610762758000,1.8777578125,-16.585724448704717,0.4633723484601825,2.352738015389442
1761340610772825600,1.88782568359375,-22.07698494622707,1.2937860113292932,1.5773656370669602
1761340610782892800,1.897892822265625,-26.049423765587804,2.7582757953226564,-0.814278447560966
1761340610792960800,1.907960693359375,-28.056068708181378,3.794001822096109,-3.1000805232748387
1761340610803027700,1.91802783203125,-29.566809955739974,4.753130931401253,-5.125029476583004
1761340610813094700,1.9280947265625,-28.362325445151328,5.133379956299066,-6.939561947780847
1761340610823162600,1.93816259765625,-23.97942366441488,3.594334697537124,-7.308554250127076
1761340610833229600,1.9482294921875,-18.32216830257177,1.0751325928799806,-7.096261745011806
1761340610843297800,1.9582978515625,-12.907208954441547,-1.1151736574977635,-7.221169981184602
1761340610853364700,1.96836474609375,-8.524266257172822,-3.5257349163025618,-7.551772054859995
1761340610863432700,1.9784326171875,-5.490334614849091,-6.230646201184392,-8.03975840089917
1761340610873499600,1.988499755859375,-3.9853678590387105,-5.028535433989763,-6.993413949477672
1761340610883567600,1.998567626953125,-3.858270588389039,-2.6157982924506067,-4.635183181890845
1761340610893634600,2.008634521484375,-3.9983506747305393,-0.8959956306524575,-1.9456389774888754
1761340610903701500,2.018701416015625,-2.6965105362832547,0.9825757436051964,0.7084979595758021
1761340610913769700,2.028769775390625,-1.3382079213798046,2.328881338983774,2.715409882542491
1761340610923836700,2.038836669921875,-0.2595838331222534,2.319221237973869,3.784516785392165
1761340610933904600,2.048904541015625,1.4784177715808153,1.1902126779995859,4.014371250683069
1761340610943971600,2.0589716796875,3.7128666766762732,0.5049877497226,4.3540085714682935
1761340610954039600,2.06903955078125,5.225482485935092,1.6163044395312667,5.26565725993514
1761340610964106500,2.0791064453125,7.112428451436758,1.8635729809597132,5.79127220262289
1761340610974173400,2.08917333984375,9.086077133357524,0.748485028984025,6.178077809557318
1761340610984241700,2.09924169921875,10.916524966567755,0.4791091390352696,5.222216762137413
1761340610994308600,2.10930859375,11.806395246207714,0.4399734988246113,3.6568601272940633
1761340611004376600,2.11937646484375,11.776025826907157,-0.06426942388005555,3.286045285695791
1761340611014443500,2.129443603515625,11.816795059669017,-0.6929783919479697,2.936183215755224
1761340611024510700,2.1395107421875,11.592090816748142,-0.8995227818652987,2.0032726896815003
1761340611034578700,2.14957861328125,10.977339793014526,-0.9141613288749009,1.1787708081394432
1761340611044645600,2.159645751953125,10.415747528016567,-0.842858791487664,0.806483702031523
1761340611054713600,2.169713623046875,10.314723440778256,-0.7300333534270524,0.7243716744035482
1761340611064780800,2.17978076171875,10.610369936406611,-0.5225229680217802,1.0534897931315004
1761340611074848800,2.189848876953125,11.035020413088798,-0.27295422335956243,1.698252070377767
1761340611084915700,2.199915771484375,11.490635352355241,0.04876859748531133,2.11249191994369
1761340611094983700,2.209983642578125,11.686044527208804,0.17729845822136847,2.377018031773716
1761340611105050600,2.220050537109375,11.68819556776285,-0.12592344109732656,2.3667308849066493
1761340611115117600,2.23011767578125,11.575834093952178,-0.5793035339837893,2.1005384472995994
1761340611125185800,2.240185791015625,11.29484974540472,-1.1098127149865031,1.7366361615687607
1761340611135252700,2.250252685546875,10.90211650198698,-1.5128101627871393,1.5203211229391396
1761340611145320700,2.26032080078125,10.51225443009138,-1.7837658692732452,1.4004726543739436
1761340611155387600,2.2703876953125,10.054688356757163,-2.2063906853467223,1.2875474092006682
1761340611165455600,2.28045556640625,9.559399578750133,-2.34219528632611,1.295137279807776
1761340611175522600,2.2905224609375,8.469078038436173,-2.1345058910921213,1.2947642087116837
1761340611185589500,2.300589599609375,7.259863576716184,-1.8978341470018028,1.075184323067218
1761340611195657700,2.31065771484375,6.326926893287896,-1.6558170963607728,1.0083931986898182
1761340611205724700,2.320724609375,5.751047744262218,-1.6227455784946678,0.9299976343017071
1761340611215792600,2.330792724609375,5.580038266649842,-1.7729681425355375,0.8039489959221333
1761340611225859600,2.340859619140625,5.500155751639604,-1.9670907847099004,0.5897006805639714
1761340611235927600,2.350927490234375,4.576113153284788,-2.3973376200944183,0.2142637321230024
1761340611245994500,2.360994384765625,2.561470197674632,-2.6599896086156365,-0.4199570581689477
1761340611256061400,2.3710615234375,-0.20755378615558145,-2.259689729335904,-1.5123635880634188
1761340611266129700,2.381129638671875,-2.7871763111144303,-1.2234952813331037,-2.7521675415754316
1761340611276196600,2.391196533203125,-4.808547113674879,-0.07061515791127458,-3.2410698334157466
1761340611286264600,2.4012646484375,-6.656389149278402,0.8805885834883898,-3.489827152097225
1761340611296331500,2.41133154296875,-7.875985304281115,1.9034775597162543,-3.113998573990166
1761340611306399500,2.4213994140625,-9.742077282324432,1.303162473092228,-0.8468164430722593
1761340611316466700,2.431466796875,-14.44799696521759,-0.7182099369034171,2.3943229484483597
1761340611326533600,2.44153369140625,-22.359241214406488,-0.1357530169226229,3.710985392974317
1761340611336601900,2.451601806640625,-32.17405347807407,3.7537972374796866,2.5678926319375632
1761340611346668800,2.461668701171875,-40.749779873371125,8.457453651615976,0.5608411543697118
1761340611356736800,2.47173681640625,-44.34680600194931,11.257108336031436,-1.5275859993755816
1761340611366803700,2.4818037109375,-41.234418662548066,10.773892273133992,-4.572352339446544
1761340611376871700,2.49187158203125,-33.37175052047968,6.666663875055312,-6.689772363442182
1761340611386938600,2.501938720703125,-23.90375847483873,2.698411985990405,-8.049153421232104
1761340611397005600,2.512005615234375,-15.97976229610443,-0.17315255405567587,-8.802437886387109
1761340611407073800,2.52207373046875,-10.251122783005236,-2.6265897355780004,-8.30114256144166
1761340611417140700,2.532140625,-6.088406890982389,-6.909077377668023,-8.178249172222614
1761340611427208700,2.542208740234375,-2.4737556738644835,-11.765705508422851,-10.168006108379364
1761340611437275600,2.552275634765625,0.8783493531942367,-9.875509016692638,-10.639177513217925
1761340611447343600,2.562343505859375,4.050599917405844,-6.057032678553462,-7.484583017206192
1761340611457410600,2.57241064453125,6.74979282464087,-2.1051364426143464,-1.9234603172980247
1761340611467477500,2.5824775390625,8.43128051496148,0.9909770767256617,3.704757604500651
1761340611477545700,2.592545654296875,8.2450594396919,2.1216928790092466,7.7677435407489535
1761340611487612700,2.60261279296875,6.073886782720685,1.956960728100687,9.941664035123585
1761340611497680600,2.6126806640625,4.123685611882806,0.8971008154153823,8.59491683345735
1761340611507747600,2.62274755859375,3.721405372440815,0.7486269947379827,5.039985048764944
1761340611517815600,2.632815673828125,4.412984784311056,1.0129138179194181,2.4027254506126043
1761340611527882500,2.642882568359375,5.768739468297362,0.8369729483194649,0.7862566142998635
1761340611537949400,2.652949462890625,7.752044451835751,0.861999253026396,0.09307086321152747
1761340611548017700,2.663017578125,10.277875180852412,0.8977575257584453,0.40785113490950314
1761340611558084600,2.673084716796875,12.991046929079294,1.2289287776239215,0.667244523493573
1761340611568152600,2.683152587890625,15.291126536470651,1.8556050708204506,0.8310041030429303
1761340611578219800,2.6932197265625,16.809122869724035,2.093308203785121,1.2382989557765423
1761340611588287500,2.70328759765625,18.003081310123203,2.193299733105302,1.0795011633530258
1761340611598355000,2.71335498046875,18.87529552156329,2.7783696120634676,0.8059300136715173
1761340611608422000,2.723421875,19.01951694549322,3.2287147942334413,1.153682397981733
1761340611618489900,2.73348974609375,17.929099543589352,3.0963150332614777,1.5893702553763984
1761340611628556800,2.743556884765625,15.374908397006987,2.3253856058225035,1.7503752024553716
1761340611638624800,2.753624755859375,13.536612772905826,1.790388356152922,1.6803043257549404
1761340611648691700,2.763691650390625,11.713133609664439,1.8628908439144491,1.6788973815664647
1761340611658758700,2.773758544921875,9.781596222764254,1.7816984153494237,1.5408409100070595
1761340611668827000,2.783826904296875,8.455070555871725,1.4980965777799486,1.4175754726052283
1761340611678893800,2.793893798828125,7.494571911779046,1.24526426474452,1.4603465467087924
1761340611688961800,2.8039619140625,6.945117828342318,1.1109134427700191,1.5486391626678406
1761340611699028700,2.81402880859375,6.767010501423478,0.9763019240327179,1.533478564545512
1761340611709096700,2.8240966796875,6.828275409725308,0.8522788001313805,1.3979771842963993
1761340611719163600,2.83416357421875,7.102459430608153,0.8338475828405469,1.2513339400470256
1761340611729230600,2.844230712890625,7.386257667532563,0.8768781115978955,1.1242502595312893
1761340611739298800,2.854298828125,7.53348587206304,0.5791269718404859,1.0444540345650166
1761340611749365800,2.86436572265625,7.314536831668019,0.09806484470707363,0.7003197676867247
1761340611759433700,2.874433837890625,6.876026171937585,-0.10061039187088608,0.1504812241102103
1761340611769500700,2.884500732421875,6.426268726527691,-0.06266347738760523,-0.3841020470641553
1761340611779568600,2.894568603515625,5.455139967349171,-0.013167351079033687,-0.8086840616200118
1761340611789635600,2.904635498046875,3.499547751122713,-0.1519414602553472,-1.1920018264386802
1761340611799702500,2.91470263671875,0.1978799488812685,-0.23497589995786547,-1.5538491524010896
1761340611809770500,2.9247705078125,-3.877954947546124,0.21072036042772233,-2.3344888036020097
1761340611819837700,2.934837646484375,-7.57919782192409,0.9083863987352698,-3.6200425547674295
1761340611829905700,2.94490576171875,-9.757217568311095,0.9011335780628025,-4.325943337456882
1761340611839972600,2.95497265625,-10.991145031005143,-0.292379748917371,-3.95684289856106
1761340611850040600,2.96504052734375,-12.938527637290953,-2.3562642898194492,-2.0711852193042635
1761340611860107800,2.975107666015625,-16.6746442566514,-2.8748347208231686,-0.11927656869506463
1761340611870174700,2.9851748046875,-22.004036614394188,-1.04272026957497,1.0703832063958048
1761340611880242700,2.99524267578125,-27.73736165496111,0.7382137372732162,1.9739307137325406
1761340611890310000,3.005309814453125,-32.773377800095076,2.645771990431845,2.0201050204083324
1761340611900377900,3.0153779296875,-35.87805412672758,4.873910397206247,1.648765862675011
1761340611910444800,3.02544482421875,-36.79764968254566,5.0136231115400784,-0.8384856179047375
1761340611920512800,3.0355126953125,-32.664450976908206,-1.9726231382653117,-7.499418767288327
1761340611930579700,3.045579833984375,-25.864279964160918,-18.222386908870934,-20.560029061937332
1761340611940646700,3.055646728515625,-17.532224378061294,-19.927146169185637,-28.826938514387606
1761340611950714600,3.065714599609375,-12.521957591211795,-10.887782856208085,-25.798093381547925
1761340611960781800,3.07578173828125,-8.951983135688304,0.23617325651627033,-14.684416195851563
1761340611970849800,3.085849853515625,-5.039371300780773,5.585056387072801,-2.2521467666104433
1761340611980916700,3.095916748046875,-1.7547873198091983,4.123782642516494,5.814786349201202
1761340611990984700,3.105984619140625,1.9863491735398768,4.81566834385693,7.6762237794369454
1761340612001051600,3.1160517578125,3.8417847330123185,4.384940593087673,7.90805568228066
1761340612011118600,3.12611865234375,3.8870635521531103,3.2403853582829236,7.8810706447213885
1761340612021186600,3.1361865234375,4.216659663656354,3.351177098558843,7.1179860855638974
1761340612031253800,3.146253662109375,5.365556142535805,3.6816874022975563,6.193099437600374
1761340612041321700,3.15632177734375,7.098764667743444,3.9330578260868787,5.488833562636375
1761340612051388700,3.166388671875,9.269608238890767,4.410594674304128,4.939456636089086
1761340612061456600,3.17645654296875,11.509359926569461,4.6269244721114635,4.758498888175189
1761340612071523600,3.186523681640625,13.39885616107583,4.615242217624187,4.899009182627498
1761340612081590500,3.196590576171875,14.596961199760436,4.587199195444583,4.953215112328529
1761340612091658500,3.206658447265625,15.114278269702195,4.525831411290168,4.875690266360342
1761340612101725700,3.2167255859375,14.99735167993307,4.312655109077692,4.342279555229842
1761340612111793700,3.226793701171875,14.377744448339937,3.8922944385439155,3.6230993119895456
1761340612121860900,3.23686083984375,13.430941736644506,3.4065359976872798,3.0028859311968086
1761340612131927800,3.246927734375,12.56691316974759,3.120512778189778,2.4267976694650946
1761340612141995800,3.256995849609375,11.772994496387243,2.835148314861953,1.9391259423330425
1761340612152062700,3.267062744140625,10.688607022297381,2.4197404444299635,1.3497251945637165
1761340612162130700,3.277130615234375,9.880143106234073,2.0966702275641262,0.8962086888812482
1761340612172198000,3.287197998046875,9.534160508075356,1.9239925244785845,0.5923991624003276
1761340612182265900,3.297265869140625,9.301150793623924,1.4960747165635226,0.39437216973118483
1761340612192332800,3.307332763671875,9.176301009640097,0.8528902100279927,0.32140367189310487
1761340612202399700,3.317399658203125,9.096782067245245,0.4170811008738354,0.16331103206425904
1761340612212467700,3.3274677734375,9.031189358872174,0.11377811740925535,-0.3782473296865821
1761340612222534700,3.33753466796875,9.041375237321853,-0.15290657896045595,-1.047783763509616
1761340612232602600,3.3476025390625,9.106268857514857,-0.29090242464011534,-1.4363371639594436
1761340612242669800,3.357669921875,8.928546145999432,-0.51676981132254,-1.6529221055716274
1761340612252737800,3.36773779296875,8.408349721229076,-0.7207230887681245,-1.6144298778310417
1761340612262804700,3.3778046875,7.994457954448461,-0.7764671878218651,-1.481307063281536
1761340612272871700,3.38787158203125,7.491072963747381,-0.9400549910008906,-1.3251923724621533
1761340612282939600,3.397939697265625,7.1358087425023315,-0.982672993434593,-0.7850674775805324
1761340612293006600,3.408006591796875,6.99408965678215,-0.7058540209382772,-0.18408837408982215
1761340612303074600,3.418074462890625,6.954505249890684,-0.3385235143244266,0.27971478526936844
1761340612313141500,3.4281416015625,7.14405517732203,-0.13526866747178137,0.5621779193988069
1761340612323208700,3.438208740234375,7.203149171325564,-0.1029208151045721,0.5215541960548609
1761340612333276700,3.448276611328125,6.536040183845162,0.03727887902860529,0.3069406641134992
1761340612343343600,3.458343505859375,5.060989842870831,0.19989764537923038,0.07335566139160656
1761340612353411600,3.46841162109375,3.6379672107756136,0.402726339241676,-0.2731520657529123
1761340612363478800,3.478478759765625,2.555604520511627,0.5410049656517804,-0.716574444656074
1761340612373546500,3.48854638671875,1.5904074894696474,0.3004122852580622,-1.1974774083055555
1761340612383613700,3.49861376953125,0.7036702471584081,0.09849900747379288,-1.1563885151352733
1761340612393681000,3.508680908203125,-1.3249258304804563,0.23955818624682723,0.11905801230724901
1761340612403748900,3.518748779296875,-4.909306412497163,0.09958329557916148,2.8096573152527213
1761340612413815800,3.52881591796875,-10.970645848333834,-0.0854040914433077,5.603467657554149
1761340612423883800,3.5388837890625,-19.001978950715063,1.2293487566016614,6.51638680434823
1761340612433950700,3.54895068359375,-28.539706795883177,3.8270056815534828,5.426669075146317
1761340612444018700,3.559018798828125,-37.56330789158344,6.151489077839255,3.4377661254703997
1761340612454085600,3.569085693359375,-43.81483496823311,8.025822230005264,1.264528352662921
1761340612464152800,3.57915283203125,-45.2310520119667,9.167299957060813,-2.6518957340091465
1761340612474220800,3.589220703125,-39.97911348078251,7.637697941687703,-7.255758479484915
1761340612484287700,3.599287841796875,-31.3409788523674,3.4992926073178645,-10.461182414501906
1761340612494355700,3.609355712890625,-22.556683356392384,-0.21560407734867185,-11.979856793147325
1761340612504422700,3.619422607421875,-15.178375771081447,-5.374001314797997,-13.278854986166953
1761340612514490600,3.62949072265625,-9.240967835339903,-15.8173026201725,-18.57859454844594
1761340612524557600,3.6395576171875,-3.0498534340769052,-16.587918743878603,-21.72624375536442
1761340612534624800,3.649624755859375,2.580858204233646,-10.527325742495059,-17.681966026717422
1761340612544691700,3.659691650390625,5.634770558312535,-5.198291696670651,-9.387354328349232
1761340612554759000,3.669759033203125,5.642967893293499,-1.110969191545248,-0.6771662711143493
1761340612564826600,3.67982666015625,2.931588289180398,2.147446036686003,6.693780430039763
1761340612574893800,3.689893798828125,-0.12985972110033034,4.640844860914349,11.020995394867658
1761340612584961800,3.6999619140625,-2.2759721710950136,4.224230391171575,10.68545878739953
1761340612595029000,3.710029052734375,-2.2676322127729653,3.4259289726823567,8.07131615320146
1761340612605096000,3.720095947265625,-0.8982160831809043,3.1194974636673924,5.381106178367138
1761340612615164000,3.730163818359375,1.4844979682773352,2.768848919524252,3.896193199548125
1761340612625230800,3.74023095703125,4.930501176217198,2.4974004610851406,3.8973303868845104
1761340612635298800,3.750298828125,8.274089134821295,2.434417496819049,3.767558051806688
1761340612645365800,3.76036572265625,11.080030936682224,2.7354028692573307,3.5181606816560027
1761340612655432700,3.7704326171875,13.250685707259178,2.9957705462336537,3.6212440395116805
1761340612665501000,3.7805009765625,14.561293674051761,2.612085701668262,4.1624052186384795
1761340612675567900,3.79056787109375,15.268032076609133,2.062128783275932,3.6999843987494705
1761340612685635800,3.8006357421875,15.855322261965274,1.9989812760978936,2.7882404332146047
1761340612695702800,3.810702880859375,16.178618981063366,2.219841410811245,2.307027526833117
1761340612705770800,3.820770751953125,16.130166792583463,2.1238915580973026,2.3278926202073693
1761340612715837700,3.830837646484375,15.538132627570628,1.686259288636595,2.441077100838721
1761340612725904600,3.840904541015625,14.45032920755744,1.361914667920768,2.4537831454157826
1761340612735972900,3.850972900390625,12.97051968935728,1.2410836180590092,2.5860946435824035
1761340612746039800,3.861039794921875,11.358235299122333,1.3490237682960926,2.8356209008097646
1761340612756107800,3.871107666015625,8.809646794852615,1.4491770640492438,3.6553678429096936
1761340612766174700,3.8811748046875,9.020151832029223,1.2694270844899118,3.070833678263426
1761340612776241700,3.89124169921875,9.294286753073335,1.5393186688758431,2.2634800615295765
1761340612786309600,3.9013095703125,8.022243786996603,1.284011636289954,2.091997413447499
1761340612796376800,3.911376953125,7.249623337730765,0.8535282887358218,1.4501339263826607
1761340612806444800,3.92144482421875,6.642763359507918,0.811035958508402,1.1861042928326875
1761340612816511700,3.93151171875,6.278368906345963,0.7314188164360821,0.869347277701646
1761340612826579700,3.941579833984375,6.380144688734412,0.39786026757527143,0.6931435193818062
1761340612836647000,3.95164697265625,6.881136646819114,0.0726838174114935,0.8626239607959986
1761340612846714600,3.961714599609375,7.65113200827837,-0.12077150169424712,0.9813500012025237
1761340612856781800,3.97178173828125,8.305543426749109,-0.25227522714193906,1.025049661393091
1761340612866848800,3.981848876953125,8.498945937955378,-0.5525236270751803,0.7998597538471222
1761340612876917000,3.9919169921875,8.293409921362995,-0.7975947315245866,0.3679611326675862
1761340612886984000,4.00198388671875,7.788367226582765,-0.7520303734406828,-0.1420110178714618
1761340612897052000,4.012052001953125,6.721340637138486,-0.6483999030962586,-0.7459469618737697
1761340612907118800,4.022118896484375,5.391010901787877,-0.2907943428894505,-1.282936116012931
1761340612917185800,4.032185791015625,3.783521344614029,0.04288428868707269,-1.594069957499951
1761340612927253800,4.042253662109375,1.6521499521553515,0.4049406177576631,-2.194380660209805
1761340612937320700,4.05232080078125,-0.22422785758078098,0.7816976358212531,-2.546113346327841
1761340612947389000,4.062388916015625,-1.8266332433581352,0.6491779017314314,-2.7026681821301577
1761340612957456000,4.072455810546875,-3.187539903280139,0.28455258068935946,-2.4664783763378857
1761340612967523800,4.08252392578125,-4.661290852093696,-0.15634851784156634,-1.355743870331347
1761340612977590800,4.0925908203125,-7.0985127388089895,-0.47595290349405256,0.8182885599851608
1761340612987657700,4.10265771484375,-11.53720888748169,-0.32315796821452675,3.615608371712267
1761340612997725700,4.1127255859375,-17.8251703825593,0.48410727611612525,6.013167817863821
1761340613007792600,4.122792724609375,-25.81608496531248,1.713291526338458,7.181264087253808
1761340613017860900,4.13286083984375,-33.60845382875204,3.3008772363856433,5.932899518406391
1761340613027927800,4.142927734375,-38.107292019176484,4.8354286908596755,3.1054376663938164
1761340613037994800,4.152994873046875,-38.21519476001262,4.898849023629725,0.7794624241150915
1761340613048062700,4.163062744140625,-35.18452591887712,3.156095840485394,-1.134218988098949
1761340613058129700,4.173129638671875,-30.090312436318396,0.9825085235878824,-3.6116166717275977
1761340613068197600,4.18319775390625,-24.119888950681684,-1.2532476647138595,-5.718672830358147
1761340613078264800,4.193264892578125,-18.67562868926525,-3.275504310198128,-6.776915224844217
1761340613088332800,4.203332763671875,-14.0082821903944,-4.760750174233317,-7.00289197191894
1761340613098400000,4.21339990234375,-9.817620306825637,-5.20620144688189,-6.555166909119486
1761340613108467000,4.223467041015625,-5.989527999079227,-4.519845030356944,-5.4149505803018805
1761340613118535000,4.233534912109375,-2.321383676704764,-3.4038363833397627,-3.9382223692432046
1761340613128601900,4.243601806640625,1.0606845269411802,-2.47816355343461,-2.747043622690439
1761340613138669800,4.253669921875,4.044658836919069,-1.5462553362712264,-1.5889911929309368
1761340613148736800,4.26373681640625,6.639675914886594,-0.5368256706731394,-0.16735559474732725
1761340613158805000,4.273804931640625,8.561211547732352,0.3501564132446423,1.0036148783721028
1761340613168872000,4.283871826171875,9.619024903151393,1.4559884976297617,1.7686721989072858
1761340613178939000,4.29393896484375,10.052655389624833,2.260493739195168,2.421306670833379
1761340613189006800,4.3040068359375,10.007790996503829,2.722183614461124,2.8932591430470347
1761340613199073800,4.31407373046875,9.626589785447717,3.001682108364999,3.187908152070641
1761340613209141800,4.324141845703125,9.094164578223229,3.1220465636283157,2.9826793017312885
1761340613219208700,4.334208740234375,8.48400555845499,2.989643880046904,2.2654027001552284
1761340613229277000,4.34427685546875,8.450635788294672,2.644432850782573,1.3663598107613621
1761340613239343900,4.35434375,9.10844620155394,2.082762698242813,0.5851720972236245
1761340613249410800,4.364410888671875,10.25214218918085,1.4054603796586393,0.009374123675376177
1761340613259478800,4.374478759765625,11.468539255881309,0.7672308651819825,-0.33811113413125277
1761340613269545700,4.384545654296875,12.395069579398632,0.13004122428023254,-0.370563131859526
1761340613279613700,4.39461376953125,12.742327019798754,-0.6295457111530005,0.0011965163081884384
1761340613289680600,4.4046806640625,12.999116838288307,-0.7599857163593172,-0.376788947571814
1761340613299747600,4.41474755859375,13.103421262371539,-0.42160961114894596,-0.9324608095448463
1761340613309816800,4.42481689453125,12.510147910952567,-0.41381833621822295,-0.7074919974036514
1761340613319884800,4.434884765625,11.184658016848564,-0.5126549233496189,-0.0662418199315667
1761340613329951700,4.44495166015625,9.69446738988757,-0.5858750578612089,0.2340329930845648
1761340613340018700,4.455018798828125,8.181712464419007,-0.49151576227433974,0.11812610175199806
1761340613350086700,4.465086669921875,7.020301956403255,-0.631193478360027,-0.0059377194859087466
1761340613360153600,4.475153564453125,6.408532578828931,-0.9825679986901581,-0.12494944496601819
1761340613370221800,4.485221923828125,5.966740413209796,-1.1533506087440997,-0.23869323998056352
1761340613380288800,4.495288818359375,5.873956331050396,-1.1553737851347774,-0.38281419921070337
1761340613390356700,4.505356689453125,6.261570331758261,-1.118317508481443,-0.33735300924032924
1761340613400423700,4.515423583984375,6.909672420951724,-1.1713535176202654,-0.20278357607908545
1761340613410490600,4.52549072265625,7.351154789969325,-1.3184062194533646,-0.1860133508030325
1761340613420558600,4.53555859375,7.646906499537825,-1.4278741637796162,-0.33345549034513533
1761340613430625800,4.545625732421875,7.764648497343063,-1.588569168126583,-0.5143624579198658
1761340613440693800,4.55569384765625,7.6697431852459905,-1.7729954689338803,-0.7112785302050412
1761340613450761000,4.565760986328125,7.414162742546201,-1.835999622118473,-0.9686574736941606
1761340613460828700,4.57582861328125,7.0018152825981375,-1.8197957985535262,-1.08228144172132
1761340613470895900,4.585895751953125,6.397184670862555,-1.672032902624458,-1.1201089219428597
1761340613480962800,4.595962890625,5.496320118999481,-1.4586241068303585,-1.4135885949261486
1761340613491030800,4.60603076171875,4.787102174586058,-1.1305874997287988,-1.7964385961025953
1761340613501097700,4.61609765625,4.276600045356155,-0.7901569096740335,-2.075753842394054
1761340613511166000,4.626166015625,3.5982144615799188,-0.5298801623841747,-2.4068165193185207
1761340613521233000,4.63623291015625,2.8827012164145707,-0.15500459241932257,-2.3357335429660973
1761340613531299800,4.6462998046875,1.6510031202077864,-0.040997036468633445,-1.4729007617250085
1761340613541367800,4.656367919921875,-0.6304314079463481,-0.37207211165037,-0.041237142534554
1761340613551435000,4.66643505859375,-4.358924692821502,-0.9413575980320572,1.6889846219472586
1761340613561503200,4.676503173828125,-10.209486119759083,-1.1667268807329236,3.5541543705791234
1761340613571570200,4.686570068359375,-18.062317927467824,-0.1753821397386491,5.548133892866969
1761340613581638100,4.69663818359375,-28.050076189768312,2.135051980667561,7.335715228775143
1761340613591705000,4.706705078125,-37.83701377356052,6.120844933250546,7.336184015330672
1761340613601772000,4.71677197265625,-43.43149616062641,9.688808633473515,5.7760009837329385
1761340613611840000,4.726840087890625,-42.4448091823101,9.727805011343955,4.262345017771422
1761340613621907000,4.736906982421875,-36.06111001596451,6.910321240249276,2.0746960039041937
1761340613631975200,4.74697509765625,-28.304958128809925,3.2258453762769697,-1.6748747019216417
1761340613642042000,4.7570419921875,-21.250971344947814,-0.40461628117412324,-5.99560235055685
1761340613652110000,4.767110107421875,-14.749794969213008,-3.482445225152373,-9.142188896679878
1761340613662177000,4.777177001953125,-9.000542291674018,-5.72500904764235,-9.929225409311055
1761340613672244000,4.787243896484375,-4.6279199128896,-6.844898043224215,-8.464501816561818
1761340613682312000,4.79731201171875,-1.922563806849718,-6.655588938811421,-5.922822945550084
1761340613692379000,4.80737890625,-0.7005892322778702,-5.478655282971262,-3.470455512151122
1761340613702447000,4.817447021484375,-0.2729699689179659,-3.9398534775763747,-1.6437562178194522
1761340613712514000,4.82751416015625,0.30549276686012744,-2.129290494531393,-0.521201765887998
1761340613722582000,4.83758203125,1.2375965065956116,-0.4362489984087646,0.21155695738233624
1761340613732649000,4.84764892578125,2.172685399621725,1.2630587185017763,0.9813895294953137
1761340613742716200,4.857716064453125,2.98389773761034,2.7474697391480207,2.1421932307243345
1761340613752784100,4.8677841796875,3.754152626788616,3.504118712300062,3.4808670160502193
1761340613762851000,4.87785107421875,4.288487467026711,3.6325554148599504,4.354635763455927
1761340613772919300,4.887919189453125,4.61945311331749,2.884853133751452,4.200158902971446
1761340613782986200,4.897986328125,4.965533911153674,1.634746689672768,3.760250943663716
1761340613793053200,4.90805322265625,5.754452584269642,0.6869868233829737,2.4255166897438465
1761340613803121200,4.91812109375,6.916795404699444,0.036318262968678024,0.9920002822935581
1761340613813188000,4.92818798828125,8.71245191051364,0.12507921795868315,0.40370165054723617
1761340613823256000,4.938256103515625,10.964829855531454,0.6704537678636611,0.7114420502036809
1761340613833323000,4.948322998046875,12.915490460574626,0.7937249043539166,1.1021204069182275
1761340613843391200,4.95839111328125,14.250442595028876,0.6387978158839046,1.4018021494120358
1761340613853458200,4.968458251953125,15.017548080265522,0.8060654766194522,1.8361979211695492
1761340613863525000,4.978525146484375,15.124745887702703,0.6848876591466366,1.823088848749548
1761340613873593000,4.988593017578125,14.737421809852123,0.2842584748473018,1.1168621220413595
1761340613883660000,4.998659912109375,13.711457298636436,0.11896609624009578,0.290460434759967
1761340613893728000,5.00872802734375,12.373088049215077,0.27845486660245805,-0.06203278283521067
1761340613903795000,5.018794921875,11.145652871149778,0.41212201716173436,-0.038772624717699364
1761340613913863200,5.02886328125,9.975829339575768,0.40612829317227006,0.1105707910016179
1761340613923930000,5.03893017578125,8.954055265787243,0.5578107006326317,0.23585556886922568
1761340613933997000,5.0489970703125,8.472746497815846,0.8977379442751408,0.3293433788511902
1761340613944065000,5.05906494140625,8.332924770149589,1.2073116237733512,0.5537643113186582
1761340613954132000,5.069132080078125,8.415942076054215,1.2482317362479864,0.7059250403478742
1761340613964200000,5.079199951171875,8.737469447392225,1.1250867103554307,0.6668317779742181
1761340613974267000,5.089266845703125,9.079544516718387,0.8573585145484656,0.4149858090950176
1761340613984334000,5.099333984375,9.267712049880624,0.4387274077536538,0.07673522996045648
1761340613994402000,5.109402099609375,9.371499756613373,0.06319862544392235,-0.1588314754974097
1761340614004469200,5.11946923828125,9.355440017694235,-0.23706636943109333,-0.3471371384887025
1761340614014537200,5.129537109375,9.28925928030014,-0.3484300643760711,-0.5624896156964824
1761340614024604200,5.139604248046875,9.179212513172626,-0.2636027681737207,-0.7622229738920927
1761340614034672000,5.149672119140625,9.052970398047567,-0.4104358541730791,-0.8634858383223414
1761340614044739000,5.159739013671875,9.023875820988415,-0.7675820167072117,-0.8733043447643518
1761340614054806000,5.169805908203125,8.822482311028242,-1.023286962569505,-0.94715254804641
1761340614064874200,5.179874267578125,8.084956556019186,-1.2881352920912206,-1.3086929269514977
1761340614074941200,5.189941162109375,6.893098887291551,-1.4213367248348892,-1.8923457787185907
1761340614085009200,5.200009033203125,5.118264220231771,-1.0507168212868272,-2.4797145822688935
1761340614095076000,5.210076171875,3.01084711933434,-0.13642887035757303,-2.5919243726491925
1761340614105143000,5.22014306640625,0.9569821604043245,0.6154166480354964,-2.3803897001639007
1761340614115211000,5.2302109375,-1.0701461827695369,1.1459355101820081,-1.824220336997509
1761340614125278000,5.24027783203125,-3.5157729097366333,1.1675780907347797,-0.896376008272171
1761340614135346200,5.25034619140625,-6.5485471987187855,0.8464565237186849,1.4571879365473985
1761340614145413000,5.2604130859375,-12.131389416873454,0.4728978633049875,5.284169068181514
1761340614155481000,5.270481201171875,-21.153190185153484,1.1798825687736272,7.853723788112402
1761340614165548000,5.280548095703125,-31.364408827793596,3.7334170050129294,8.01891084318161
1761340614175615000,5.290614990234375,-38.433099844312665,6.013923604667187,6.992787342011928
1761340614185683000,5.300682861328125,-41.21951101627349,6.543039248952269,4.994443194773793
1761340614195750000,5.31075,-40.08888669166565,5.6805105652242895,1.7149039299711584
1761340614205818000,5.320818115234375,-35.24743684082031,3.452383556626737,-1.6665324055120347
1761340614215885000,5.330885009765625,-28.748909518289565,0.26354104631543157,-3.846823311701417
1761340614225953000,5.340953125,-22.26648928095102,-2.314810143533349,-5.173964480143785
1761340614236020000,5.35102001953125,-16.73632066836357,-3.796969147469103,-5.711520035994052
1761340614246087200,5.361087158203125,-12.889450010389089,-4.542497883930802,-5.29411821526587
1761340614256155100,5.371155029296875,-9.943564900308846,-4.754752687384188,-4.485376943565905
1761340614266222000,5.38122216796875,-7.0902177886724465,-5.154221668797731,-3.717486153170466
1761340614276290300,5.391290283203125,-3.9189375307977197,-6.1679930533945555,-3.726812784442305
1761340614286357200,5.401357177734375,-0.667403586512804,-6.5505006708741185,-4.329768448702991
1761340614296424200,5.411424072265625,1.994187612080574,-4.8954134962230915,-3.9833743471339345
1761340614306492200,5.4214921875,3.512686634159088,-1.886463150420785,-2.249567417641729
1761340614316559000,5.43155908203125,3.7242841427475213,1.146031517902389,0.8877780566010623
1761340614326627000,5.441626953125,3.528997717490792,3.3129221867054697,4.169124882282317
1761340614336694000,5.451694091796875,3.2450422441780566,3.658809507796168,5.950992808979749
1761340614346762200,5.46176220703125,3.0219582959353923,3.1893434455707665,5.999731997707486
1761340614356829200,5.4718291015625,3.4598967087358234,2.709859262678027,4.572027929797768
1761340614366896000,5.481896240234375,4.649812011224031,2.064009336325526,2.4881746598392724
1761340614376964000,5.491964111328125,6.259335704573989,1.2711122610978782,0.8791516825530677
1761340614387031000,5.502031005859375,8.379687690368295,0.6742904234170913,-0.09454491781946271
1761340614397099000,5.51209912109375,10.378787039887904,0.3764803565466776,-0.44458070035912095
1761340614407166000,5.522166015625,12.116485277730225,0.2869536139491014,-0.4330681033503264
1761340614417233000,5.53223291015625,13.540436715108155,0.23978633244689554,-0.3350453533524647
1761340614427301000,5.542301025390625,14.381354455530643,0.09467758602211251,-0.19206508859004826
1761340614437368000,5.5523681640625,14.849201099860668,0.08672509264769032,-0.07169190203100442
1761340614447436000,5.56243603515625,14.898966124504804,0.07222248351005837,0.2312632361102849
1761340614457503000,5.5725029296875,14.599120423620938,-0.047182922029332254,0.6118527815414593
1761340614467571000,5.582571044921875,13.909580993145703,-0.14997956733154133,0.9983184524644165
1761340614477638000,5.592637939453125,12.778195621037483,-0.18161559076812117,1.2587744653113186
1761340614487705000,5.602705078125,11.412095484125613,-0.09887425226066261,1.3534396850422024
1761340614497773000,5.61277294921875,9.992581736934184,-0.032932620852068065,1.1851924386847763
1761340614507840300,5.62284033203125,8.791870899665355,0.0553026023639366,0.9670987730100751
1761340614517908200,5.632908203125,7.954367936122417,0.1477958118179813,0.7312558078940957
1761340614527975200,5.64297509765625,7.5276505900382995,0.06433839746303856,0.5480878000522033
1761340614538042000,5.6530419921875,7.440337632766366,-0.20868940258938817,0.3877413168819621
1761340614548109800,5.66310986328125,7.657265396466851,-0.4690758573314175,0.2191021120648831
1761340614558176800,5.6731767578125,8.027123375731707,-0.7044312215935439,-0.03301460004709661
1761340614568244700,5.68324462890625,8.227885017529129,-1.0328536862075328,-0.37810814041160046
1761340614578311700,5.693311767578125,8.291576860716939,-1.3157400689840315,-0.6918181159969419
1761340614588379600,5.703379638671875,8.301001691666245,-1.4362616145052014,-0.9023199383031576
1761340614598446600,5.713446533203125,8.189025417780876,-1.5119675744831562,-0.8842735556114465
1761340614608513500,5.723513427734375,7.990583743363619,-1.5254787979632616,-0.676556176391989
1761340614618581800,5.733581787109375,7.6723308636516325,-1.3993003957241772,-0.6007746669597923
1761340614628648700,5.743648681640625,7.139902149295806,-1.1296839019525795,-0.6476340332902968
1761340614638716700,5.753716552734375,6.344550228261947,-0.8690787629585712,-0.752011011153087
1761340614648783600,5.76378369140625,5.508263654771447,-0.8417506110500543,-1.0418962398409843
1761340614658850600,5.7738505859375,4.789734276655316,-0.8492194856259971,-1.5705293613061309
1761340614668918500,5.78391845703125,4.270823800042272,-0.659896498818323,-1.8352195776566862
1761340614678985500,5.7939853515625,3.4371862797558306,0.04391951348632574,-1.659011216226965
1761340614689053700,5.8040537109375,1.7177835770606993,1.033554820214212,-1.3596769719965756
1761340614699120600,5.81412060546875,-0.824800718358159,1.5540166179224848,-1.0226878276325762
1761340614709188600,5.824188720703125,-3.7636727348059416,1.4710025268882512,-0.6947229705929756
1761340614719255800,5.834255859375,-7.40733669591844,1.178389480671659,-0.2676868043506518
1761340614729322800,5.84432275390625,-13.03849724704027,1.7554400846295057,0.8165458810362964
1761340614739390700,5.854390625,-19.99228061239719,3.702269879338145,2.2391889392293987
1761340614749457700,5.864457763671875,-26.50542799643278,5.934046934875846,3.0649428666591643
1761340614759526000,5.87452587890625,-30.7943059240818,7.124855386811494,2.511109545224905
1761340614769592800,5.8845927734375,-30.288526147198674,6.746625300520658,0.8929175383813679
1761340614779660800,5.894660888671875,-26.41766086565256,4.591264252926409,-0.6982318554967641
1761340614789727700,5.904727783203125,-22.358745539844033,2.3483272132098674,-2.259789244187623
1761340614799794700,5.914794677734375,-18.884160380542276,0.592769785811007,-3.6831580593720075
1761340614809862700,5.924862548828125,-16.035600503182412,-0.5945835572347045,-4.217328941220045
1761340614819929600,5.9349296875,-13.648742776048183,-1.496146905016899,-3.961651175625622
1761340614829997800,5.944997802734375,-11.936850010591744,-2.0895250319845973,-3.1474852485284206
1761340614840064800,5.955064697265625,-10.752013618803023,-2.2152456074535847,-2.2212487933911382
1761340614850131700,5.965131591796875,-9.843234056031703,-2.2282412826269864,-1.6568325570136309
1761340614860199700,5.97519970703125,-9.245061826655268,-1.6906752053827045,-1.293178108564019
1761340614870266600,5.9852666015625,-8.833947707894444,-0.18539989507980645,-0.8918841767456382
1761340614880334600,5.99533447265625,-8.01739693148732,1.297400694695115,-0.10956446350328623
1761340614890401500,6.005401611328125,-6.684773532241582,2.060654911331087,0.8610302618637681
1761340614900469800,6.0154697265625,-5.080205999994278,2.17180467126444,1.42402508713603
1761340614910536700,6.02553662109375,-3.227096253120899,2.108077464502305,1.2419625928506255
1761340614920603600,6.035603759765625,-0.7994897514909506,1.9205188570186496,0.7765149724863469
1761340614930671600,6.045671630859375,1.8877818318039177,1.476684810308367,0.646884822358191
1761340614940738600,6.055738525390625,4.466341111445427,0.919477774657309,0.6879976809259504
1761340614950806500,6.065806640625,6.641878393366932,0.3659324763841927,0.8632525410231202
1761340614960873700,6.075873779296875,8.222346672624349,-0.07785261661782861,1.0622820983309298
1761340614970940700,6.085940673828125,9.200736362716555,-0.36399785505980253,1.1986643530678003
1761340614981009000,6.0960087890625,9.860215585970877,-0.7738155042693018,1.300968616309762
1761340614991075800,6.106075927734375,9.94118940334916,-1.3210334992170334,1.255929597274214
1761340615001143800,6.116143798828125,9.649904610061645,-1.7757646413862704,0.8141891618423164
1761340615011210800,6.126210693359375,9.510907642781733,-2.0695999959394333,0.3740167794447392
1761340615021278700,6.13627880859375,9.60351403028667,-2.4459411997437477,0.23531353441439568
1761340615031345700,6.146345703125,9.786551799345016,-2.861735585275292,0.07801876696497201
1761340615041412600,6.15641259765625,10.354917504000664,-3.0696736945733427,0.03713975368570536
1761340615051480800,6.166480712890625,11.205251892066002,-2.919700282987952,0.46915670401528475
1761340615061547800,6.1765478515625,12.064622988545894,-2.7068279321581126,1.0831856970846652
1761340615071615700,6.18661572265625,12.752694100034237,-2.645820798009634,1.623218018312007
1761340615081682700,6.1966826171875,13.06056061028838,-2.7581337565034625,1.964422003892064
1761340615091749600,6.20674951171875,12.9656330863595,-2.8687960251808167,2.0275328323215245
1761340615101817600,6.216817626953125,12.50314884584546,-2.9757991868287323,1.8571185441233216
1761340615111884500,6.226884521484375,11.474037268775701,-3.110478875431418,1.4452221889436243
1761340615121952800,6.236952880859375,9.905542920428514,-3.0103514447718855,1.168847672279179
1761340615132019700,6.247019775390625,7.989681826087832,-2.669528713594377,0.8528573306716978
1761340615142087700,6.257087646484375,6.171296771115064,-2.294850766827166,0.7280357498690485
1761340615152154600,6.267154541015625,4.811038345968723,-2.071308553422987,0.6939356196075678
1761340615162221600,6.2772216796875,4.175532703498005,-2.059645295897126,0.7982228002950549
1761340615172289500,6.28728955078125,4.35104007705152,-2.284756950575113,0.8819463547728955
1761340615182356500,6.2973564453125,5.042963187792897,-2.530643097734451,0.8812654598366468
1761340615192424700,6.3074248046875,5.797471641784906,-2.712944369211793,0.6829468272771686
1761340615202491600,6.31749169921875,6.414809759402274,-2.930333320683241,0.26580373055040835
1761340615212558800,6.327558837890625,6.511918134501576,-2.96086465254724,-0.1220675328541547
1761340615222626600,6.33762646484375,6.223146785339713,-2.552234751817584,-0.4010303124461323
1761340615232693800,6.34769384765625,5.326896449273824,-1.7513471162274479,-0.5445802668552845
1761340615242761700,6.35776171875,4.027130194491148,-0.7664709867253899,-0.7708706099238246
1761340615252828700,6.36782861328125,2.929512651950121,0.23138927364274858,-0.5292601673223077
1761340615262895600,6.3778955078125,1.607342257657647,1.1212355878852307,-0.18686554718557744
1761340615272963800,6.3879638671875,0.2668026784598827,1.8778389683298766,-0.060298036031052465
1761340615283030800,6.39803076171875,-0.5621089823484421,2.1198355607047676,0.23419950875788925
1761340615293098800,6.4080986328125,-1.0784323650777339,1.883906159414351,0.7792305881205945
1761340615303165700,6.418165771484375,-2.4530220979154107,1.8802311241634189,1.0819711336631328
1761340615313233700,6.428233642578125,-5.196345823299884,2.735254692958295,0.7155028699018061
1761340615323300600,6.438300537109375,-8.851029775598645,3.709610889750719,0.016464228066802023
1761340615333367600,6.448367431640625,-12.115906601059436,4.215539135193825,-0.44812641014195975
1761340615343435800,6.458435791015625,-14.768653983461856,4.066604711267352,-0.7651273170314729
1761340615353502700,6.468502685546875,-17.05691455824375,4.124611494556069,-1.1768031613282859
1761340615363570700,6.47857080078125,-18.50669952505827,4.325310884772241,-1.8974542077735066
1761340615373637600,6.4886376953125,-17.882306228232384,3.742690737053752,-2.395200900326669
1761340615383704600,6.49870458984375,-15.425365495568514,2.2244052115954456,-2.4567750207081436
1761340615393772500,6.5087724609375,-12.641027038228511,0.7329656074866652,-2.747855523595214
1761340615403839500,6.518839599609375,-10.026299297618865,-0.19138357259929178,-3.169524061857164
1761340615413907700,6.52890771484375,-7.869135292255878,-0.9978371717534958,-3.260297680976987
1761340615423974700,6.538974609375,-6.005461481270194,-1.8879649332858621,-3.054965078002214
1761340615434042600,6.549042724609375,-4.288873835995793,-2.762901993818581,-2.686067175941169
1761340615444109600,6.559109619140625,-3.0814982801407576,-3.0859868237316608,-2.0226025363124904
1761340615454176800,6.5691767578125,-2.6455758833378553,-2.4765701467633248,-1.2728674342021344
1761340615464244500,6.579244384765625,-2.8909172560960053,-1.4048559840247035,-0.3656510290943086
1761340615474311700,6.589311767578125,-3.6759015123724934,-0.4605186395294964,0.5740589478611946
1761340615484379600,6.599379638671875,-4.706744443279504,0.23245529543906449,1.1393611002277582
1761340615494446800,6.60944677734375,-5.470124185991287,0.732773884306848,1.2703119045004247
1761340615504513800,6.619513671875,-5.600384304586052,1.0448857770457862,1.2125779468037188
1761340615514581800,6.629581787109375,-5.015156312456726,1.1373065788507462,1.0106045911289752
1761340615524648700,6.639648681640625,-3.781414727723598,1.2269222601071,0.9032171794038265
1761340615534716700,6.649716552734375,-2.1785668588757514,1.1722035585783421,0.8568851979482919
1761340615544784600,6.65978466796875,-0.580274169114232,1.2786270206421613,1.010596261692047
1761340615554852600,6.6698525390625,0.8861696715563535,1.3897902245789766,1.1919745731055735
1761340615564919600,6.67991943359375,2.0348340952455994,1.3400963654749094,1.2561904401674866
1761340615574986500,6.689986572265625,2.6721459103554484,1.2296114991910756,1.088441060329601
1761340615585054700,6.7000546875,2.866442740052938,1.3090668748304246,0.729435387533903
1761340615595121700,6.71012158203125,2.7887439988225697,1.369540194363147,0.38751616635657843
1761340615605189600,6.720189697265625,2.520971598547697,1.190921849182248,0.1543820218078792
1761340615615256600,6.730256591796875,2.160820189782977,1.2302166254773734,-0.037151992112770676
1761340615625323500,6.740323486328125,2.0457354284882543,1.452439719107002,-0.13440474411882458
1761340615635391500,6.7503916015625,2.4335031584531066,1.4407656479261814,0.047480420838296414
1761340615645458400,6.76045849609375,3.2474265089660883,1.2243453953564167,0.32636209801807997
1761340615655526700,6.770526611328125,4.367274003493786,0.8423805064514279,0.47478301946446294
1761340615665593600,6.780593505859375,5.245636800691485,0.15443842817023395,0.3004801993951201
1761340615675660500,6.79066064453125,5.5604953617900605,-0.43015331188216804,-0.10411708481758833
1761340615685728500,6.800728515625,5.375870615801215,-0.6134761814922094,-0.37748767042569814
1761340615695795500,6.81079541015625,5.076280350983143,-0.45770307065211235,-0.2961061490293592
1761340615705863400,6.820863525390625,4.758835865044594,-0.2639407131575048,0.05815108713023364
1761340615715930400,6.830930419921875,4.500747823438048,-0.18516287145353852,0.43335598038099704
1761340615725998600,6.84099853515625,4.343949826529622,-0.4128537289697677,0.45913624526038765
1761340615736065500,6.8510654296875,4.096727462330461,-0.8320723898615687,0.04028641768097877
1761340615746132700,6.8611328125,3.571531621837616,-1.2507961799085139,-0.589173076493293
1761340615756200400,6.871200439453125,2.7432529982358216,-1.6123533638179302,-0.9284493819463997
1761340615766267600,6.881267578125,1.5688661042690277,-1.559993646505475,-0.7755918662920593
1761340615776335400,6.89133544921875,0.9085106827020645,-1.1632131735235451,-0.3784973589248955
1761340615786402600,6.901402587890625,0.8581026839792728,-1.0129738775435835,0.12783837134055792
1761340615796469500,6.911469482421875,1.1985562895834445,-1.111841152074188,0.2852757621310651
1761340615806537700,6.921537841796875,1.6507991220682858,-1.1368453180145472,0.14942045387774705
1761340615816604700,6.931604736328125,1.8779449129223822,-1.21344062804766,0.08044555572047829
1761340615826672600,6.941672607421875,1.4133762673497199,-1.2858530263729393,-0.0876744109954685
1761340615836739600,6.951739501953125,-0.03888298062384128,-1.1736436013188212,-1.8737123899191617
1761340615846807600,6.9618076171875,-1.5382254668116568,-1.3557394864171743,-2.503327220785618
1761340615856874500,6.97187451171875,-2.4913708255320786,-0.7779083996061236,-1.6194968058317898
1761340615866941400,6.98194140625,-2.2272212919294834,-0.0908629048384726,-2.2103867692455648
1761340615877009700,6.992009765625,-1.0523404769659042,0.3563983398415148,-1.160196529116109
1761340615887076600,7.00207666015625,-0.9170318428099155,1.016417953582853,-0.6741389591824263
1761340615897144600,7.01214453125,-2.156407634037733,1.177900820371881,-0.5443339639440179
1761340615907211500,7.02221142578125,-3.269667566868663,1.325041858075559,-0.3688602734643966
1761340615917278500,7.032278564453125,-3.9860745460033415,1.4672683087959886,-0.45651239956282075
1761340615927346400,7.042346435546875,-4.362051300409436,1.4367038053147494,-0.4270302844908088
1761340615937413400,7.052413330078125,-4.0541251689225435,1.349568688827753,-0.19755444325394927
1761340615947481600,7.062481689453125,-3.0100591838270425,1.0055041992500424,-0.04347052760981023
1761340615957548500,7.072548583984375,-1.564581558817625,0.6355826532296835,-0.04173690875023603
1761340615967615500,7.082615478515625,-0.08296762154400349,0.3605926497261971,0.07329279788900166
1761340615977683500,7.092683349609375,1.2242425195038318,0.05337415505200624,0.3573866202265024
1761340615987750700,7.102750732421875,2.3305273526251313,-0.23600860400646922,0.6130825059995055
1761340615997818400,7.112818359375,2.909459459480643,-0.3959327701114118,0.8294172722429036
1761340616007885600,7.122885498046875,2.8278590346366164,-0.4113869443528354,0.912213628873229
1761340616017953500,7.13295361328125,2.49933142914772,-0.49096463119760153,0.8639506793551146
1761340616028020700,7.143020751953125,2.278593751770258,-0.6913209801297634,0.7838279258482158
1761340616038087700,7.153087646484375,2.1032190646857023,-0.6447001717954873,0.6701388566955924
1761340616048155600,7.16315576171875,1.7415771251022816,-0.39001616647876797,0.5709484146252274
1761340616058222600,7.17322265625,1.0349778387546538,-0.04328209236562252,0.5457583707239478
1761340616068290600,7.18329052734375,0.22605098135471344,0.1920809072136879,0.45128597015142435
1761340616078357500,7.193357421875,-0.5917910039067268,0.2012001793451607,0.4033544810773805
1761340616088424400,7.203424560546875,-1.0716694468140602,0.20720723774023353,0.30378355178944766
1761340616098492700,7.21349267578125,-1.0942360834091902,0.16677184004262088,0.17612313083168118
1761340616108559600,7.2235595703125,-1.0059235937058926,0.07695427953861653,0.14811024806201456
1761340616118627600,7.233627685546875,-0.9110410779625177,0.09932524743117392,0.04933255151100457
1761340616128694500,7.243694580078125,-0.7264601711153984,0.15725363172143697,-0.10243998191822319
1761340616138761500,7.253761474609375,-0.5540682992339134,-0.04707483571209013,-0.23109876626357434
1761340616148829400,7.263829345703125,-0.490285855153203,-0.3686841131798923,-0.42951753472927956
1761340616158896400,7.273896484375,-0.3046528089046478,-0.5428004707664251,-0.542044209039025
1761340616168964600,7.283964599609375,0.1305155546605587,-0.7572834716632961,-0.38164837030172344
1761340616179031600,7.294031494140625,0.5707908859759568,-0.980551982692629,-0.02995652765072882
1761340616189099500,7.304099609375,0.904878463679552,-0.9114888217300177,0.20427553166989235
1761340616199166500,7.31416650390625,1.0718664306908845,-0.8077152896530926,0.2771961717782542
1761340616209233400,7.3242333984375,0.7937211049616336,-0.8583260444063693,0.4033573306215927
1761340616219301400,7.33430126953125,0.1818453444033861,-0.7940282712146639,0.4003758671253919
1761340616229368600,7.34436865234375,-0.4362310243606567,-0.5679092661250382,0.29899376022964713
1761340616239436500,7.3544365234375,-0.837546218162775,-0.45841545670516787,0.23597375188879668
1761340616249503500,7.36450341796875,-1.0408411778301,-0.5203479620702565,0.20383235447965561
1761340616259570700,7.37457080078125,-1.077061661246419,-0.5078182969734072,0.015445516010932624
1761340616269638700,7.384638671875,-0.8709002062320709,-0.5237071363050491,-0.3357589815145358
1761340616279705600,7.39470556640625,-0.5212473951280117,-0.6805870393432676,-0.5149638944117352
1761340616289773600,7.404773681640625,-0.2536842536896467,-0.7203432226050644,-0.4505326675660908
1761340616299840500,7.414840576171875,-0.07541150707602501,-0.7867210900064557,-0.41766237136051054
1761340616309907500,7.424907470703125,0.0944347719758749,-0.7652454635184258,-0.3416631275244057
1761340616319975700,7.4349755859375,0.08040975375473498,-0.5699957900755107,-0.3051206821447238
1761340616330042600,7.445042724609375,0.0015267711758613586,-0.4506272139817476,-0.1578507208317518
1761340616340110600,7.455110595703125,-0.11555120976269244,-0.4692308652300387,-0.0523902585811913
1761340616350177500,7.465177490234375,-0.14445464816391468,-0.44937027272321284,-0.12546079202163965
1761340616360245500,7.47524560546875,-0.19803075552880764,-0.37224648183658715,-0.12882665172554553
1761340616370312400,7.4853125,-0.3759767544060945,-0.3761333332072943,-0.01994037974476814
1761340616380379400,7.49537939453125,-0.47643093280196186,-0.3624504064220935,0.09291541692148894
1761340616390447600,7.505447509765625,-0.40226211926341054,-0.34965639130063353,0.16850399759747087
1761340616400514600,7.5155146484375,-0.38672026673853394,-0.38396833768188954,0.2767215765364468
1761340616410582500,7.52558251953125,-0.4535258580327034,-0.365063730725646,0.2702698065811768
1761340616420649500,7.5356494140625,-0.2835129902422428,-0.2937370087452233,0.2693543722366914
1761340616430716400,7.54571630859375,0.15530103634893894,-0.2288206652637571,0.4537716129546985
1761340616440784400,7.555784423828125,0.6290519362866878,-0.1980745216052979,0.778228790666908
1761340616450851300,7.565851318359375,0.8940916967272758,-0.2079862592887133,0.9412280533682554
1761340616460919600,7.57591943359375,1.0298334616035223,-0.20864530771933495,0.9143046098031103
1761340616470986500,7.585986572265625,0.954942763531208,-0.1540668183788657,0.8537757606908678
1761340616481054500,7.596054443359375,0.5255640892833471,-0.13684095828980206,0.8055791544072329
1761340616491121400,7.606121337890625,0.23370529550015925,-0.06742942228093743,0.6453113624963909
1761340616501188600,7.616188720703125,0.2552811674922705,-0.08258709779381751,0.5835713840287179
1761340616511256600,7.626256591796875,0.38105215797424313,-0.0859010446473956,0.6370284681238234
1761340616521323500,7.636323486328125,0.5036123697161674,0.08439641223810612,0.7917055273555219
1761340616531391700,7.646391845703125,0.5224737220525741,0.24848683117702602,0.976045172792673
1761340616541458700,7.656458740234375,0.3985597576141357,0.3244819102946669,1.0616675466291605
1761340616551525600,7.666525634765625,0.028780688804388044,0.25664273816905914,0.8040259336158633
1761340616561593600,7.676593505859375,-0.27335750693082805,0.1398001734215766,0.2647123916497454
1761340616571660500,7.68666064453125,-0.1901771194189787,-0.06757686792761088,-0.22022366344071923
1761340616581728500,7.696728515625,0.02393149520754814,-0.2826130457278341,-0.5146645096063613
1761340616591795500,7.70679541015625,0.1326502286016941,-0.455481083753705,-0.5736481020379811
1761340616601862400,7.7168623046875,0.010879705932736397,-0.5923119590409099,-0.48187210094258187
1761340616611930600,7.7269306640625,-0.16653846967816352,-0.6667902038548141,-0.32767029453981666
1761340616621997600,7.73699755859375,-0.2782897026360035,-0.5959269346676767,-0.1591361575324088
1761340616632065500,7.7470654296875,-0.2460907298207283,-0.47749834283776577,0.026406945410370825
1761340616642132500,7.757132568359375,-0.17303659952580927,-0.44671120958179233,0.015378770917654036
1761340616652199400,7.767199462890625,-0.14110475321412086,-0.42465018442124125,-0.16467435630671678
1761340616662267400,7.777267333984375,0.5287514871478081,-0.42520913347825406,-0.2025975519876927
1761340616672334300,7.787334228515625,1.5471967087745666,-0.42201589039489623,0.22383191706575453
1761340616682402600,7.797402587890625,1.8809832577049732,-0.5277312041893601,-0.13233064125850796
1761340616692469500,7.807469482421875,2.0253847143769264,-0.7253474606331437,-0.6581952478583901
1761340616702536700,7.81753662109375,2.0390473290264604,-0.8300449756871908,-0.8222782141432166
1761340616712604400,7.8276044921875,1.908712391629815,-0.39970827006213366,-0.7812302375052124
1761340616722671600,7.837671630859375,1.7903788576722144,0.1600325218502432,-0.418379579719156
1761340616732739300,7.8477392578125,1.5897387964278458,0.46269313402436674,-0.11901494035050272
1761340616742806500,7.857806640625,1.6758692659169434,0.7523973070569336,0.03204206522051245
1761340616752874500,7.86787451171875,1.9383312848240135,0.8898026212312281,0.15462587703373282
1761340616762941700,7.877941650390625,1.8283347865790127,0.81321242576465,0.1295772874297574
1761340616773008600,7.888008544921875,1.0834978317737578,0.7022820076704025,0.10356361565329134
1761340616783076600,7.89807666015625,-0.46048576017320153,0.3535151125553995,0.3395118677746504
1761340616793143600,7.9081435546875,-2.5299428405106066,-0.29473471454568206,0.3973845032896846
1761340616803211500,7.91821142578125,-4.64116108725667,-1.2138664522442966,0.38318365357760337
1761340616813278500,7.928278564453125,-7.004834922680258,-2.2649556870400906,0.533954535683617
1761340616823345400,7.938345458984375,-9.985749845087527,-2.6007065217807885,0.18081541683375835
1761340616833413600,7.94841357421875,-14.548570970600842,-1.4418286009825765,-1.0952592889770865
1761340616843480600,7.95848046875,-20.246239006853102,0.5965271655831486,-3.00096226965785
1761340616853548500,7.968548583984375,-22.70268055782318,2.0438338326506313,-4.533063408370316
1761340616863615500,7.978615478515625,-20.07848122451305,2.01524662059173,-4.473870045645535
1761340616873682400,7.988682373046875,-14.815021766883135,0.6976064901400357,-3.59755921254158
1761340616883750400,7.99875048828125,-9.501391041895747,-0.33796953370347615,-3.107306675136089
1761340616893816600,8.008816650390624,-5.57638734292686,-1.0935306385535746,-3.3580577979832884
1761340616903883500,8.018883544921875,-2.786736750653386,-1.8869126477539537,-3.755853585487604
1761340616913951700,8.02895166015625,-0.251356103003025,-1.9878990333303808,-3.7059754558578133
1761340616924018700,8.039018798828126,1.8005986383914947,-1.4018683465160429,-3.364483154855668
1761340616934086700,8.049086669921875,3.1592034511119125,-0.08148450684677809,-2.6959567017927766
1761340616944153600,8.059153564453124,3.588333119034767,1.4361305354714393,-1.023576447035372
1761340616954220500,8.069220458984375,3.161397746285796,2.435332127445936,0.9228449130028485
1761340616964288500,8.07928857421875,2.8842139590650797,3.0831039617717266,2.1089393420286475
1761340616974355500,8.08935546875,3.2965579118818042,3.563381048607826,2.788374580988288
1761340616984423700,8.099423583984375,4.280770609039068,3.791564950338006,3.365591408358514
1761340616994490600,8.10949072265625,5.6861722442477936,3.785195415306091,3.900241890417039
1761340617004557600,8.1195576171875,7.100186809501052,3.6772049961864948,4.187193915197253
1761340617014625500,8.12962548828125,8.34782247955203,3.642725511218607,4.124770776771009
1761340617024692500,8.1396923828125,9.43942704541385,3.515563650900125,4.086899019016325
1761340617034760400,8.149760498046875,10.528324105882644,3.1962758751824496,3.995712142920494
1761340617044827400,8.159827392578125,11.690185280275344,2.78958220321238,3.8495749484971165
1761340617054895600,8.1698955078125,12.67918696527481,2.3308828880645334,3.5700308618858454
1761340617064962600,8.179962646484375,13.25985802475214,1.9820754417434334,3.1588159130990503
1761340617075029500,8.190029541015624,13.37927467777133,1.667365641465783,2.6698244816705583
1761340617085097500,8.200097412109375,13.197067514318228,1.3952983204759657,2.1241554697304963
1761340617095164400,8.210164306640625,12.822099060171842,1.071514110121876,1.720481876233965
1761340617105232400,8.220232421875,12.153166364395618,0.6973186861746012,1.365888101596385
1761340617115299600,8.230299560546875,11.380980214893818,0.5266466603556648,1.0843336250107736
1761340617125366500,8.240366455078124,10.63665237865448,0.42195261590033767,0.9659979721613228
1761340617135434800,8.250434814453126,9.852651872718333,0.355883741382882,0.9565198035895824
1761340617145501700,8.260501708984375,8.973652531182765,0.4989616943661123,1.0680685727778823
1761340617155569700,8.270569580078124,8.203930141445994,0.6731584967777132,1.0883645610272883
1761340617165636600,8.28063671875,7.673388263750076,0.7497263342820107,0.9867831321671604
1761340617175703600,8.29070361328125,7.219030046546459,0.5990937281355262,0.7830082069631665
1761340617185771500,8.300771484375,6.752428433841467,0.1657990129550919,0.5650618773372843
1761340617195838500,8.31083837890625,6.1931736718803645,-0.8441920128528029,-0.2335342132495716
1761340617205906700,8.32090673828125,5.354341505560279,-2.1751219791188836,-1.449012521137297
1761340617215973600,8.3309736328125,4.761182135909795,-3.1852000621557233,-2.388026478652656
1761340617226040600,8.34104052734375,3.888834068956971,-3.886907192547619,-3.127762603187561
1761340617236108500,8.351108642578126,2.1387784538447856,-3.9581834995150564,-3.3843542687565087
1761340617246175500,8.361175537109375,-0.37304070095419883,-3.243455851769447,-2.854128909663856
1761340617256243500,8.371243408203124,-3.2316286358535287,-1.8894415817096828,-1.121051974946633
1761340617266310400,8.381310302734375,-5.957853342399001,-0.07474215644709765,1.423576612716168
1761340617276379600,8.391379638671875,-7.337104637306928,0.0641572093769675,3.146654350662231
1761340617286446600,8.401446533203124,-7.517551805350184,-0.5662340263891965,2.061870278470218
1761340617296514600,8.4115146484375,-9.372508056873082,0.5751933587186038,-1.0784818302426487
1761340617306581500,8.42158154296875,-13.303725223529337,1.17859983548671,-3.767292971129715
1761340617316648400,8.4316484375,-17.710309493148326,1.551761532472074,-4.543177098366618
1761340617326716400,8.44171630859375,-21.766052034139634,2.4434201568335294,-4.940709851020574
1761340617336783600,8.45178369140625,-23.612650207161902,3.7361519829347727,-5.037070038101077
1761340617346851600,8.4618515625,-23.131588691949844,4.208041472914815,-4.475673880197108
1761340617356918500,8.47191845703125,-19.78905637987852,2.52197346906662,-3.5207407612770796
1761340617366986500,8.481986572265624,-15.80167250484228,-2.9575135885536668,-3.266220349024236
1761340617377053400,8.492053466796875,-12.604633536332845,-8.665361073514818,-5.108415026390552
1761340617387120400,8.502120361328124,-10.823138242340088,-12.299589097762107,-9.351824749806523
1761340617397188400,8.512188232421876,-9.107734838414192,-11.80530102123022,-12.122175013804435
1761340617407255600,8.522255615234375,-7.158059152755141,-8.924629849338531,-9.674670802527665
1761340617417323500,8.532323486328124,-6.3106701704919335,-4.729508356012404,-4.110847757619619
1761340617427390500,8.542390380859375,-6.430941979035735,-1.6666802895501256,0.933090412685275
1761340617437457700,8.552457763671875,-5.4671863789737225,-0.47741051842384036,1.503609203721583
1761340617447525400,8.562525390625,-4.887124391305447,0.8546607268318533,1.2747159846782683
1761340617457592600,8.572592529296875,-5.122360549634695,3.116551765604317,1.6172205314628778
1761340617467660500,8.58266064453125,-5.294893875813484,4.862092825901508,2.607542797541618
1761340617477727700,8.592727783203125,-4.1864264379560945,6.2167410099506375,3.978458225780725
1761340617487794700,8.602794677734375,-1.7403718409657478,6.768527920249104,5.3743958670735354
1761340617497862700,8.612862548828126,1.1651713218539952,6.573233896207809,6.2027715213090175
1761340617507929600,8.6229296875,3.689595691204071,6.2128948559165,6.326748029589653
1761340617517997600,8.63299755859375,5.892288106554746,5.496659726217389,5.804206502997875
1761340617528064500,8.643064453125,7.831332508084177,4.281431995557249,4.887561321417987
1761340617538131500,8.65313134765625,9.18110636409521,3.0205101429536936,3.7208190969854593
1761340617548199200,8.66319921875,9.970680870771407,2.048084621962905,2.5448110315576193
1761340617558266000,8.67326611328125,10.149143586999177,0.8877319524370133,1.4659613178506492
1761340617568334000,8.683333984375,9.543058684802055,-0.09241612562984228,1.079483481565863
1761340617578401000,8.693401123046876,8.969091506877541,-0.2772112597495317,1.222209260110557
1761340617588469000,8.703468994140625,8.46580179324448,-0.6220284673906863,1.5692198861427604
1761340617598536000,8.713535888671874,8.105713512843847,-1.134704871919751,1.9052467613458632
1761340617608603000,8.723602783203125,8.286609009176493,-1.6177144524596632,1.9093772852793334
1761340617618671000,8.733671142578125,8.55400030117929,-2.273429500874877,1.708784716438502
1761340617628738000,8.743738037109376,8.559744982311129,-2.762834481540322,1.2609132309056819
1761340617638806000,8.753805908203125,8.721089974999428,-2.8879513920277353,0.8863811954151839
1761340617648873200,8.763873291015624,9.16053586975336,-3.1714184973016377,1.0267508392877875
1761340617658940200,8.773940185546875,9.05723448523283,-4.2393443736732,0.6124672236453741
1761340617669008100,8.784008056640625,8.86092514666915,-4.618291083800792,0.9040414283335209
1761340617679075000,8.794074951171876,8.993268501278758,-4.409425630524754,0.9200330704525113
1761340617689143300,8.804143310546875,7.712747629714012,-4.750801903931796,-0.2588259274270385
1761340617699210200,8.814210205078124,6.00121551426351,-4.52312390589714,-1.467545079910755
1761340617709277200,8.824277099609375,4.952924604949355,-3.9334272439211606,-1.5397952003464102
1761340617719345200,8.83434521484375,4.724425645920634,-3.127218413308263,-1.0918906162615865
1761340617729412000,8.844412109375,5.246603015375137,-1.2125377609238028,-1.1322631047908216
1761340617739480000,8.85447998046875,4.775532148301601,-1.6661035125754773,-2.166271733187139
1761340617749547000,8.864547119140624,3.128881378084421,-1.719337820765376,-2.5478259954646227
1761340617759614000,8.874614013671875,1.8003887950330972,-0.3536744678355753,-1.7645397752776741
1761340617769682200,8.88468212890625,1.1618629279583692,0.15257599529922009,-0.657863531685993
1761340617779749000,8.8947490234375,1.0598527522921561,-0.016285729694738984,0.33987858219519257
1761340617789817000,8.904817138671875,0.2260351992636919,0.024582798723131415,0.5831023782774806
1761340617799884000,8.914884033203125,-1.6564754141390323,-0.13325133630000055,0.1855772244080901
1761340617809951000,8.924950927734375,-3.4137539662420746,-0.5512320528946817,-0.049707595368474716
1761340617820019000,8.93501904296875,-5.221428826630115,0.3979539006754756,-0.5388753332119435
1761340617830086000,8.9450859375,-7.5153838136613365,1.468114111970365,-2.2935617499299346
1761340617840154000,8.955154052734375,-9.946296955621241,1.4560945883527396,-4.456600930936634
1761340617850221000,8.965220947265625,-12.064019761955738,1.7389081981539725,-5.525345722475648
1761340617860288300,8.975288330078126,-13.139183480626343,2.911471676085889,-4.749746841920912
1761340617870356000,8.98535595703125,-12.800144417995213,4.08933413720876,-3.2392250823318958
1761340617880423200,8.995423095703124,-10.526488707149028,4.363505590870976,-1.821854630779475
1761340617890491100,9.0054912109375,-7.1994064776659,3.7031454931288956,-1.435209621234238
1761340617900558000,9.01555810546875,-4.114992602339386,2.285025538383424,-1.9248942956238984
1761340617910626000,9.0256259765625,-2.2000959691166875,0.44714887034669515,-1.7704760334588587
1761340617920693200,9.035693359375,-1.5980308239549397,-0.5520097592689096,-0.6931038449585437
1761340617930760200,9.04576025390625,-1.6848703184962273,-0.8402696517772972,0.06105462655201554
1761340617940828200,9.055828125,-2.329144373834133,-1.356226685412228,0.17984072658270597
1761340617950895000,9.06589501953125,-3.550564237132668,-2.0787644223868846,0.35989553430750965
1761340617960963000,9.075963134765624,-4.63950162961185,-2.02906106480211,0.5082192789897322
1761340617971030000,9.086030029296875,-4.778135024276375,-1.91284803012982,0.9131329356752336
1761340617981097000,9.096096923828124,-4.476914527907967,-1.973654381009191,1.1278618741571902
1761340617991165200,9.106165283203126,-3.6003666711777447,-1.6859190968967974,1.6962268481604754
1761340618001232100,9.116232177734375,-2.721010186767578,-1.2452641186140476,2.0945815847218037
1761340618011300000,9.126300048828124,-2.150270154196024,-1.231788843230158,1.9164207740500567
1761340618021367000,9.136366943359375,-1.5900561918139458,-1.155273831891641,1.555984849255532
1761340618031434000,9.14643408203125,-0.7517302214503288,-0.8973662614185363,1.2241995571449398
1761340618041502000,9.156501953125,0.09208674754500389,-0.6453487718973309,1.059150887633115
1761340618051569000,9.16656884765625,0.7426555191129446,-0.5422440059274435,0.7734513471320271
1761340618061637000,9.17663720703125,1.2963316041588782,-0.4749124179977923,0.5227369030334055
1761340618071704000,9.1867041015625,1.5691384914696216,-0.13722835017219184,0.5945039161272346
1761340618081771000,9.19677099609375,1.9994927327513694,-0.16624167868867515,0.40669031096920366
1761340618091839000,9.2068388671875,1.9985323632866143,-0.9724912797033787,-0.9609396658584475
1761340618101906200,9.21690625,1.5544979716986418,-1.2033653703656046,-2.403842179682851
1761340618111974000,9.226973876953124,1.5389379989951848,-1.1931661209776996,-2.0485152684651315
1761340618122041000,9.237041015625,1.9861340694844722,-0.8047140620104968,-1.099177046942711
1761340618132108000,9.24710791015625,2.802313089969754,-0.5786746249631047,-0.46347237476855513
1761340618142176300,9.25717626953125,3.079533702069521,-0.32425095108300445,0.14835107108056544
1761340618152243200,9.2672431640625,3.288068900477886,0.32321305940262973,0.7826525984585285
1761340618162311200,9.277311279296875,3.798176477432251,0.6330640214722603,1.721839428322762
1761340618172378000,9.287378173828126,3.9602649819642304,0.5712026816472411,1.36755325832963
1761340618182445000,9.297445068359375,3.321963571295142,0.03448547631725669,-0.04030234590247273
1761340618192513000,9.307512939453124,2.560878661522269,-0.47789143380858,-0.7138505726501345
1761340618202580000,9.317580078125,1.5023884297549723,-0.46137657153308387,-0.7247457684129476
1761340618212648200,9.327648193359375,0.5158633640021085,-0.642300051851198,-0.5393653817512095
1761340618222715100,9.337715087890626,0.08090951997041702,-0.4890682229917496,-0.5077839563123882
1761340618232782000,9.347781982421875,-0.16998773334920406,-0.07262012279182672,-0.1579581267289817
