time,seconds_elapsed,z,y,x
1761340608970754000,0.085754150390625,0.13888977468013763,-0.09889563173055649,0.4417598247528076
1761340608980821200,0.0958212890625,0.10817999392747879,-0.24143826961517334,0.37292662262916565
1761340608990889000,0.105888916015625,0.04310831055045128,-0.3759225904941559,0.28518104553222656
1761340609000956200,0.1159560546875,-0.02471732720732689,-0.4673098623752594,0.20863984525203705
1761340609011024100,0.126024169921875,-0.03629675507545471,-0.4920804798603058,0.15431322157382965
1761340609021091300,0.13609130859375,0.0180608332157135,-0.4153386950492859,0.08977536112070084
1761340609031159000,0.146158935546875,0.0787111297249794,-0.228934183716774,0.017810620367527008
1761340609041226200,0.156226318359375,0.16309046745300293,-0.01875406689941883,-0.0027352231554687023
1761340609051293200,0.166293212890625,0.23698334395885468,0.13104555010795593,-0.015263797715306282
1761340609061361200,0.176361083984375,0.30565062165260315,0.2591591775417328,-0.021223751828074455
1761340609071428000,0.186427978515625,0.3616907298564911,0.34352412819862366,-0.01770038902759552
1761340609081496300,0.196496337890625,0.39792367815971375,0.3252606987953186,-0.029651284217834473
1761340609091563300,0.206563232421875,0.40943625569343567,0.19943034648895264,-0.07432182133197784
1761340609101631200,0.21663134765625,0.3990490734577179,0.03053639829158783,-0.13102932274341583
1761340609111698200,0.2266982421875,0.3210432231426239,-0.0370279997587204,-0.17528653144836426
1761340609121765000,0.23676513671875,0.2431408166885376,-0.06539227068424225,-0.21068638563156128
1761340609131833000,0.2468330078125,0.18702347576618195,-0.02551356516778469,-0.23212110996246338
1761340609141900000,0.256900146484375,0.11870244890451431,0.06470328569412231,-0.2279863804578781
1761340609151968300,0.26696826171875,0.05790035054087639,0.17256611585617065,-0.18366685509681702
1761340609162035200,0.27703515625,0.03874879330396652,0.25631284713745117,-0.08037561178207397
1761340609172103200,0.287103271484375,0.06077846139669418,0.3262772858142853,0.058017149567604065
1761340609182170000,0.297170166015625,0.06733981519937515,0.3906860649585724,0.1809418797492981
1761340609192238000,0.307238037109375,0.05961238220334053,0.44127121567726135,0.2676442861557007
1761340609202305000,0.317304931640625,0.031243184581398964,0.4478555917739868,0.28074735403060913
1761340609212372000,0.3273720703125,-0.029090996831655502,0.38958749175071716,0.20925505459308624
1761340609222440200,0.337440185546875,-0.09774670004844666,0.27270960807800293,0.07714860886335373
1761340609232507100,0.347507080078125,-0.13878361880779266,0.14498093724250793,-0.09965332597494125
1761340609242575000,0.3575751953125,-0.14195913076400757,0.07957770675420761,-0.30623820424079895
1761340609252642000,0.36764208984375,-0.10211983323097229,0.07446123659610748,-0.499832421541214
1761340609262710000,0.3777099609375,-0.013452790677547455,0.07947492599487305,-0.6412094235420227
1761340609272777000,0.38777685546875,0.1256941854953766,0.04813804477453232,-0.7276047468185425
1761340609282845200,0.39784521484375,0.30819782614707947,-0.03482237830758095,-0.7430030107498169
1761340609292912000,0.407912109375,0.48143887519836426,-0.11337151378393173,-0.6527476906776428
1761340609302979300,0.417979248046875,0.59056156873703,-0.1365860104560852,-0.4862060248851776
1761340609313047300,0.42804736328125,0.646979570388794,0.01699848845601082,-0.24292999505996704
1761340609323114200,0.4381142578125,0.6497421860694885,0.19752554595470428,0.04619922488927841
1761340609333182200,0.44818212890625,0.6137413382530212,0.22264555096626282,0.2823805809020996
1761340609343249200,0.458249267578125,0.5792284607887268,0.12134179472923279,0.4384835362434387
1761340609353317400,0.4683173828125,0.5587828159332275,-0.01163543201982975,0.537918746471405
1761340609363384300,0.47838427734375,0.5273697972297668,-0.1306108832359314,0.5603327751159668
1761340609373451300,0.488451171875,0.4892280399799347,-0.21786803007125854,0.5153741240501404
1761340609383519200,0.498519287109375,0.4754123389720917,-0.19062288105487823,0.4582339823246002
1761340609393586200,0.508586181640625,0.5144758224487305,-0.0819467306137085,0.4221998155117035
1761340609403654100,0.518654052734375,0.6043762564659119,0.06120377033948898,0.38598641753196716
1761340609413721000,0.52872119140625,0.7328019142150879,0.20154942572116852,0.33510059118270874
1761340609423789300,0.538789306640625,0.8770065903663635,0.3254512548446655,0.26590701937675476
1761340609433856300,0.548856201171875,1.0064042806625366,0.4440104067325592,0.16942894458770752
1761340609443923200,0.558923095703125,1.0903592109680176,0.5968055129051208,0.08709961920976639
1761340609453991200,0.5689912109375,1.115402340888977,0.7825778126716614,0.05744106322526932
1761340609464058000,0.57905810546875,1.1168503761291504,0.971926212310791,0.10908465832471848
1761340609474126000,0.5891259765625,1.0940401554107666,1.1281282901763916,0.2318958044052124
1761340609484193000,0.599193115234375,1.0347734689712524,1.2438324689865112,0.3739849627017975
1761340609494261200,0.60926123046875,0.9158564209938049,1.240336298942566,0.4799382984638214
1761340609504328200,0.619328125,0.8009157776832581,1.1487373113632202,0.5068292617797852
1761340609514396200,0.629396240234375,0.739947497844696,1.1165375709533691,0.5104594230651855
1761340609524463000,0.639463134765625,0.7172854542732239,1.1679949760437012,0.48089319467544556
1761340609534530000,0.649530029296875,0.6781535148620605,1.2160691022872925,0.37280747294425964
1761340609544597800,0.65959765625,0.6330857276916504,0.9744406938552856,0.3515567183494568
1761340609554665000,0.6696650390625,0.6128185391426086,0.5445391535758972,0.3392012417316437
1761340609564733000,0.67973291015625,0.5677258968353271,0.03259183466434479,0.2687796652317047
1761340609574800100,0.689800048828125,0.5174816250801086,-0.5150124430656433,0.20465818047523499
1761340609584867800,0.699867919921875,0.48660793900489807,-0.9107650518417358,0.12555985152721405
1761340609594935000,0.70993505859375,0.49512979388237,-1.0368298292160034,0.0800030305981636
1761340609605003000,0.7200029296875,0.5100652575492859,-0.9355226159095764,0.11503244191408157
1761340609615070000,0.730070068359375,0.49669697880744934,-0.7004547119140625,0.17312902212142944
1761340609625137000,0.740136962890625,0.47985345125198364,-0.5047941207885742,0.3092130720615387
1761340609635204900,0.750204833984375,0.46283742785453796,-0.38202375173568726,0.4981132447719574
1761340609645272000,0.76027197265625,0.39634889364242554,-0.33182597160339355,0.7061367034912109
1761340609655340000,0.770340087890625,0.287219762802124,-0.32714441418647766,0.8636448383331299
1761340609665407000,0.780406982421875,0.1365525871515274,-0.4924268126487732,0.9058677554130554
1761340609675475000,0.790474853515625,-0.03772014379501343,-0.7536754608154297,0.8257820010185242
1761340609685542000,0.8005419921875,-0.23422479629516602,-1.0569522380828857,0.6359336972236633
1761340609695608800,0.81060888671875,-0.5385223627090454,-1.2794830799102783,0.36035698652267456
1761340609705676800,0.8206767578125,-1.0288845300674438,-1.3428761959075928,-0.007162219844758511
1761340609715744000,0.830743896484375,-1.5963860750198364,-1.176593542098999,-0.5000121593475342
1761340609725812000,0.84081201171875,-2.1326756477355957,-0.8573259115219116,-0.9568689465522766
1761340609735879000,0.85087890625,-2.5639684200286865,-0.5612305998802185,-1.1742228269577026
1761340609745947000,0.86094677734375,-2.787365436553955,-0.2498268038034439,-1.1158339977264404
1761340609756013800,0.871013916015625,-2.7492575645446777,-0.0195443294942379,-0.8223989009857178
1761340609766081800,0.881081787109375,-2.4227073192596436,0.08959279954433441,-0.3784036636352539
1761340609776148700,0.891148681640625,-1.8637129068374634,0.07247959077358246,0.07141222804784775
1761340609786216000,0.9012158203125,-1.1959882974624634,-0.25388801097869873,0.36085185408592224
1761340609796284000,0.911283935546875,-0.5936588644981384,-0.9304060339927673,0.334380567073822
1761340609806350800,0.921350830078125,-0.31547096371650696,-1.7687270641326904,-0.01149690616875887
1761340609816418800,0.931418701171875,-0.22519941627979279,-2.4883010387420654,-0.5512008666992188
1761340609826485800,0.94148583984375,-0.20050618052482605,-2.615107774734497,-1.0721287727355957
1761340609836553700,0.9515537109375,-0.21901728212833405,-2.2384071350097656,-1.4209420680999756
1761340609846620700,0.96162060546875,-0.18330703675746918,-1.6606028079986572,-1.6145880222320557
1761340609856688000,0.971688232421875,-0.1294291615486145,-1.0795422792434692,-1.6714677810668945
1761340609866755800,0.981755859375,-0.10740326344966888,-0.3865096867084503,-1.5462729930877686
1761340609876823000,0.991822998046875,-0.14283530414104462,0.37483346462249756,-1.2617576122283936
1761340609886891000,1.00189111328125,-0.265295147895813,1.1042696237564087,-0.883470356464386
1761340609896958000,1.0119580078125,-0.4458732008934021,1.7842015027999878,-0.49667683243751526
1761340609907026000,1.02202587890625,-0.6542264223098755,2.3716588020324707,-0.15150658786296844
1761340609917092900,1.0320927734375,-0.83149653673172,2.7662549018859863,0.17259053885936737
1761340609927160000,1.04216015625,-0.9499982595443726,2.9258103370666504,0.44373494386672974
1761340609937228000,1.05222802734375,-0.9521008133888245,2.9289631843566895,0.6347061991691589
1761340609947295000,1.062294921875,-0.8308045268058777,2.8684024810791016,0.7537249326705933
1761340609957363000,1.072363037109375,-0.6353790760040283,2.817905902862549,0.905872642993927
1761340609967430000,1.082429931640625,-0.38198739290237427,2.769644260406494,1.1003063917160034
1761340609977497900,1.092497802734375,-0.052492860704660416,2.5581419467926025,1.391944408416748
1761340609987564800,1.102564697265625,0.303184449672699,2.3594231605529785,1.7781487703323364
1761340609997632000,1.112632080078125,0.6047198176383972,2.29118275642395,2.126471757888794
1761340610007700000,1.122699951171875,0.8271591067314148,2.0204946994781494,2.409365653991699
1761340610017767000,1.132766845703125,0.9452911019325256,1.7314902544021606,2.589505195617676
1761340610027835000,1.1428349609375,0.980065643787384,1.5647622346878052,2.721257209777832
1761340610037901800,1.15290185546875,0.9650318622589111,1.4633471965789795,2.81697678565979
1761340610047969800,1.1629697265625,0.892302393913269,1.3160805702209473,2.835470676422119
1761340610058036700,1.17303662109375,0.7744665741920471,1.0684928894042969,2.7550673484802246
1761340610068105000,1.18310498046875,0.6124504804611206,0.7615516185760498,2.5850443840026855
1761340610078172000,1.193171875,0.42666807770729065,0.5360894799232483,2.347642183303833
1761340610088238800,1.20323876953125,0.23340541124343872,0.4860183000564575,2.072812557220459
1761340610098306800,1.213306884765625,0.04140081629157066,0.5613180994987488,1.7685120105743408
1761340610108373800,1.223373779296875,-0.14636366069316864,0.5345947742462158,1.4215342998504639
1761340610118441700,1.233441650390625,-0.25104081630706787,0.3227512240409851,1.1049124002456665
1761340610128509000,1.243509033203125,-0.26059776544570923,0.01916896179318428,0.8960738778114319
1761340610138577000,1.253576904296875,-0.20409880578517914,-0.2759300470352173,0.8820714950561523
1761340610148644000,1.26364404296875,-0.09879608452320099,0.6717749834060669,0.7489600777626038
1761340610158711000,1.2737109375,0.012292355298995972,1.0842506885528564,0.6208542585372925
1761340610168779000,1.283779052734375,0.30087345838546753,0.96916264295578,0.692105233669281
1761340610178846000,1.293845947265625,0.47706714272499084,0.5818634033203125,0.6467747688293457
1761340610188914000,1.303913818359375,0.37630993127822876,-0.18073536455631256,0.2722265124320984
1761340610198980900,1.31398095703125,-0.07565165311098099,-0.6342549324035645,-0.4135632812976837
1761340610209049000,1.324049072265625,-0.570722758769989,-1.000052571296692,-1.3521993160247803
1761340610219116000,1.334115966796875,-0.9209250211715698,-2.0042200088500977,-2.5896778106689453
1761340610229183000,1.344182861328125,-0.9684064388275146,-3.299215316772461,-3.727287530899048
1761340610239251000,1.3542509765625,-0.06603056192398071,-3.1660871505737305,-3.7891573905944824
1761340610249318000,1.36431787109375,1.215364933013916,-2.704148054122925,-3.1238486766815186
1761340610259385900,1.3743857421875,1.7728612422943115,-2.829516887664795,-2.2329978942871094
1761340610269452800,1.384452880859375,1.486977458000183,-1.7834779024124146,-1.238788366317749
1761340610279521000,1.39452099609375,0.7209929823875427,-1.0842878818511963,-0.6146076321601868
1761340610289588000,1.404587890625,0.34104445576667786,-0.7754814028739929,-0.5253892540931702
1761340610299655000,1.414655029296875,0.22673919796943665,-0.41124194860458374,-0.8280574679374695
1761340610309723000,1.424722900390625,-0.11956080049276352,-0.2752189636230469,-1.422759771347046
1761340610319789800,1.434789794921875,-0.6234396696090698,-0.44802698493003845,-2.032099962234497
1761340610329857800,1.44485791015625,-0.8950532674789429,-1.186463475227356,-2.6141533851623535
1761340610339924700,1.4549248046875,-1.0990090370178223,-1.7439069747924805,-2.939521312713623
1761340610349993000,1.464992919921875,-1.5278770923614502,-2.3443024158477783,-3.0659382343292236
1761340610360060000,1.475059814453125,-2.090553045272827,-2.588621139526367,-3.055983543395996
1761340610370126800,1.485126953125,-2.521585702896118,-2.211970806121826,-2.967047691345215
1761340610380194800,1.49519482421875,-2.451862335205078,-1.6222119331359863,-2.953070640563965
1761340610390262000,1.505261962890625,-1.6659772396087646,-0.9929268956184387,-2.9306390285491943
1761340610400329700,1.515329833984375,-0.9274008870124817,-0.7171887755393982,-2.5162556171417236
1761340610410397000,1.52539697265625,-0.5027247071266174,-0.5888354778289795,-1.7018715143203735
1761340610420465000,1.53546484375,-0.45700278878211975,-0.6544277667999268,-0.7517326474189758
1761340610430532000,1.545531982421875,-0.6213105320930481,-0.8454209566116333,0.05704770237207413
1761340610440599800,1.555599853515625,-0.6543856859207153,-1.427266001701355,0.27660828828811646
1761340610450667000,1.5656669921875,-0.6733793020248413,-2.079925298690796,-0.02915268763899803
1761340610460734000,1.57573388671875,-0.8309077024459839,-2.21122145652771,-0.6110933423042297
1761340610470802000,1.585802001953125,-1.0891857147216797,-2.0400540828704834,-1.3243824243545532
1761340610480868900,1.595868896484375,-1.1294188499450684,-1.6839063167572021,-1.6518205404281616
1761340610490937000,1.60593701171875,-0.9290832281112671,-1.2104462385177612,-1.6155685186386108
1761340610501004000,1.616004150390625,-0.6800726056098938,-0.48809412121772766,-1.4782899618148804
1761340610511071000,1.626071044921875,-0.33616775274276733,0.4028332829475403,-1.2144287824630737
1761340610521139000,1.636138916015625,0.1755674183368683,0.8152765035629272,-0.8777205348014832
1761340610531206000,1.646205810546875,0.7592647671699524,0.5951061844825745,-0.598778247833252
1761340610541273900,1.65627392578125,1.1916494369506836,0.48948386311531067,-0.20629246532917023
1761340610551341800,1.666341796875,1.433393955230713,0.38389459252357483,0.24528318643569946
1761340610561409800,1.676409912109375,1.5352526903152466,0.18232393264770508,0.6429696083068848
1761340610571476700,1.686476806640625,1.5534636974334717,0.031616441905498505,0.9570782780647278
1761340610581544700,1.696544677734375,1.4718554019927979,-0.03671174868941307,1.1395999193191528
1761340610591611600,1.706611572265625,1.3048228025436401,-0.1698511391878128,1.1560132503509521
1761340610601678600,1.7166787109375,1.105249285697937,-0.3157348334789276,0.9870452880859375
1761340610611746600,1.72674658203125,0.9529218673706055,-0.20795601606369019,0.6315819025039673
1761340610621813800,1.736813720703125,0.9062007069587708,0.11061131209135056,0.21930596232414246
1761340610631881700,1.7468818359375,0.8947458863258362,0.4389691650867462,-0.11252488940954208
1761340610641948700,1.75694873046875,0.8987792134284973,0.5640711188316345,-0.29374659061431885
1761340610652016600,1.7670166015625,0.8891138434410095,0.4802263379096985,-0.2800480127334595
1761340610662083600,1.77708349609375,0.7806166410446167,0.4318692088127136,0.06346594542264938
1761340610672150500,1.787150634765625,0.6799975633621216,0.47371238470077515,0.30625468492507935
1761340610682218500,1.797218505859375,0.55317223072052,0.6083383560180664,0.4259270131587982
1761340610692285700,1.80728564453125,0.43674179911613464,0.7381168007850647,0.35617509484291077
1761340610702353700,1.817353759765625,0.42981863021850586,0.9124760627746582,0.15876668691635132
1761340610712420600,1.827420654296875,0.4034939706325531,1.0448553562164307,-0.06026803329586983
1761340610722488600,1.837488525390625,0.25221043825149536,0.9188143014907837,-0.1479502171278
1761340610732555500,1.847555419921875,0.14341439306735992,0.3455967605113983,-0.2503241002559662
1761340610742622700,1.857622802734375,0.2327735722064972,-0.6840100288391113,-0.38581642508506775
1761340610752690400,1.8676904296875,0.5028427243232727,-1.766859769821167,-0.3794911801815033
1761340610762758000,1.8777578125,0.7965167164802551,-2.5228562355041504,-0.12473427504301071
1761340610772825600,1.88782568359375,0.9627524614334106,-2.8356974124908447,0.29236963391304016
1761340610782892800,1.897892822265625,1.0101977586746216,-2.935081720352173,0.7382429838180542
1761340610792960800,1.907960693359375,1.1259599924087524,-2.570871591567993,1.2747811079025269
1761340610803027700,1.91802783203125,1.1415588855743408,-1.876204013824463,1.7515634298324585
1761340610813094700,1.9280947265625,0.9397665858268738,-1.2118191719055176,1.9147298336029053
1761340610823162600,1.93816259765625,0.5889915227890015,-0.7403339743614197,1.6531645059585571
1761340610833229600,1.9482294921875,0.061630427837371826,-0.4020366072654724,1.05625319480896
1761340610843297800,1.9582978515625,-0.6930012702941895,-0.1537623256444931,0.2649438679218292
1761340610853364700,1.96836474609375,-1.5799522399902344,0.024677854031324387,-0.6395837068557739
1761340610863432700,1.9784326171875,-2.267068862915039,0.20542392134666443,-1.542138934135437
1761340610873499600,1.988499755859375,-2.6993980407714844,0.36266055703163147,-2.1531457901000977
1761340610883567600,1.998567626953125,-2.798020839691162,0.3326496481895447,-2.283400058746338
1761340610893634600,2.008634521484375,-2.6425821781158447,0.4930565059185028,-2.2841365337371826
1761340610903701500,2.018701416015625,-2.3850834369659424,0.6820301413536072,-2.089564323425293
1761340610913769700,2.028769775390625,-2.0813753604888916,0.6017708778381348,-1.5803608894348145
1761340610923836700,2.038836669921875,-1.7476669549942017,-0.06569185107946396,-0.8045722246170044
1761340610933904600,2.048904541015625,-1.4955124855041504,-1.1664493083953857,0.2066693753004074
1761340610943971600,2.0589716796875,-1.2489726543426514,-1.4971736669540405,0.7126718163490295
1761340610954039600,2.06903955078125,-0.8666546940803528,-1.3528659343719482,0.7394205331802368
1761340610964106500,2.0791064453125,-0.429015576839447,-0.9843533635139465,0.7479756474494934
1761340610974173400,2.08917333984375,-0.05562581121921539,-0.4762631356716156,0.5781846642494202
1761340610984241700,2.09924169921875,0.09946337342262268,-0.1818416267633438,0.40762677788734436
1761340610994308600,2.10930859375,0.1835615336894989,0.008834085427224636,0.3309033215045929
1761340611004376600,2.11937646484375,0.228084534406662,0.1765860617160797,0.26116472482681274
1761340611014443500,2.129443603515625,0.1548864245414734,0.3164671063423157,0.2686179280281067
1761340611024510700,2.1395107421875,0.006676455959677696,0.4565664231777191,0.37831512093544006
1761340611034578700,2.14957861328125,-0.14637677371501923,0.6466572284698486,0.552849292755127
1761340611044645600,2.159645751953125,-0.2880942225456238,0.9062352776527405,0.6739331483840942
1761340611054713600,2.169713623046875,-0.34157073497772217,1.2221709489822388,0.6823753714561462
1761340611064780800,2.17978076171875,-0.3352404236793518,1.5197376012802124,0.5650593638420105
1761340611074848800,2.189848876953125,-0.24337051808834076,1.8184237480163574,0.3129304051399231
1761340611084915700,2.199915771484375,-0.04593333601951599,2.0758283138275146,0.026604633778333664
1761340611094983700,2.209983642578125,0.17233359813690186,2.2470626831054688,-0.23737521469593048
1761340611105050600,2.220050537109375,0.36026063561439514,2.206592559814453,-0.4207218587398529
1761340611115117600,2.23011767578125,0.4742225408554077,1.9527732133865356,-0.5127891302108765
1761340611125185800,2.240185791015625,0.5423473119735718,1.5762836933135986,-0.5220244526863098
1761340611135252700,2.250252685546875,0.6045079231262207,1.0219783782958984,-0.4433582127094269
1761340611145320700,2.26032080078125,0.5788946747779846,0.4383312463760376,-0.3258792459964752
1761340611155387600,2.2703876953125,0.5348857641220093,-0.11171221733093262,-0.19474047422409058
1761340611165455600,2.28045556640625,0.5351896286010742,-0.49715790152549744,-0.0011345203965902328
1761340611175522600,2.2905224609375,0.5621013641357422,-0.7799927592277527,0.21798671782016754
1761340611185589500,2.300589599609375,0.611807644367218,-0.8816515207290649,0.45672285556793213
1761340611195657700,2.31065771484375,0.6459542512893677,-0.8626216650009155,0.6564934253692627
1761340611205724700,2.320724609375,0.659241795539856,-0.7749695777893066,0.7422818541526794
1761340611215792600,2.330792724609375,0.6494101285934448,-0.6208428740501404,0.6803172826766968
1761340611225859600,2.340859619140625,0.588420033454895,-0.28923478722572327,0.5308492183685303
1761340611235927600,2.350927490234375,0.4332121014595032,0.14164480566978455,0.39850056171417236
1761340611245994500,2.360994384765625,0.18669207394123077,0.5906734466552734,0.4072117805480957
1761340611256061400,2.3710615234375,-0.10014263540506363,1.016051173210144,0.5127713084220886
1761340611266129700,2.381129638671875,-0.3527945876121521,1.4384186267852783,0.5750043392181396
1761340611276196600,2.391196533203125,-0.5601952075958252,1.7998126745224,0.4934103190898895
1761340611286264600,2.4012646484375,-0.6965408325195312,1.899277687072754,0.09248337149620056
1761340611296331500,2.41133154296875,-0.7747107148170471,1.3008967638015747,-0.6924467086791992
1761340611306399500,2.4213994140625,-0.8116490244865417,-0.027452826499938965,-1.6105085611343384
1761340611316466700,2.431466796875,-0.6920472979545593,-1.6900255680084229,-2.143345832824707
1761340611326533600,2.44153369140625,-0.4304257929325104,-3.1579513549804688,-1.9331787824630737
1761340611336601900,2.451601806640625,0.06355598568916321,-3.987499713897705,-0.9663910865783691
1761340611346668800,2.461668701171875,0.7464147210121155,-3.9365622997283936,0.4674420654773712
1761340611356736800,2.47173681640625,1.1792179346084595,-3.2782411575317383,1.7807726860046387
1761340611366803700,2.4818037109375,1.3151555061340332,-2.33685564994812,2.4274985790252686
1761340611376871700,2.49187158203125,1.1985722780227661,-1.3299204111099243,2.24139666557312
1761340611386938600,2.501938720703125,0.779186487197876,-0.35240763425827026,1.5636098384857178
1761340611397005600,2.512005615234375,0.17182935774326324,0.5031206011772156,0.7638360857963562
1761340611407073800,2.52207373046875,-0.6328942775726318,1.0240859985351562,0.1979106217622757
1761340611417140700,2.532140625,-1.888685703277588,0.9565703868865967,-0.015144041739404202
1761340611427208700,2.542208740234375,-3.2289891242980957,0.45461833477020264,-0.024999601766467094
1761340611437275600,2.552275634765625,-4.004480838775635,0.2328353375196457,-0.29087069630622864
1761340611447343600,2.562343505859375,-4.029585838317871,0.45830708742141724,-0.8828751444816589
1761340611457410600,2.57241064453125,-3.358685255050659,1.3753942251205444,-1.6029971837997437
1761340611467477500,2.5824775390625,-2.1772639751434326,2.253121852874756,-2.1973907947540283
1761340611477545700,2.592545654296875,-0.8528477549552917,2.5290277004241943,-2.3291478157043457
1761340611487612700,2.60261279296875,0.14544112980365753,2.222254514694214,-1.8816574811935425
1761340611497680600,2.6126806640625,0.6483102440834045,1.6668277978897095,-1.0211284160614014
1761340611507747600,2.62274755859375,0.8317946195602417,1.1897754669189453,0.034824617207050323
1761340611517815600,2.632815673828125,0.7701194882392883,0.959446907043457,1.2106422185897827
1761340611527882500,2.642882568359375,0.5763038992881775,0.7425583004951477,2.278264284133911
1761340611537949400,2.652949462890625,0.39455097913742065,0.4395157992839813,2.9816620349884033
1761340611548017700,2.663017578125,0.24668508768081665,0.16316252946853638,3.311016082763672
1761340611558084600,2.673084716796875,0.14749085903167725,0.029796740040183067,3.267843723297119
1761340611568152600,2.683152587890625,0.1047319546341896,0.06222791224718094,2.8776192665100098
1761340611578219800,2.6932197265625,0.08900052309036255,0.24732562899589539,2.209129810333252
1761340611588287500,2.70328759765625,0.03498122841119766,0.4920957088470459,1.283168077468872
1761340611598355000,2.71335498046875,-0.014094583690166473,0.8223856687545776,0.23138099908828735
1761340611608422000,2.723421875,0.034872427582740784,1.1771386861801147,-0.764717161655426
1761340611618489900,2.73348974609375,0.1389036923646927,1.5326615571975708,-1.504513144493103
1761340611628556800,2.743556884765625,0.2528747320175171,1.6279399394989014,-1.975655436515808
1761340611638624800,2.753624755859375,0.3723228871822357,1.5651437044143677,-2.1584646701812744
1761340611648691700,2.763691650390625,0.48291197419166565,1.3641551733016968,-2.0822901725769043
1761340611658758700,2.773758544921875,0.598218560218811,1.012186884880066,-1.8400627374649048
1761340611668827000,2.783826904296875,0.7231091260910034,0.6047770380973816,-1.4622642993927002
1761340611678893800,2.793893798828125,0.8742339015007019,0.141749769449234,-1.0214786529541016
1761340611688961800,2.8039619140625,1.0564316511154175,-0.334686815738678,-0.5922985076904297
1761340611699028700,2.81402880859375,1.2355173826217651,-0.6913124918937683,-0.21672488749027252
1761340611709096700,2.8240966796875,1.401474952697754,-0.9057592749595642,0.06318506598472595
1761340611719163600,2.83416357421875,1.5515003204345703,-1.0094343423843384,0.2508113384246826
1761340611729230600,2.844230712890625,1.666940689086914,-1.034043788909912,0.33805277943611145
1761340611739298800,2.854298828125,1.689893364906311,-0.9895450472831726,0.3787810802459717
1761340611749365800,2.86436572265625,1.6030806303024292,-0.8689702153205872,0.3690674602985382
1761340611759433700,2.874433837890625,1.4424934387207031,-0.707086443901062,0.30153656005859375
1761340611769500700,2.884500732421875,1.2483296394348145,-0.5096868872642517,0.17744843661785126
1761340611779568600,2.894568603515625,1.0578807592391968,-0.350116491317749,0.0554681271314621
1761340611789635600,2.904635498046875,0.861354410648346,-0.20627091825008392,0.005322664976119995
1761340611799702500,2.91470263671875,0.6228554844856262,0.014323333278298378,0.08580602705478668
1761340611809770500,2.9247705078125,0.3686663508415222,0.4009384214878082,0.2194301337003708
1761340611819837700,2.934837646484375,0.11436750739812851,0.8531189560890198,0.16632021963596344
1761340611829905700,2.94490576171875,-0.09174863994121552,1.1506508588790894,-0.20988376438617706
1761340611839972600,2.95497265625,-0.25604358315467834,1.0442429780960083,-0.8536895513534546
1761340611850040600,2.96504052734375,-0.37866589426994324,0.44192755222320557,-1.497443437576294
1761340611860107800,2.975107666015625,-0.36606478691101074,-0.30120399594306946,-1.8220535516738892
1761340611870174700,2.9851748046875,-0.221693754196167,-0.9714212417602539,-1.7361724376678467
1761340611880242700,2.99524267578125,-0.01391809806227684,-1.5976170301437378,-1.253777265548706
1761340611890310000,3.005309814453125,0.43700698018074036,-2.0047404766082764,-0.5224223136901855
1761340611900377900,3.0153779296875,0.9905113577842712,-1.8368980884552002,0.33668380975723267
1761340611910444800,3.02544482421875,0.8242707252502441,-1.2531107664108276,0.8358049392700195
1761340611920512800,3.0355126953125,-0.7812343239784241,-1.2781031131744385,1.1570539474487305
1761340611930579700,3.045579833984375,-3.256615400314331,-1.2162200212478638,0.742376983165741
1761340611940646700,3.055646728515625,-5.3585710525512695,-0.4766398072242737,0.04062420874834061
1761340611950714600,3.065714599609375,-6.332399368286133,0.738002598285675,-0.3604869842529297
1761340611960781800,3.07578173828125,-5.7227253913879395,1.8800288438796997,-0.6475255489349365
1761340611970849800,3.085849853515625,-4.243688583374023,2.5666842460632324,-0.736932635307312
1761340611980916700,3.095916748046875,-3.2835800647735596,2.5985565185546875,-0.9083070755004883
1761340611990984700,3.105984619140625,-2.7109248638153076,2.3208115100860596,-0.9206766486167908
1761340612001051600,3.1160517578125,-2.130401611328125,1.622987151145935,-0.5258370041847229
1761340612011118600,3.12611865234375,-1.6225255727767944,0.805566668510437,0.17554907500743866
1761340612021186600,3.1361865234375,-1.2436892986297607,0.18727795779705048,0.9253978729248047
1761340612031253800,3.146253662109375,-0.9420894980430603,-0.17252682149410248,1.4811275005340576
1761340612041321700,3.15632177734375,-0.7427059412002563,-0.20402371883392334,1.7481986284255981
1761340612051388700,3.166388671875,-0.5812446475028992,-0.08275987952947617,1.7172454595565796
1761340612061456600,3.17645654296875,-0.3702598810195923,0.14027535915374756,1.4369595050811768
1761340612071523600,3.186523681640625,-0.07769513130187988,0.45194029808044434,0.9672258496284485
1761340612081590500,3.196590576171875,0.289341002702713,0.8069814443588257,0.4076187014579773
1761340612091658500,3.206658447265625,0.6693138480186462,1.0582808256149292,-0.09777149558067322
1761340612101725700,3.2167255859375,1.015053391456604,1.0818248987197876,-0.4488912522792816
1761340612111793700,3.226793701171875,1.2996779680252075,0.8686916828155518,-0.6126671433448792
1761340612121860900,3.23686083984375,1.5539542436599731,0.47010859847068787,-0.5876855850219727
1761340612131927800,3.246927734375,1.7776401042938232,-0.06250736117362976,-0.446078360080719
1761340612141995800,3.256995849609375,1.9398807287216187,-0.5754605531692505,-0.22840197384357452
1761340612152062700,3.267062744140625,2.048328161239624,-0.934354841709137,-0.004971278831362724
1761340612162130700,3.277130615234375,2.1368753910064697,-1.115356683731079,0.1571909785270691
1761340612172198000,3.287197998046875,2.1830029487609863,-1.1611542701721191,0.25445759296417236
1761340612182265900,3.297265869140625,2.1694893836975098,-1.1418445110321045,0.2733016610145569
1761340612192332800,3.307332763671875,2.1120471954345703,-1.0489223003387451,0.23772850632667542
1761340612202399700,3.317399658203125,2.016414165496826,-0.8955449461936951,0.15887784957885742
1761340612212467700,3.3274677734375,1.8406684398651123,-0.6312024593353271,0.013224506750702858
1761340612222534700,3.33753466796875,1.6070060729980469,-0.3239714503288269,-0.19150257110595703
1761340612232602600,3.3476025390625,1.356393814086914,-0.05746600776910782,-0.38503047823905945
1761340612242669800,3.357669921875,1.1087393760681152,0.16660693287849426,-0.4977171719074249
1761340612252737800,3.36773779296875,0.8774755597114563,0.24005185067653656,-0.4865840971469879
1761340612262804700,3.3778046875,0.6599602699279785,0.15152689814567566,-0.34182944893836975
1761340612272871700,3.38787158203125,0.5118613243103027,-0.038164738565683365,-0.15804710984230042
1761340612282939600,3.397939697265625,0.47164779901504517,-0.1541999727487564,-0.0021717031486332417
1761340612293006600,3.408006591796875,0.5278277397155762,-0.10107070952653885,0.0671362653374672
1761340612303074600,3.418074462890625,0.6453635692596436,0.04655250906944275,0.04287707805633545
1761340612313141500,3.4281416015625,0.7897023558616638,0.19350281357765198,-0.020824935287237167
1761340612323208700,3.438208740234375,0.9292391538619995,0.40868183970451355,-0.08663274347782135
1761340612333276700,3.448276611328125,0.9933430552482605,0.6852642297744751,-0.04667334258556366
1761340612343343600,3.458343505859375,1.0055809020996094,0.8768996000289917,0.09195586293935776
1761340612353411600,3.46841162109375,0.955066978931427,0.9466123580932617,0.25845855474472046
1761340612363478800,3.478478759765625,0.8201783299446106,0.9335954189300537,0.392833411693573
1761340612373546500,3.48854638671875,0.6001889705657959,0.848163366317749,0.3207424283027649
1761340612383613700,3.49861376953125,0.4647813141345978,0.6620655059814453,-0.05429884046316147
1761340612393681000,3.508680908203125,0.5570419430732727,0.35341688990592957,-0.7530702352523804
1761340612403748900,3.518748779296875,0.904955267906189,-0.12320941686630249,-1.5814244747161865
1761340612413815800,3.52881591796875,1.3773568868637085,-0.8592338562011719,-2.1729745864868164
1761340612423883800,3.5388837890625,1.7688714265823364,-1.765084981918335,-2.1554462909698486
1761340612433950700,3.54895068359375,2.085343360900879,-2.8978943824768066,-1.3874539136886597
1761340612444018700,3.559018798828125,2.5246400833129883,-3.9628939628601074,-0.09472332894802094
1761340612454085600,3.569085693359375,3.016521453857422,-3.9744014739990234,1.2974963188171387
1761340612464152800,3.57915283203125,3.184216260910034,-3.1309280395507812,2.1342995166778564
1761340612474220800,3.589220703125,2.8783621788024902,-1.9912244081497192,2.2270703315734863
1761340612484287700,3.599287841796875,2.2410318851470947,-0.9033269286155701,1.7755088806152344
1761340612494355700,3.609355712890625,1.263307809829712,-0.20923711359500885,1.1894611120224
1761340612504422700,3.619422607421875,-0.6206953525543213,-0.41750380396842957,0.9162747263908386
1761340612514490600,3.62949072265625,-2.8463733196258545,-0.7454947233200073,0.4660380184650421
1761340612524557600,3.6395576171875,-4.386353969573975,-0.4706524908542633,-0.6135589480400085
1761340612534624800,3.649624755859375,-4.859283447265625,0.32437992095947266,-1.8877419233322144
1761340612544691700,3.659691650390625,-4.597723484039307,1.0987509489059448,-2.9350955486297607
1761340612554759000,3.669759033203125,-3.691622018814087,1.5027083158493042,-3.380924940109253
1761340612564826600,3.67982666015625,-2.320657730102539,1.3179608583450317,-3.1485419273376465
1761340612574893800,3.689893798828125,-1.0665794610977173,0.5774788856506348,-2.2307355403900146
1761340612584961800,3.6999619140625,-0.2896420359611511,-0.45068374276161194,-0.8545515537261963
1761340612595029000,3.710029052734375,-0.08527238667011261,-1.236896276473999,0.6929804682731628
1761340612605096000,3.720095947265625,-0.12729337811470032,-1.7728770971298218,2.055863380432129
1761340612615164000,3.730163818359375,-0.15428078174591064,-2.0197370052337646,2.899289131164551
1761340612625230800,3.74023095703125,-0.21868160367012024,-1.8569425344467163,3.235175371170044
1761340612635298800,3.750298828125,-0.30638858675956726,-1.390709638595581,3.122859477996826
1761340612645365800,3.76036572265625,-0.3553740084171295,-0.6763777136802673,2.6718673706054688
1761340612655432700,3.7704326171875,-0.29745373129844666,0.2221808135509491,2.040821075439453
1761340612665501000,3.7805009765625,-0.21117231249809265,1.0261584520339966,1.3337794542312622
1761340612675567900,3.79056787109375,-0.21810533106327057,1.575369119644165,0.6160021424293518
1761340612685635800,3.8006357421875,-0.2942185401916504,1.8988547325134277,-0.03841818496584892
1761340612695702800,3.810702880859375,-0.34871506690979004,1.968247652053833,-0.5624185800552368
1761340612705770800,3.820770751953125,-0.3627673089504242,1.8038698434829712,-0.9215153455734253
1761340612715837700,3.830837646484375,-0.33576980233192444,1.4402689933776855,-1.1310601234436035
1761340612725904600,3.840904541015625,-0.2851443290710449,1.0131391286849976,-1.2096405029296875
1761340612735972900,3.850972900390625,-0.1533852368593216,0.6664780974388123,-1.1705644130706787
1761340612746039800,3.861039794921875,0.1218382939696312,0.5753703713417053,-0.8906797170639038
1761340612756107800,3.871107666015625,0.3936977982521057,0.19779404997825623,-0.698415994644165
1761340612766174700,3.8811748046875,0.5690889954566956,0.01070732157677412,-0.5194938778877258
1761340612776241700,3.89124169921875,0.6979966163635254,-0.13342028856277466,-0.33147603273391724
1761340612786309600,3.9013095703125,0.766572117805481,-0.22007736563682556,-0.16658872365951538
1761340612796376800,3.911376953125,0.8094876408576965,-0.11019960790872574,0.015084674581885338
1761340612806444800,3.92144482421875,0.8223996758460999,0.055880554020404816,0.16728068888187408
1761340612816511700,3.93151171875,0.8288463950157166,0.20467695593833923,0.29398858547210693
1761340612826579700,3.941579833984375,0.8466222286224365,0.3344886004924774,0.3650255799293518
1761340612836647000,3.95164697265625,0.8726402521133423,0.41408994793891907,0.33729088306427
1761340612846714600,3.961714599609375,0.9042546153068542,0.45582351088523865,0.23206478357315063
1761340612856781800,3.97178173828125,0.9268922805786133,0.4369952380657196,0.11367075145244598
1761340612866848800,3.981848876953125,0.9048298001289368,0.37828731536865234,0.02156335860490799
1761340612876917000,3.9919169921875,0.8254148364067078,0.35964226722717285,-0.05188289284706116
1761340612886984000,4.00198388671875,0.6684945225715637,0.4491833746433258,-0.0648028701543808
1761340612897052000,4.012052001953125,0.512448251247406,0.6336935758590698,-0.02247777208685875
1761340612907118800,4.022118896484375,0.3555243909358978,0.9603587985038757,0.07143647223711014
1761340612917185800,4.032185791015625,0.20587490499019623,1.4163029193878174,0.18677370250225067
1761340612927253800,4.042253662109375,0.10404520481824875,1.9009805917739868,0.18994338810443878
1761340612937320700,4.05232080078125,-0.01755325123667717,2.34733247756958,0.06256542354822159
1761340612947389000,4.062388916015625,-0.18920382857322693,2.628051280975342,-0.17538055777549744
1761340612957456000,4.072455810546875,-0.32224950194358826,2.6026899814605713,-0.5740721225738525
1761340612967523800,4.08252392578125,-0.321255624294281,2.2067558765411377,-1.1142137050628662
1761340612977590800,4.0925908203125,-0.12271420657634735,1.378212809562683,-1.648199200630188
1761340612987657700,4.10265771484375,0.23569747805595398,0.12543687224388123,-1.9164615869522095
1761340612997725700,4.1127255859375,0.7065150737762451,-1.3796263933181763,-1.669679045677185
1761340613007792600,4.122792724609375,1.192995309829712,-2.6720328330993652,-0.802932858467102
1761340613017860900,4.13286083984375,1.59308922290802,-3.3467323780059814,0.39631348848342896
1761340613027927800,4.142927734375,1.939353108406067,-3.4337496757507324,1.4365942478179932
1761340613037994800,4.152994873046875,2.2117154598236084,-3.0347931385040283,2.037106513977051
1761340613048062700,4.163062744140625,2.2306177616119385,-2.2044975757598877,2.1072301864624023
1761340613058129700,4.173129638671875,1.9497439861297607,-1.253324031829834,1.7589974403381348
1761340613068197600,4.18319775390625,1.4732855558395386,-0.4623836278915405,1.2390267848968506
1761340613078264800,4.193264892578125,0.8103244304656982,0.03611961007118225,0.7609807252883911
1761340613088332800,4.203332763671875,0.056063443422317505,0.3571610152721405,0.38845565915107727
1761340613098400000,4.21339990234375,-0.6439476609230042,0.6386239528656006,0.12416663765907288
1761340613108467000,4.223467041015625,-1.2316091060638428,0.9020633101463318,-0.06767868995666504
1761340613118535000,4.233534912109375,-1.7514241933822632,1.0700997114181519,-0.17456865310668945
1761340613128601900,4.243601806640625,-2.18796443939209,1.083972692489624,-0.21187525987625122
1761340613138669800,4.253669921875,-2.463715076446533,0.9495078325271606,-0.25662967562675476
1761340613148736800,4.26373681640625,-2.5806336402893066,0.7370365858078003,-0.3249956965446472
1761340613158805000,4.273804931640625,-2.531022787094116,0.5574597716331482,-0.43008390069007874
1761340613168872000,4.283871826171875,-2.322844982147217,0.49727287888526917,-0.574665367603302
1761340613178939000,4.29393896484375,-1.9829126596450806,0.599696695804596,-0.7269193530082703
1761340613189006800,4.3040068359375,-1.575960636138916,0.7738746404647827,-0.8718062043190002
1761340613199073800,4.31407373046875,-1.1611677408218384,1.005821704864502,-0.9321447610855103
1761340613209141800,4.324141845703125,-0.7969699501991272,1.2062890529632568,-0.8268580436706543
1761340613219208700,4.334208740234375,-0.5168362259864807,1.2880128622055054,-0.5789775252342224
1761340613229277000,4.34427685546875,-0.338259220123291,1.2583707571029663,-0.2658531665802002
1761340613239343900,4.35434375,-0.2353394329547882,1.0855337381362915,0.008438597433269024
1761340613249410800,4.364410888671875,-0.17801755666732788,0.806283175945282,0.18663789331912994
1761340613259478800,4.374478759765625,-0.13820520043373108,0.4845697283744812,0.23707352578639984
1761340613269545700,4.384545654296875,-0.07457561790943146,0.21310921013355255,0.18642152845859528
1761340613279613700,4.39461376953125,-0.037406452000141144,-0.044562019407749176,0.023996401578187943
1761340613289680600,4.4046806640625,-0.098855160176754,-0.22877366840839386,-0.2693619728088379
1761340613299747600,4.41474755859375,-0.1661621630191803,-0.23935523629188538,-0.6496701836585999
1761340613309816800,4.42481689453125,-0.10931458324193954,-0.03280685096979141,-1.0191318988800049
1761340613319884800,4.434884765625,0.00004718918353319168,0.1711653620004654,-1.2725481986999512
1761340613329951700,4.44495166015625,0.09584669023752213,0.26449719071388245,-1.2916289567947388
1761340613340018700,4.455018798828125,0.15977968275547028,0.1431010663509369,-1.1099541187286377
1761340613350086700,4.465086669921875,0.19813665747642517,-0.09636158496141434,-0.7964274287223816
1761340613360153600,4.475153564453125,0.22983354330062866,-0.32632482051849365,-0.42276760935783386
1761340613370221800,4.485221923828125,0.2712891101837158,-0.5015538930892944,-0.08819281309843063
1761340613380288800,4.495288818359375,0.32875317335128784,-0.5561039447784424,0.1317129135131836
1761340613390356700,4.505356689453125,0.41597384214401245,-0.5075268745422363,0.2029322385787964
1761340613400423700,4.515423583984375,0.5239430665969849,-0.3654438257217407,0.16697342693805695
1761340613410490600,4.52549072265625,0.623598039150238,-0.21364818513393402,0.09955178201198578
1761340613420558600,4.53555859375,0.6826362609863281,-0.11650984734296799,0.05365535616874695
1761340613430625800,4.545625732421875,0.694594144821167,-0.09398403018712997,0.06926920264959335
1761340613440693800,4.55569384765625,0.6719529628753662,-0.1521216332912445,0.16801148653030396
1761340613450761000,4.565760986328125,0.6244147419929504,-0.2564863860607147,0.32648366689682007
1761340613460828700,4.57582861328125,0.5488497018814087,-0.35032472014427185,0.5181077122688293
1761340613470895900,4.585895751953125,0.44933614134788513,-0.3884097933769226,0.7392140030860901
1761340613480962800,4.595962890625,0.3258325159549713,-0.314757376909256,0.9223295450210571
1761340613491030800,4.60603076171875,0.16451473534107208,-0.133881613612175,1.0000075101852417
1761340613501097700,4.61609765625,-0.012342315167188644,0.15656493604183197,0.9127693176269531
1761340613511166000,4.626166015625,-0.19042682647705078,0.6602107882499695,0.57662034034729
1761340613521233000,4.63623291015625,-0.3903232216835022,1.2583380937576294,0.016725972294807434
1761340613531299800,4.6462998046875,-0.539980411529541,1.6714497804641724,-0.6808797121047974
1761340613541367800,4.656367919921875,-0.6156309843063354,1.546331763267517,-1.4004186391830444
1761340613551435000,4.66643505859375,-0.6301076412200928,0.8512510061264038,-1.962141990661621
1761340613561503200,4.676503173828125,-0.5020662546157837,-0.33725589513778687,-2.165785551071167
1761340613571570200,4.686570068359375,-0.15787185728549957,-1.6272934675216675,-1.7838928699493408
1761340613581638100,4.69663818359375,0.3716147840023041,-2.3413753509521484,-0.732058584690094
1761340613591705000,4.706705078125,1.1089493036270142,-2.348027467727661,0.7208060622215271
1761340613601772000,4.71677197265625,1.9863736629486084,-2.031733512878418,2.025508165359497
1761340613611840000,4.726840087890625,2.7213404178619385,-1.8165448904037476,2.803821086883545
1761340613621907000,4.736906982421875,3.0363845825195312,-1.6990243196487427,3.063246726989746
1761340613631975200,4.74697509765625,2.7780299186706543,-1.4792351722717285,2.956753730773926
1761340613642042000,4.7570419921875,1.982896327972412,-1.1538699865341187,2.5261363983154297
1761340613652110000,4.767110107421875,0.859138548374176,-0.7551458477973938,1.7967015504837036
1761340613662177000,4.777177001953125,-0.24924780428409576,-0.3036138415336609,0.8689408898353577
1761340613672244000,4.787243896484375,-1.1298315525054932,0.04812954366207123,-0.11199770867824554
1761340613682312000,4.79731201171875,-1.810722827911377,0.16916795074939728,-0.906262993812561
1761340613692379000,4.80737890625,-2.3345630168914795,0.02090843953192234,-1.3611482381820679
1761340613702447000,4.817447021484375,-2.655897855758667,-0.25262975692749023,-1.5248740911483765
1761340613712514000,4.82751416015625,-2.8340094089508057,-0.48005279898643494,-1.4926458597183228
1761340613722582000,4.83758203125,-2.905956506729126,-0.5294999480247498,-1.409371256828308
1761340613732649000,4.84764892578125,-2.7765705585479736,-0.3005775511264801,-1.407965064048767
1761340613742716200,4.857716064453125,-2.3868401050567627,0.1862378865480423,-1.4498478174209595
1761340613752784100,4.8677841796875,-1.8025641441345215,0.6975648403167725,-1.3946505784988403
1761340613762851000,4.87785107421875,-1.2338131666183472,0.9891437292098999,-1.1201910972595215
1761340613772919300,4.887919189453125,-0.7092662453651428,1.0186086893081665,-0.5677385330200195
1761340613782986200,4.897986328125,-0.36519676446914673,0.7190582752227783,0.21751518547534943
1761340613793053200,4.90805322265625,-0.2538422644138336,0.15694144368171692,1.1169861555099487
1761340613803121200,4.91812109375,-0.2342158704996109,-0.4453398883342743,1.863422155380249
1761340613813188000,4.92818798828125,-0.15816451609134674,-0.7791283130645752,2.2450766563415527
1761340613823256000,4.938256103515625,-0.03049812838435173,-0.7797470688819885,2.217876434326172
1761340613833323000,4.948322998046875,0.11522817611694336,-0.5503405332565308,1.8554956912994385
1761340613843391200,4.95839111328125,0.2935658097267151,-0.12183237820863724,1.2223114967346191
1761340613853458200,4.968458251953125,0.427618145942688,0.3737560510635376,0.48617568612098694
1761340613863525000,4.978525146484375,0.46787726879119873,0.7600018382072449,-0.21788498759269714
1761340613873593000,4.988593017578125,0.41477838158607483,1.0367127656936646,-0.7659965753555298
1761340613883660000,4.998659912109375,0.29991012811660767,1.2008352279663086,-1.0880544185638428
1761340613893728000,5.00872802734375,0.19476613402366638,1.2238366603851318,-1.211793303489685
1761340613903795000,5.018794921875,0.13575582206249237,1.1514972448349,-1.1674625873565674
1761340613913863200,5.02886328125,0.1338476687669754,1.024082064628601,-0.9662479758262634
1761340613923930000,5.03893017578125,0.19079196453094482,0.8431099057197571,-0.7025785446166992
1761340613933997000,5.0489970703125,0.30389881134033203,0.6677564382553101,-0.4393131136894226
1761340613944065000,5.05906494140625,0.471884161233902,0.5100932717323303,-0.22149208188056946
1761340613954132000,5.069132080078125,0.6571227312088013,0.36388733983039856,-0.049439094960689545
1761340613964200000,5.079199951171875,0.813459038734436,0.2087719440460205,0.07196364551782608
1761340613974267000,5.089266845703125,0.9024264216423035,0.03231941908597946,0.16375455260276794
1761340613984334000,5.099333984375,0.9477766752243042,-0.10409548878669739,0.21531540155410767
1761340613994402000,5.109402099609375,0.9555630087852478,-0.1583174616098404,0.23152124881744385
1761340614004469200,5.11946923828125,0.9395533204078674,-0.15102386474609375,0.2324802428483963
1761340614014537200,5.129537109375,0.9055282473564148,-0.14390790462493896,0.2248915582895279
1761340614024604200,5.139604248046875,0.8470527529716492,-0.15856881439685822,0.1963105946779251
1761340614034672000,5.149672119140625,0.7521136999130249,-0.1936977654695511,0.1519673615694046
1761340614044739000,5.159739013671875,0.6449746489524841,-0.18676014244556427,0.05459189787507057
1761340614054806000,5.169805908203125,0.49782249331474304,-0.06988386064767838,-0.06594756245613098
1761340614064874200,5.179874267578125,0.28292927145957947,0.2144436091184616,-0.21158239245414734
1761340614074941200,5.189941162109375,0.0007918491028249264,0.6006996631622314,-0.33570700883865356
1761340614085009200,5.200009033203125,-0.21485131978988647,1.0267456769943237,-0.4551997780799866
1761340614095076000,5.210076171875,-0.36248815059661865,1.5321099758148193,-0.5900771617889404
1761340614105143000,5.22014306640625,-0.47239193320274353,1.991462230682373,-0.7705161571502686
1761340614115211000,5.2302109375,-0.6424840092658997,2.1514925956726074,-1.0191267728805542
1761340614125278000,5.24027783203125,-0.7350550889968872,1.691560983657837,-1.4079344272613525
1761340614135346200,5.25034619140625,-0.5558613538742065,0.5316634774208069,-1.7935279607772827
1761340614145413000,5.2604130859375,-0.12525604665279388,-0.9920680522918701,-1.7752803564071655
1761340614155481000,5.270481201171875,0.3678572475910187,-2.3043711185455322,-1.092613935470581
1761340614165548000,5.280548095703125,0.9445292949676514,-3.018597364425659,-0.027143359184265137
1761340614175615000,5.290614990234375,1.5954782962799072,-2.9594132900238037,0.977496325969696
1761340614185683000,5.300682861328125,2.016106128692627,-2.1939334869384766,1.678671956062317
1761340614195750000,5.31075,1.9898221492767334,-1.2313553094863892,1.9776703119277954
1761340614205818000,5.320818115234375,1.637805700302124,-0.40950000286102295,1.8813371658325195
1761340614215885000,5.330885009765625,1.0698455572128296,0.28272905945777893,1.4488507509231567
1761340614225953000,5.340953125,0.3886844515800476,0.7997943162918091,0.8739040493965149
1761340614236020000,5.35102001953125,-0.23148082196712494,1.1267719268798828,0.3510757386684418
1761340614246087200,5.361087158203125,-0.8010784387588501,1.3429943323135376,-0.03661035746335983
1761340614256155100,5.371155029296875,-1.3674001693725586,1.2993381023406982,-0.2662281095981598
1761340614266222000,5.38122216796875,-2.0259766578674316,0.9089099764823914,-0.39052075147628784
1761340614276290300,5.391290283203125,-2.7525007724761963,0.5295940637588501,-0.6192548871040344
1761340614286357200,5.401357177734375,-3.3569812774658203,0.421347051858902,-1.000219464302063
1761340614296424200,5.411424072265625,-3.685554027557373,0.5062320828437805,-1.4339628219604492
1761340614306492200,5.4214921875,-3.5161712169647217,0.7322437167167664,-1.7660361528396606
1761340614316559000,5.43155908203125,-2.8582656383514404,0.7877094149589539,-1.8429818153381348
1761340614326627000,5.441626953125,-1.9641996622085571,0.5416490435600281,-1.5399019718170166
1761340614336694000,5.451694091796875,-1.0624245405197144,0.03854731470346451,-0.9287235736846924
1761340614346762200,5.46176220703125,-0.38204798102378845,-0.5193376541137695,-0.14689069986343384
1761340614356829200,5.4718291015625,0.04418639466166496,-0.9973737001419067,0.6678323745727539
1761340614366896000,5.481896240234375,0.21686525642871857,-1.2507305145263672,1.350090503692627
1761340614376964000,5.491964111328125,0.18519440293312073,-1.3091505765914917,1.7652466297149658
1761340614387031000,5.502031005859375,0.058140650391578674,-1.1332448720932007,1.891221284866333
1761340614397099000,5.51209912109375,-0.08060871064662933,-0.752780556678772,1.7367382049560547
1761340614407166000,5.522166015625,-0.1965988725423813,-0.30120202898979187,1.3722003698349
1761340614417233000,5.53223291015625,-0.2858342230319977,0.11268409341573715,0.9309527277946472
1761340614427301000,5.542301025390625,-0.35956501960754395,0.4087788760662079,0.44298040866851807
1761340614437368000,5.5523681640625,-0.3930143415927887,0.5977852940559387,-0.03444899991154671
1761340614447436000,5.56243603515625,-0.3705976903438568,0.6148509383201599,-0.4500839114189148
1761340614457503000,5.5725029296875,-0.294711172580719,0.4765090346336365,-0.7589703798294067
1761340614467571000,5.582571044921875,-0.18506386876106262,0.2694584131240845,-0.9575899839401245
1761340614477638000,5.592637939453125,-0.05607739835977554,0.04956228286027908,-1.0397368669509888
1761340614487705000,5.602705078125,0.0798124372959137,-0.13541918992996216,-0.9946677088737488
1761340614497773000,5.61277294921875,0.2076156735420227,-0.2898087799549103,-0.8512898087501526
1761340614507840300,5.62284033203125,0.3224343955516815,-0.3964471220970154,-0.6542128324508667
1761340614517908200,5.632908203125,0.43236544728279114,-0.48566967248916626,-0.42304727435112
1761340614527975200,5.64297509765625,0.5145472288131714,-0.5792021155357361,-0.2013244330883026
1761340614538042000,5.6530419921875,0.5767949223518372,-0.6544814109802246,-0.04004047065973282
1761340614548109800,5.66310986328125,0.604853630065918,-0.664618968963623,0.025270339101552963
1761340614558176800,5.6731767578125,0.5916627645492554,-0.6153883337974548,0.01892961747944355
1761340614568244700,5.68324462890625,0.537105143070221,-0.4913261830806732,-0.03264714032411575
1761340614578311700,5.693311767578125,0.4590878486633301,-0.3187336325645447,-0.11640142649412155
1761340614588379600,5.703379638671875,0.388958603143692,-0.1618901789188385,-0.20266912877559662
1761340614598446600,5.713446533203125,0.3384235203266144,-0.04644346609711647,-0.26454049348831177
1761340614608513500,5.723513427734375,0.3026864528656006,0.014469987712800503,-0.3013964593410492
1761340614618581800,5.733581787109375,0.29269081354141235,0.06103216111660004,-0.287582129240036
1761340614628648700,5.743648681640625,0.3036760985851288,0.16673314571380615,-0.24585482478141785
1761340614638716700,5.753716552734375,0.2975950241088867,0.270348459482193,-0.16075776517391205
1761340614648783600,5.76378369140625,0.22749494016170502,0.3236222565174103,-0.07624809443950653
1761340614658850600,5.7738505859375,0.11138910055160522,0.35353487730026245,-0.07048395276069641
1761340614668918500,5.78391845703125,0.036689259111881256,0.4118801951408386,-0.1645590364933014
1761340614678985500,5.7939853515625,0.04535811394453049,0.40895843505859375,-0.34815549850463867
1761340614689053700,5.8040537109375,0.046521931886672974,0.3512413799762726,-0.5881136655807495
1761340614699120600,5.81412060546875,-0.021510114893317223,0.0852283462882042,-0.8515506386756897
1761340614709188600,5.824188720703125,-0.16771268844604492,-0.5364775657653809,-1.128809928894043
1761340614719255800,5.834255859375,-0.2280292958021164,-1.1806455850601196,-1.36213219165802
1761340614729322800,5.84432275390625,-0.01582694798707962,-1.468989372253418,-1.349416971206665
1761340614739390700,5.854390625,0.4425763189792633,-1.4759303331375122,-0.9139158725738525
1761340614749457700,5.864457763671875,0.9694961905479431,-1.268972635269165,0.0036626430228352547
1761340614759526000,5.87452587890625,1.3431568145751953,-1.0642775297164917,0.9642922282218933
1761340614769592800,5.8845927734375,1.5016592741012573,-0.9357573986053467,1.48879873752594
1761340614779660800,5.894660888671875,1.4496115446090698,-0.7724393010139465,1.5600508451461792
1761340614789727700,5.904727783203125,1.2056218385696411,-0.5551312565803528,1.3340463638305664
1761340614799794700,5.914794677734375,0.856266438961029,-0.3539392650127411,0.9683619141578674
1761340614809862700,5.924862548828125,0.43547454476356506,-0.2195563167333603,0.5250998735427856
1761340614819929600,5.9349296875,0.006307748146355152,-0.18779465556144714,0.08194828033447266
1761340614829997800,5.944997802734375,-0.35961803793907166,-0.31499403715133667,-0.3329913020133972
1761340614840064800,5.955064697265625,-0.7151351571083069,-0.5855850577354431,-0.6979479193687439
1761340614850131700,5.965131591796875,-1.079727053642273,-0.8047906160354614,-0.9987647533416748
1761340614860199700,5.97519970703125,-1.3293275833129883,-0.7631235718727112,-1.217673420906067
1761340614870266600,5.9852666015625,-1.4148526191711426,-0.5033078193664551,-1.3124865293502808
1761340614880334600,5.99533447265625,-1.3859533071517944,-0.2373424768447876,-1.2787961959838867
1761340614890401500,6.005401611328125,-1.2874743938446045,-0.02793344110250473,-1.1336768865585327
1761340614900469800,6.0154697265625,-1.1812005043029785,0.206521138548851,-0.8852442502975464
1761340614910536700,6.02553662109375,-1.1213979721069336,0.40211033821105957,-0.6288335919380188
1761340614920603600,6.035603759765625,-1.0621216297149658,0.5238684415817261,-0.4160885214805603
1761340614930671600,6.045671630859375,-0.9878112077713013,0.519778847694397,-0.2588489055633545
1761340614940738600,6.055738525390625,-0.8933619260787964,0.409567654132843,-0.16359613835811615
1761340614950806500,6.065806640625,-0.746104896068573,0.30319446325302124,-0.14189237356185913
1761340614960873700,6.075873779296875,-0.5902026295661926,0.2721555829048157,-0.17262764275074005
1761340614970940700,6.085940673828125,-0.4259790778160095,0.2744271755218506,-0.2632204294204712
1761340614981009000,6.0960087890625,-0.279721200466156,0.3094189763069153,-0.31520214676856995
1761340614991075800,6.106075927734375,-0.2097502201795578,0.31150075793266296,-0.2591673731803894
1761340615001143800,6.116143798828125,-0.21836048364639282,0.25746041536331177,-0.09914949536323547
1761340615011210800,6.126210693359375,-0.25655868649482727,0.17230446636676788,0.11083780229091644
1761340615021278700,6.13627880859375,-0.31668540835380554,0.09727497398853302,0.3348056674003601
1761340615031345700,6.146345703125,-0.3829772174358368,0.03291395679116249,0.5094846487045288
1761340615041412600,6.15641259765625,-0.39256221055984497,0.027355674654245377,0.5576023459434509
1761340615051480800,6.166480712890625,-0.3113349378108978,0.10894997417926788,0.44389909505844116
1761340615061547800,6.1765478515625,-0.17029155790805817,0.18454167246818542,0.1957654505968094
1761340615071615700,6.18661572265625,-0.020756013691425323,0.2297791689634323,-0.13508014380931854
1761340615081682700,6.1966826171875,0.11388062685728073,0.24730490148067474,-0.5041735172271729
1761340615091749600,6.20674951171875,0.22226355969905853,0.2114664763212204,-0.8529146909713745
1761340615101817600,6.216817626953125,0.25622737407684326,0.11715062707662582,-1.107685923576355
1761340615111884500,6.226884521484375,0.2412061244249344,-0.03068213351070881,-1.2241320610046387
1761340615121952800,6.236952880859375,0.19018183648586273,-0.18179814517498016,-1.1443415880203247
1761340615132019700,6.247019775390625,0.18175916373729706,-0.3218649625778198,-0.8699553608894348
1761340615142087700,6.257087646484375,0.17512576282024384,-0.42572396993637085,-0.477946013212204
1761340615152154600,6.267154541015625,0.1755094826221466,-0.48853930830955505,-0.0531080886721611
1761340615162221600,6.2772216796875,0.18472188711166382,-0.5457224249839783,0.29466238617897034
1761340615172289500,6.28728955078125,0.19348570704460144,-0.5441492795944214,0.49759024381637573
1761340615182356500,6.2973564453125,0.1873529851436615,-0.4579283893108368,0.5503045916557312
1761340615192424700,6.3074248046875,0.14212369918823242,-0.3352312743663788,0.4688296318054199
1761340615202491600,6.31749169921875,0.05956543982028961,-0.15171922743320465,0.30593523383140564
1761340615212558800,6.327558837890625,-0.032274190336465836,0.05042362958192825,0.12248490750789642
1761340615222626600,6.33762646484375,-0.12288504838943481,0.2883927822113037,0.019925512373447418
1761340615232693800,6.34769384765625,-0.1941794455051422,0.5060173273086548,0.04810958355665207
1761340615242761700,6.35776171875,-0.21081382036209106,0.6076270937919617,0.1721244752407074
1761340615252828700,6.36782861328125,-0.14851832389831543,0.5876544117927551,0.32628872990608215
1761340615262895600,6.3778955078125,-0.03908850997686386,0.4953969419002533,0.46460291743278503
1761340615272963800,6.3879638671875,0.04863469675183296,0.2836437225341797,0.4698909521102905
1761340615283030800,6.39803076171875,0.1477959007024765,-0.08573752641677856,0.24150118231773376
1761340615293098800,6.4080986328125,0.2604178190231323,-0.47237780690193176,-0.1939162164926529
1761340615303165700,6.418165771484375,0.37538808584213257,-0.7275469899177551,-0.6408684253692627
1761340615313233700,6.428233642578125,0.437984436750412,-0.876106858253479,-0.8845033645629883
1761340615323300600,6.438300537109375,0.4534616768360138,-1.070338487625122,-0.8739895224571228
1761340615333367600,6.448367431640625,0.46046411991119385,-1.2998251914978027,-0.6405792236328125
1761340615343435800,6.458435791015625,0.5099749565124512,-1.345966100692749,-0.28355664014816284
1761340615353502700,6.468502685546875,0.5991008281707764,-0.9979475736618042,0.17225511372089386
1761340615363570700,6.47857080078125,0.6686599254608154,-0.5286794304847717,0.6152551770210266
1761340615373637600,6.4886376953125,0.7101364135742188,-0.20965047180652618,0.8675869107246399
1761340615383704600,6.49870458984375,0.7032548189163208,0.053237609565258026,0.9207334518432617
1761340615393772500,6.5087724609375,0.5976977944374084,0.2644171714782715,0.8329516053199768
1761340615403839500,6.518839599609375,0.4138256907463074,0.39586466550827026,0.6838750243186951
1761340615413907700,6.52890771484375,0.1550600230693817,0.3580896258354187,0.5282891988754272
1761340615423974700,6.538974609375,-0.17714960873126984,0.1402031034231186,0.3678976893424988
1761340615434042600,6.549042724609375,-0.511046826839447,-0.1624583750963211,0.14926370978355408
1761340615444109600,6.559109619140625,-0.7519225478172302,-0.34144967794418335,-0.1330246925354004
1761340615454176800,6.5691767578125,-0.8455083966255188,-0.34669026732444763,-0.4292404353618622
1761340615464244500,6.579244384765625,-0.7978915572166443,-0.2383395880460739,-0.6540951132774353
1761340615474311700,6.589311767578125,-0.671991229057312,-0.08131169527769089,-0.71290522813797
1761340615484379600,6.599379638671875,-0.537283718585968,0.045982081443071365,-0.5807458758354187
1761340615494446800,6.60944677734375,-0.45212239027023315,0.14224085211753845,-0.3173031806945801
1761340615504513800,6.619513671875,-0.4169670641422272,0.22838346660137177,-0.001095170620828867
1761340615514581800,6.629581787109375,-0.38580194115638733,0.21528750658035278,0.25526225566864014
1761340615524648700,6.639648681640625,-0.3529220223426819,0.17456191778182983,0.41621729731559753
1761340615534716700,6.649716552734375,-0.29546624422073364,0.15257921814918518,0.4437164068222046
1761340615544784600,6.65978466796875,-0.19617082178592682,0.11917252838611603,0.38415905833244324
1761340615554852600,6.6698525390625,-0.0702507421374321,0.08781619369983673,0.2757026255130768
1761340615564919600,6.67991943359375,0.040383629500865936,0.06544537097215652,0.16214409470558167
1761340615574986500,6.689986572265625,0.12800797820091248,0.102501280605793,0.08277592808008194
1761340615585054700,6.7000546875,0.20203347504138947,0.1661606878042221,0.06534367054700851
1761340615595121700,6.71012158203125,0.232374906539917,0.20853844285011292,0.1337953805923462
1761340615605189600,6.720189697265625,0.24235323071479797,0.2798565924167633,0.27953609824180603
1761340615615256600,6.730256591796875,0.2596680521965027,0.399455189704895,0.4657113254070282
1761340615625323500,6.740323486328125,0.2965776026248932,0.5020571947097778,0.6275942325592041
1761340615635391500,6.7503916015625,0.36958491802215576,0.56470787525177,0.7208195924758911
1761340615645458400,6.76045849609375,0.4262700378894806,0.5263908505439758,0.7129228115081787
1761340615655526700,6.770526611328125,0.43234094977378845,0.3701923191547394,0.6219565272331238
1761340615665593600,6.780593505859375,0.365429550409317,0.2071796953678131,0.4998537600040436
1761340615675660500,6.79066064453125,0.2563506066799164,0.11582504957914352,0.38150638341903687
1761340615685728500,6.800728515625,0.16630753874778748,0.1153978779911995,0.26800301671028137
1761340615695795500,6.81079541015625,0.13497334718704224,0.16030600666999817,0.17376551032066345
1761340615705863400,6.820863525390625,0.1760275661945343,0.2059861421585083,0.11297805607318878
1761340615715930400,6.830930419921875,0.2195337861776352,0.17997118830680847,0.07994432002305984
1761340615725998600,6.84099853515625,0.21203060448169708,0.09908032417297363,0.07131088525056839
1761340615736065500,6.8510654296875,0.11763055622577667,0.026304645463824272,0.09615817666053772
1761340615746132700,6.8611328125,-0.04321638122200966,-0.06322576850652695,0.17402634024620056
1761340615756200400,6.871200439453125,-0.1845594346523285,-0.08483131229877472,0.2991119623184204
1761340615766267600,6.881267578125,-0.232623890042305,-0.04629643261432648,0.41115912795066833
1761340615776335400,6.89133544921875,-0.19651545584201813,0.014659121632575989,0.439303994178772
1761340615786402600,6.901402587890625,-0.12296586483716965,0.10091784596443176,0.34600067138671875
1761340615796469500,6.911469482421875,-0.07578255236148834,0.17576119303703308,0.14122359454631805
1761340615806537700,6.921537841796875,-0.059540197253227234,0.14002983272075653,-0.10877851396799088
1761340615816604700,6.931604736328125,-0.07390505075454712,0.010010093450546265,-0.29896280169487
1761340615826672600,6.941672607421875,-0.21579080820083618,-0.09668998420238495,-0.29859262704849243
1761340615836739600,6.951739501953125,-0.3868001103401184,-0.217291921377182,-0.1273733526468277
1761340615846807600,6.9618076171875,-0.4918721914291382,-0.31483420729637146,0.1442624181509018
1761340615856874500,6.97187451171875,-0.5653966665267944,-0.3749854862689972,0.29876962304115295
1761340615866941400,6.98194140625,-0.49021750688552856,-0.3782699704170227,0.2083505094051361
1761340615877009700,6.992009765625,-0.38139626383781433,-0.42085856199264526,-0.00771161075681448
1761340615887076600,7.00207666015625,-0.2787971794605255,-0.3836778998374939,-0.1949336975812912
1761340615897144600,7.01214453125,-0.16894268989562988,-0.27706217765808105,-0.2683044970035553
1761340615907211500,7.02221142578125,-0.12255416065454483,-0.13364802300930023,-0.23915165662765503
1761340615917278500,7.032278564453125,-0.11772456020116806,0.11000777781009674,-0.13087552785873413
1761340615927346400,7.042346435546875,-0.11993817985057831,0.3809788227081299,0.024558264762163162
1761340615937413400,7.052413330078125,-0.12112459540367126,0.6011930108070374,0.18102328479290009
1761340615947481600,7.062481689453125,-0.1269902139902115,0.7736318707466125,0.2941186726093292
1761340615957548500,7.072548583984375,-0.13231784105300903,0.8737087249755859,0.348129004240036
1761340615967615500,7.082615478515625,-0.10190295428037643,0.8808244466781616,0.34997323155403137
1761340615977683500,7.092683349609375,-0.047143738716840744,0.7728016376495361,0.3191395103931427
1761340615987750700,7.102750732421875,0.02568892203271389,0.5787783265113831,0.25900503993034363
1761340615997818400,7.112818359375,0.10640306025743484,0.43554064631462097,0.17627300322055817
1761340616007885600,7.122885498046875,0.17946048080921173,0.1921309232711792,0.13167357444763184
1761340616017953500,7.13295361328125,0.2068149894475937,-0.08478470891714096,0.13786369562149048
1761340616028020700,7.143020751953125,0.2059428095817566,-0.2905791401863098,0.10709060728549957
1761340616038087700,7.153087646484375,0.20499730110168457,-0.4030459523200989,0.03038366511464119
1761340616048155600,7.16315576171875,0.20934917032718658,-0.3969813883304596,-0.060335587710142136
1761340616058222600,7.17322265625,0.22014057636260986,-0.3777303099632263,-0.11156053096055984
1761340616068290600,7.18329052734375,0.23146380484104156,-0.32584500312805176,-0.09672672301530838
1761340616078357500,7.193357421875,0.23022010922431946,-0.2417486011981964,-0.05744919925928116
1761340616088424400,7.203424560546875,0.20947489142417908,-0.15964974462985992,-0.029018089175224304
1761340616098492700,7.21349267578125,0.19512484967708588,-0.07777317613363266,-0.01848999783396721
1761340616108559600,7.2235595703125,0.19291122257709503,0.03034556843340397,-0.010999858379364014
1761340616118627600,7.233627685546875,0.19564694166183472,0.16265127062797546,-0.014168623834848404
1761340616128694500,7.243694580078125,0.19290468096733093,0.26059088110923767,-0.0030749603174626827
1761340616138761500,7.253761474609375,0.17445792257785797,0.31975090503692627,0.03292568400502205
1761340616148829400,7.263829345703125,0.14329813420772552,0.3630339205265045,0.06126651540398598
1761340616158896400,7.273896484375,0.1084352359175682,0.34390711784362793,0.05449409410357475
1761340616168964600,7.283964599609375,0.09086636453866959,0.2778865396976471,0.015003674663603306
1761340616179031600,7.294031494140625,0.10077133774757385,0.18657952547073364,-0.0595555379986763
1761340616189099500,7.304099609375,0.11910346895456314,0.061052754521369934,-0.14458175003528595
1761340616199166500,7.31416650390625,0.1435716450214386,-0.06987141072750092,-0.20827415585517883
1761340616209233400,7.3242333984375,0.15996153652668,-0.16377979516983032,-0.2284553200006485
1761340616219301400,7.33430126953125,0.16245388984680176,-0.20005245506763458,-0.21102160215377808
1761340616229368600,7.34436865234375,0.15749961137771606,-0.20751196146011353,-0.1474735140800476
1761340616239436500,7.3544365234375,0.14491549134254456,-0.18477973341941833,-0.08624475449323654
1761340616249503500,7.36450341796875,0.13539628684520721,-0.09719981253147125,-0.05295896902680397
1761340616259570700,7.37457080078125,0.10907015949487686,-0.0077372523956000805,-0.028202436864376068
1761340616269638700,7.384638671875,0.06432319432497025,0.039886992424726486,-0.002143138088285923
1761340616279705600,7.39470556640625,0.03234761208295822,0.06403428316116333,0.0016770465299487114
1761340616289773600,7.404773681640625,0.01199546828866005,0.05914871394634247,0.0030440473929047585
1761340616299840500,7.414840576171875,0.0016090674325823784,0.03591757267713547,-0.001244827639311552
1761340616309907500,7.424907470703125,0.009756742045283318,0.024220436811447144,0.003072955645620823
1761340616319975700,7.4349755859375,0.040615443140268326,0.0002861013635993004,0.023879725486040115
1761340616330042600,7.445042724609375,0.07308044284582138,-0.0328015461564064,0.05092013254761696
1761340616340110600,7.455110595703125,0.0876188576221466,-0.04966682195663452,0.06981071829795837
1761340616350177500,7.465177490234375,0.08276711404323578,-0.027534618973731995,0.05808455869555473
1761340616360245500,7.47524560546875,0.08610835671424866,-0.0036659259349107742,0.056748297065496445
1761340616370312400,7.4853125,0.09120724350214005,0.0012888852506875992,0.06632768362760544
1761340616380379400,7.49537939453125,0.09377177059650421,0.0021193604916334152,0.08188115805387497
1761340616390447600,7.505447509765625,0.09542959183454514,0.010221496224403381,0.10133608430624008
1761340616400514600,7.5155146484375,0.09764552116394043,0.052856553345918655,0.1347491592168808
1761340616410582500,7.52558251953125,0.09809000790119171,0.1068824976682663,0.1769285649061203
1761340616420649500,7.5356494140625,0.11273793876171112,0.15766115486621857,0.17427755892276764
1761340616430716400,7.54571630859375,0.14989303052425385,0.1673862189054489,0.13668809831142426
1761340616440784400,7.555784423828125,0.19350191950798035,0.11353020370006561,0.08486621081829071
1761340616450851300,7.565851318359375,0.2209785431623459,0.026070931926369667,0.03519746661186218
1761340616460919600,7.57591943359375,0.23044821619987488,-0.06963908672332764,-0.009913554415106773
1761340616470986500,7.585986572265625,0.22312025725841522,-0.15544161200523376,-0.008557739667594433
1761340616481054500,7.596054443359375,0.19867388904094696,-0.22422267496585846,0.027845673263072968
1761340616491121400,7.606121337890625,0.16091080009937286,-0.26489606499671936,0.05377393960952759
1761340616501188600,7.616188720703125,0.14217665791511536,-0.2640153169631958,0.05326210707426071
1761340616511256600,7.626256591796875,0.14634130895137787,-0.23897255957126617,0.02683396264910698
1761340616521323500,7.636323486328125,0.17990455031394958,-0.22925463318824768,-0.005760957021266222
1761340616531391700,7.646391845703125,0.24884101748466492,-0.24309615790843964,-0.030681487172842026
1761340616541458700,7.656458740234375,0.31504443287849426,-0.23416456580162048,-0.02356085553765297
1761340616551525600,7.666525634765625,0.34467822313308716,-0.18130268156528473,0.000269109383225441
1761340616561593600,7.676593505859375,0.3296947479248047,-0.11236975342035294,0.008638574741780758
1761340616571660500,7.68666064453125,0.2877664566040039,-0.05093861743807793,-0.015893666073679924
1761340616581728500,7.696728515625,0.24042785167694092,-0.031861454248428345,-0.03941856324672699
1761340616591795500,7.70679541015625,0.20094169676303864,-0.018947789445519447,-0.05169413611292839
1761340616601862400,7.7168623046875,0.18048053979873657,-0.030109522864222527,-0.04785511642694473
1761340616611930600,7.7269306640625,0.19770026206970215,-0.04780250042676926,-0.02798687107861042
1761340616621997600,7.73699755859375,0.2368054986000061,-0.10831546783447266,0.03378349542617798
1761340616632065500,7.7470654296875,0.26899591088294983,-0.22221992909908295,0.14247748255729675
1761340616642132500,7.757132568359375,0.2777659296989441,-0.30622225999832153,0.29279258847236633
1761340616652199400,7.767199462890625,0.27383431792259216,-0.3732931911945343,0.3897135257720947
1761340616662267400,7.777267333984375,0.31470784544944763,-0.39131587743759155,0.38297009468078613
1761340616672334300,7.787334228515625,0.2865723669528961,-0.3843005895614624,0.33580073714256287
1761340616682402600,7.797402587890625,0.17933858931064606,-0.29928112030029297,0.29537490010261536
1761340616692469500,7.807469482421875,0.02790886163711548,-0.1608140617609024,0.24053403735160828
1761340616702536700,7.81753662109375,-0.12259604036808014,0.05359877273440361,0.18921399116516113
1761340616712604400,7.8276044921875,-0.2124153971672058,0.2958899736404419,0.14643989503383636
1761340616722671600,7.837671630859375,-0.23422405123710632,0.5506961345672607,0.14599910378456116
1761340616732739300,7.8477392578125,-0.2195734679698944,0.7716354131698608,0.15875723958015442
1761340616742806500,7.857806640625,-0.17643752694129944,0.8990779519081116,0.17015281319618225
1761340616752874500,7.86787451171875,-0.13662993907928467,0.8964534401893616,0.16974695026874542
1761340616762941700,7.877941650390625,-0.10461795330047607,0.7854501008987427,0.17788340151309967
1761340616773008600,7.888008544921875,-0.06193334236741066,0.5589509606361389,0.17371955513954163
1761340616783076600,7.89807666015625,-0.027067985385656357,0.21626906096935272,0.12844985723495483
1761340616793143600,7.9081435546875,-0.05566873773932457,-0.33569902181625366,-0.025026516988873482
1761340616803211500,7.91821142578125,-0.14045283198356628,-1.036641001701355,-0.36299481987953186
1761340616813278500,7.928278564453125,-0.2331840991973877,-1.6641148328781128,-0.7761089205741882
1761340616823345400,7.938345458984375,-0.284026175737381,-2.093381643295288,-0.9710851907730103
1761340616833413600,7.94841357421875,-0.2714608311653137,-1.9463509321212769,-0.6415818333625793
1761340616843480600,7.95848046875,-0.23904363811016083,-1.269976019859314,0.14525024592876434
1761340616853548500,7.968548583984375,-0.2512350380420685,-0.6054598689079285,0.925266444683075
1761340616863615500,7.978615478515625,-0.24418136477470398,-0.27471375465393066,1.284688949584961
1761340616873682400,7.988682373046875,-0.27369213104248047,-0.26580414175987244,1.2721954584121704
1761340616883750400,7.99875048828125,-0.44304946064949036,-0.44938650727272034,1.0808889865875244
1761340616893816600,8.008816650390624,-0.8062077164649963,-0.7254583239555359,0.8659302592277527
1761340616903883500,8.018883544921875,-1.2779618501663208,-1.0246702432632446,0.6027080416679382
1761340616913951700,8.02895166015625,-1.7387995719909668,-1.1541062593460083,0.24547219276428223
1761340616924018700,8.039018798828126,-2.0796806812286377,-0.9193984866142273,-0.21746578812599182
1761340616934086700,8.049086669921875,-2.189343214035034,-0.30648180842399597,-0.7022268772125244
1761340616944153600,8.059153564453124,-2.059671401977539,0.43558549880981445,-1.0169044733047485
1761340616954220500,8.069220458984375,-1.8103079795837402,1.0420809984207153,-1.074317216873169
1761340616964288500,8.07928857421875,-1.537945032119751,1.4446876049041748,-0.904224157333374
1761340616974355500,8.08935546875,-1.2442777156829834,1.5938706398010254,-0.5778242349624634
1761340616984423700,8.099423583984375,-0.9498633146286011,1.5088855028152466,-0.1943778693675995
1761340616994490600,8.10949072265625,-0.6585875153541565,1.290454387664795,0.17614878714084625
1761340617004557600,8.1195576171875,-0.3587362468242645,1.0510118007659912,0.4861471951007843
1761340617014625500,8.12962548828125,-0.049454834312200546,0.8543620705604553,0.7268010973930359
1761340617024692500,8.1396923828125,0.26041921973228455,0.6424700617790222,0.9106810688972473
1761340617034760400,8.149760498046875,0.5207163095474243,0.38191697001457214,1.0005873441696167
1761340617044827400,8.159827392578125,0.7343520522117615,0.1531897485256195,0.9751633405685425
1761340617054895600,8.1698955078125,0.9003176093101501,0.02384081855416298,0.8341564536094666
1761340617064962600,8.179962646484375,1.0177587270736694,-0.030250784009695053,0.6206099987030029
1761340617075029500,8.190029541015624,1.0926384925842285,-0.03575900197029114,0.386642724275589
1761340617085097500,8.200097412109375,1.1155332326889038,-0.05199836194515228,0.15886953473091125
1761340617095164400,8.210164306640625,1.100136637687683,-0.06028265878558159,-0.030136337503790855
1761340617105232400,8.220232421875,1.0676817893981934,-0.06658992916345596,-0.17080754041671753
1761340617115299600,8.230299560546875,1.025575876235962,-0.04724685847759247,-0.28084325790405273
1761340617125366500,8.240366455078124,0.9795300364494324,-0.0024758456274867058,-0.3491329848766327
1761340617135434800,8.250434814453126,0.9658043384552002,0.08442070335149765,-0.3789486587047577
1761340617145501700,8.260501708984375,0.9886366128921509,0.1940327286720276,-0.3658677041530609
1761340617155569700,8.270569580078124,1.019046425819397,0.3301370441913605,-0.3276553452014923
1761340617165636600,8.28063671875,1.040021300315857,0.4506750702857971,-0.2755272686481476
1761340617175703600,8.29070361328125,1.0540087223052979,0.5698525905609131,-0.23159685730934143
1761340617185771500,8.300771484375,0.957504153251648,0.6730319261550903,-0.1989782452583313
1761340617195838500,8.31083837890625,0.7173088788986206,0.6521737575531006,-0.12205177545547485
1761340617205906700,8.32090673828125,0.43158984184265137,0.5106186270713806,-0.05121498554944992
1761340617215973600,8.3309736328125,0.14789420366287231,0.30895745754241943,0.005908754654228687
1761340617226040600,8.34104052734375,-0.110237255692482,0.1090640276670456,0.060843102633953094
1761340617236108500,8.351108642578126,-0.33879294991493225,-0.007276963442564011,0.1263590008020401
1761340617246175500,8.361175537109375,-0.41230079531669617,-0.14274032413959503,0.23774272203445435
1761340617256243500,8.371243408203124,-0.22859887778759003,-0.17595820128917694,0.4156312346458435
1761340617266310400,8.381310302734375,0.10891560465097427,-0.4183867573738098,0.380543053150177
1761340617276379600,8.391379638671875,0.31241410970687866,-1.1559497117996216,-0.023742888122797012
1761340617286446600,8.401446533203124,0.23243510723114014,-1.989839792251587,-0.5013424158096313
1761340617296514600,8.4115146484375,-0.08832798898220062,-2.6002683639526367,-0.8310463428497314
1761340617306581500,8.42158154296875,-0.41461893916130066,-2.7843971252441406,-0.9227861166000366
1761340617316648400,8.4316484375,-0.6446359157562256,-2.457643508911133,-0.7817315459251404
1761340617326716400,8.44171630859375,-0.7340128421783447,-1.5253888368606567,-0.5947989821434021
1761340617336783600,8.45178369140625,-0.6126999855041504,-0.15024614334106445,-0.42749568819999695
1761340617346851600,8.4618515625,-0.33650311827659607,0.7593941688537598,-0.320850670337677
1761340617356918500,8.47191845703125,-0.12880319356918335,0.7066785097122192,-0.22841660678386688
1761340617366986500,8.481986572265624,0.010723985731601715,-0.1755916178226471,-0.08992454409599304
1761340617377053400,8.492053466796875,-0.3423347473144531,-0.794226348400116,0.16732004284858704
1761340617387120400,8.502120361328124,-1.224308967590332,-0.9398260116577148,0.08608177304267883
1761340617397188400,8.512188232421876,-2.053894281387329,-0.4207914173603058,-0.41024836897850037
1761340617407255600,8.522255615234375,-2.3006646633148193,0.17215700447559357,-1.0570014715194702
1761340617417323500,8.532323486328124,-2.0567750930786133,1.1243464946746826,-1.7326608896255493
1761340617427390500,8.542390380859375,-1.9243732690811157,1.24373197555542,-2.168437957763672
1761340617437457700,8.552457763671875,-1.9480258226394653,1.0536214113235474,-2.235255241394043
1761340617447525400,8.562525390625,-1.9639630317687988,0.6878656148910522,-2.0254344940185547
1761340617457592600,8.572592529296875,-1.9128748178482056,0.32438087463378906,-1.5036615133285522
1761340617467660500,8.58266064453125,-1.6895391941070557,0.08265406638383865,-0.8474550843238831
1761340617477727700,8.592727783203125,-1.2793306112289429,-0.03372953459620476,-0.2927626073360443
1761340617487794700,8.602794677734375,-0.7360866069793701,-0.062263473868370056,0.0533740259706974
1761340617497862700,8.612862548828126,-0.12468022108078003,-0.00909452885389328,0.23913456499576569
1761340617507929600,8.6229296875,0.44242098927497864,-0.019610030576586723,0.30968302488327026
1761340617517997600,8.63299755859375,0.8575012683868408,-0.10642774403095245,0.2614188492298126
1761340617528064500,8.643064453125,1.091105580329895,-0.1850232630968094,0.12549133598804474
1761340617538131500,8.65313134765625,1.166195034980774,-0.24124525487422943,-0.04666098207235336
1761340617548199200,8.66319921875,1.0837475061416626,-0.3056872487068176,-0.19364817440509796
1761340617558266000,8.67326611328125,0.9069257974624634,-0.2033616602420807,-0.3109814524650574
1761340617568334000,8.683333984375,0.7966504693031311,0.07711358368396759,-0.364926815032959
1761340617578401000,8.693401123046876,0.7427912354469299,0.42906227707862854,-0.35804468393325806
1761340617588469000,8.703468994140625,0.7463778257369995,0.7556765079498291,-0.27230197191238403
1761340617598536000,8.713535888671874,0.7626444101333618,0.974669337272644,-0.15553218126296997
1761340617608603000,8.723602783203125,0.7389891147613525,1.0546014308929443,-0.044990770518779755
1761340617618671000,8.733671142578125,0.6828685998916626,1.0637975931167603,0.046412914991378784
1761340617628738000,8.743738037109376,0.6144461631774902,1.039359211921692,0.08117181807756424
1761340617638806000,8.753805908203125,0.5820003747940063,0.8762434720993042,0.03849306330084801
1761340617648873200,8.763873291015624,0.5582528114318848,0.626435399055481,0.006459354422986507
1761340617658940200,8.773940185546875,0.6419777870178223,0.19642463326454163,-0.04071588069200516
1761340617669008100,8.784008056640625,0.7786339521408081,-0.18745586276054382,-0.06604807078838348
1761340617679075000,8.794074951171876,0.8021389842033386,-0.5224541425704956,0.008732164278626442
1761340617689143300,8.804143310546875,0.653641402721405,-0.706437349319458,0.17546649277210236
1761340617699210200,8.814210205078124,0.4277677834033966,-0.7283921837806702,0.371537983417511
1761340617709277200,8.824277099609375,0.2986355125904083,-0.5998566746711731,0.4941308796405792
1761340617719345200,8.83434521484375,0.4128686189651489,-0.7166618704795837,0.5895511507987976
1761340617729412000,8.844412109375,0.27494651079177856,-0.8993070721626282,0.7950929999351501
1761340617739480000,8.85447998046875,-0.01849948987364769,-0.7152826189994812,0.9211161732673645
1761340617749547000,8.864547119140624,-0.1932014524936676,-0.22355452179908752,0.8717204332351685
1761340617759614000,8.874614013671875,-0.17334838211536407,0.33518943190574646,0.6647056937217712
1761340617769682200,8.88468212890625,-0.052294474095106125,0.70640629529953,0.39742568135261536
1761340617779749000,8.8947490234375,0.12604650855064392,0.7765308022499084,0.11573272943496704
1761340617789817000,8.904817138671875,0.3299507200717926,0.33188703656196594,-0.030976269394159317
1761340617799884000,8.914884033203125,0.47605013847351074,-0.5399379134178162,0.15562370419502258
1761340617809951000,8.924950927734375,0.6314831376075745,-1.2503560781478882,0.238251730799675
1761340617820019000,8.93501904296875,0.6750439405441284,-1.602544903755188,0.13018359243869781
1761340617830086000,8.9450859375,0.4473675787448883,-1.547847032546997,-0.012777184136211872
1761340617840154000,8.955154052734375,0.00844560656696558,-1.2955679893493652,-0.03268963843584061
1761340617850221000,8.965220947265625,-0.34375232458114624,-0.9304537177085876,0.09366872906684875
1761340617860288300,8.975288330078126,-0.424160361289978,-0.6017077565193176,0.41278520226478577
1761340617870356000,8.98535595703125,-0.26027271151542664,-0.4341648817062378,0.7948230504989624
1761340617880423200,8.995423095703124,0.011844031512737274,-0.3326060473918915,1.0130430459976196
1761340617890491100,9.0054912109375,0.21179921925067902,-0.153527170419693,0.8528849482536316
1761340617900558000,9.01555810546875,0.22477494180202484,0.014912963844835758,0.4262465536594391
1761340617910626000,9.0256259765625,0.18098196387290955,0.09912754595279694,-0.04141559824347496
1761340617920693200,9.035693359375,0.08467699587345123,0.1552502065896988,-0.4702228903770447
1761340617930760200,9.04576025390625,-0.09487587213516235,0.23864197731018066,-0.7728394865989685
1761340617940828200,9.055828125,-0.3503585159778595,0.29763633012771606,-0.8857210278511047
1761340617950895000,9.06589501953125,-0.6035508513450623,0.34266266226768494,-0.8206546902656555
1761340617960963000,9.075963134765624,-0.8274635672569275,0.4633946716785431,-0.6813186407089233
1761340617971030000,9.086030029296875,-0.9533975124359131,0.551604688167572,-0.5437285304069519
1761340617981097000,9.096096923828124,-0.9274963736534119,0.5257616639137268,-0.3874318599700928
1761340617991165200,9.106165283203126,-0.767861545085907,0.40055081248283386,-0.2362539917230606
1761340618001232100,9.116232177734375,-0.5844288468360901,0.2641863226890564,-0.12217481434345245
1761340618011300000,9.126300048828124,-0.4200245141983032,0.14189596474170685,-0.012900715693831444
1761340618021367000,9.136366943359375,-0.30043208599090576,0.05253491923213005,0.045995622873306274
1761340618031434000,9.14643408203125,-0.1999814808368683,-0.016721244901418686,0.05552348494529724
1761340618041502000,9.156501953125,-0.13105912506580353,-0.07595234364271164,0.032982222735881805
1761340618051569000,9.16656884765625,-0.08911947906017303,-0.12605664134025574,-0.0001683998852968216
1761340618061637000,9.17663720703125,-0.02241421677172184,-0.1225961297750473,-0.021294724196195602
1761340618071704000,9.1867041015625,0.043664492666721344,-0.11455579847097397,-0.030204549431800842
1761340618081771000,9.19677099609375,0.019143972545862198,-0.0687696635723114,0.025611579418182373
1761340618091839000,9.2068388671875,-0.06870288401842117,0.008681735023856163,0.14716672897338867
1761340618101906200,9.21690625,-0.14788106083869934,0.1489909142255783,0.26333752274513245
1761340618111974000,9.226973876953124,-0.16746553778648376,0.2607801854610443,0.2869362235069275
1761340618122041000,9.237041015625,-0.15851597487926483,0.3432183265686035,0.18305934965610504
1761340618132108000,9.24710791015625,-0.15029376745224,0.2515800893306732,0.32839667797088623
1761340618142176300,9.25717626953125,-0.13419416546821594,-0.019808541983366013,0.29057687520980835
1761340618152243200,9.2672431640625,-0.04113798588514328,-0.07801344245672226,0.26090073585510254
1761340618162311200,9.277311279296875,0.06074150651693344,-0.06361132860183716,0.0554027259349823
1761340618172378000,9.287378173828126,0.04662971943616867,0.14857736229896545,-0.15483438968658447
1761340618182445000,9.297445068359375,-0.012201638892292976,0.33426016569137573,-0.341695100069046
1761340618192513000,9.307512939453124,-0.030634187161922455,0.487003892660141,-0.4424072206020355
1761340618202580000,9.317580078125,0.015650222077965736,0.5466997623443604,-0.41588082909584045
1761340618212648200,9.327648193359375,0.02863815240561962,0.4756543040275574,-0.32541829347610474
1761340618222715100,9.337715087890626,0.00926019437611103,0.2442207932472229,-0.1908290684223175
1761340618232782000,9.347781982421875,0.03638856112957001,0.04596180096268654,-0.09086038172245026
