time,seconds_elapsed,z,y,x
1761341797892011800,0.08201171875,-0.06891805340349674,0.009483703263383358,0.0011489280065288766
1761341797902078000,0.092077880859375,-0.05919160915911197,0.00811807746598497,0.004149854255025275
1761341797912144000,0.102143798828125,-0.06023556525409221,0.003047788464371115,0.0007629837291315198
1761341797922210000,0.1122099609375,-0.06038111120462417,0.01006712917452678,-0.0021045801969710736
1761341797932277000,0.122277099609375,-0.06696633481383324,0.005609711374249309,-0.001662348288227804
1761341797942342700,0.1323427734375,-0.0693552757769823,0.005553980865329503,0.001781430923519656
1761341797952408800,0.142408935546875,-0.07728431521058082,0.005748188263177871,0.00494374001249671
1761341797962474800,0.152474853515625,-0.062469023394584655,0.001964760734327137,0.007235422013094649
1761341797972541000,0.162541015625,-0.07578560108542443,0.004450001678802073,0.0034802296314621344
1761341797982608000,0.17260791015625,-0.07907470575869083,0.0031313568282872436,-0.0000026029490400105715
1761341797992673800,0.182673828125,-0.06815174520611762,-0.00045298619819805026,0.006128396919532679
1761341798002740000,0.192739990234375,-0.06500994004905224,0.0058447257065214215,0.0021752434135414657
1761341798012806000,0.202805908203125,-0.06620704087913036,0.00898874108698219,-0.001243045163922943
1761341798022872800,0.212872802734375,-0.06650573156476021,0.00688833474162966,0.0007794234072789549
1761341798032939000,0.22293896484375,-0.0599222615212202,0.00479528971882537,0.00782221349168103
1761341798043004700,0.233004638671875,-0.0678565616518259,0.012436726116389036,0.00788947917476762
1761341798053070800,0.24307080078125,-0.06292144333720207,0.0016392733733169734,0.008004620853881352
1761341798063137800,0.2531376953125,-0.06651333034932613,0.004824132220819592,0.002392617057845928
1761341798073203700,0.26320361328125,-0.06561550472676754,0.00043698491146788,-0.0026717034272849558
1761341798083270000,0.273269775390625,-0.07219955929219722,0.010611282521206885,-0.004664909371384419
1761341798093335800,0.283335693359375,-0.06501227813661098,0.005783606636431068,0.0070462606831220905
1761341798103402800,0.29340283203125,-0.07099310611188411,0.00004772986555472016,0.00043038620732259
1761341798113469000,0.303468994140625,-0.06814999164044856,-0.000580137975513935,0.007852640595985576
1761341798123534800,0.313534912109375,-0.06261047769188881,0.0000827098473906517,0.011270212220819666
1761341798133601000,0.32360107421875,-0.07128712062239646,-0.002094962985254824,0.005076979037304408
1761341798143667000,0.3336669921875,-0.06694938367903232,0.002027432440686971,0.006327636685525067
1761341798153734000,0.34373388671875,-0.06904197204411029,-0.0020934468816034496,0.005323505710856989
1761341798163799800,0.3537998046875,-0.06500117222070693,0.007293408411182463,0.000025897059659473596
1761341798173865700,0.36386572265625,-0.059167059239745134,0.011979903993289917,-0.0007977993141859769
1761341798183932000,0.373931884765625,-0.06769757169783115,0.005608889390341937,0.010712057748250663
1761341798193998800,0.383998779296875,-0.06724690532088279,-0.0014766849564388394,0.005127727410430089
1761341798204064800,0.394064697265625,-0.06978840649724007,0.003938782487343997,0.0032620796690229323
1761341798214131000,0.404130859375,-0.07442775673568248,0.010099624938331544,0.004908444936829619
1761341798224196900,0.41419677734375,-0.06395020186305046,-0.005717957521695643,0.008537439955794252
1761341798234263800,0.424263916015625,-0.06904372560977935,-0.0021915186949074267,-0.004970280959550291
1761341798244330000,0.434330078125,-0.06620178018212318,0.005200838312413543,0.003926110235438682
1761341798254396000,0.44439599609375,-0.07098492280542851,0.0015635229896754025,0.0005523366531357169
1761341798264461800,0.4544619140625,-0.06888824278712272,-0.0022441256649792193,0.004246387131791562
1761341798274529000,0.464529052734375,-0.06395721612572669,-0.0007251176704652607,0.0101263302821666
1761341798284594700,0.4745947265625,-0.07428396435081959,-0.0011251863713376224,0.0015234832402318715
1761341798294660900,0.484660888671875,-0.06904957082867622,-0.004298683574609458,0.002108420688449405
1761341798304726800,0.494726806640625,-0.07233926002383231,-0.0012798837427049875,-0.004399796728370711
1761341798314793700,0.504793701171875,-0.06425941394269466,0.007108827358204871,0.0008986841390840708
1761341798324860000,0.51485986328125,-0.06515431695580481,0.005608688460942358,0.003345474503003061
1761341798334925800,0.52492578125,-0.07502630715072155,-0.0005340338114649057,-0.002674374874983914
1761341798344992000,0.534991943359375,-0.07008475909531116,-0.0037737463850528,0.0029423598950961602
1761341798355059000,0.545058837890625,-0.06364741952419281,0.00045117783360183234,-0.004427607183903456
1761341798365124900,0.555124755859375,-0.05885960072576999,0.00046800110423937436,0.005925056367157958
1761341798375191000,0.56519091796875,-0.06215396609604358,0.0072647303059697145,0.003917662067501805
1761341798385256700,0.575256591796875,-0.06410217755436896,-0.002927029895223677,0.007695034314901567
1761341798395323600,0.58532373046875,-0.060953942656517025,-0.0036056050102226435,0.0008651745951268821
1761341798405389800,0.595389892578125,-0.06439560754299163,0.00013714344836771486,-0.0004512737317243591
1761341798415455700,0.605455810546875,-0.06543781007230282,0.0033801804902032014,0.004358661000384017
1761341798425522000,0.61552197265625,-0.06783084268867969,-0.004160553745552897,-0.0005501309963176027
1761341798435587800,0.625587890625,-0.06992869175076484,-0.001181391804292798,0.006692282446566969
1761341798445654800,0.63565478515625,-0.06543722555041313,0.0035756847959943112,0.003014493549545295
1761341798455721000,0.645720947265625,-0.06513911938667297,0.005129398777708411,0.0016006127302069216
1761341798465787000,0.655786865234375,-0.06453939992785454,0.0016018822386860846,-0.0009240834418218582
1761341798475853000,0.66585302734375,-0.06289104819893837,0.0016631657055579125,0.005386305281380191
1761341798485920000,0.675919921875,-0.05945113687813282,0.0034006752889603376,0.005560999694583006
1761341798495986000,0.68598583984375,-0.06528524985909462,0.0010580576855689287,0.003259969910327345
1761341798506051800,0.6960517578125,-0.05974865851998329,-0.004780950666218996,0.0024775508283637463
1761341798516117800,0.70611767578125,-0.07635667897164822,0.0016753310673870145,0.007229279966675676
1761341798526184700,0.716184814453125,-0.06857610809803008,0.003911839681491255,0.0045227929203771056
1761341798536251000,0.7262509765625,-0.0726192460089922,0.002061499107070267,-0.0011659796060295776
1761341798546316800,0.73631689453125,-0.06753449009060859,-0.004255611617863178,-0.00021433230384718626
1761341798556383000,0.746383056640625,-0.060951020047068594,0.00851584461191669,0.0004480086289811879
1761341798566450000,0.756449951171875,-0.06753682817816734,0.0016997896552085876,-0.0000699142978992313
1761341798576515800,0.766515869140625,-0.07576397377550602,-0.00023775427863001821,0.004561033438378945
1761341798586582000,0.77658203125,-0.07022562887072563,0.004631660122331231,0.0009971075788373126
1761341798596648000,0.78664794921875,-0.07337094115912914,0.002222991545405239,0.008784395887609571
1761341798606715000,0.79671484375,-0.07292261286973953,0.005655157951172441,0.007944437932129948
1761341798616780800,0.80678076171875,-0.0690285280406475,0.0015984847052022814,0.009161033480544574
1761341798626846700,0.8168466796875,-0.07575812855660916,0.005452986442577094,0.00310274265515618
1761341798636913000,0.826912841796875,-0.06588380027413368,0.003697064419649541,0.0025511320878053084
1761341798646978800,0.836978759765625,-0.06768003604114055,0.0064187444685027,0.0006546599498717114
1761341798657045800,0.847045654296875,-0.06678396398425102,0.0047161783343181015,0.005900620612222701
1761341798667112000,0.85711181640625,-0.057356794947385784,-0.0016055537668056784,0.010443529305444099
1761341798677177900,0.867177734375,-0.06573942336738109,-0.002720492738764733,-0.0016690748565364628
1761341798687244000,0.877244140625,-0.06648878042995929,0.0034436193815432486,0.00196138603372965
1761341798697311000,0.88731103515625,-0.06829086141586303,-0.0014151092286221682,0.004193743629101664
1761341798707377000,0.897376953125,-0.06545066955387592,0.0021492504557594654,0.0011487453434383497
1761341798717442800,0.90744287109375,-0.06290975289940834,0.00492888950323686,0.0032957033774117005
1761341798727508700,0.9175087890625,-0.07517477571070194,-0.00004572057155892253,0.012976203287951647
1761341798737575700,0.92757568359375,-0.08026186971664429,0.0017034063844010234,0.0018679949621204287
1761341798747641900,0.937641845703125,-0.0783177499115467,0.0022013642354868353,0.005398023118637502
1761341798757707800,0.947707763671875,-0.0645493367999792,0.009474478777311742,-0.006158276034565642
1761341798767774000,0.95777392578125,-0.07187748773097992,0.0012065262455493212,0.004924181362078525
1761341798777841000,0.9678408203125,-0.06768763482570647,0.005804667690768837,0.009920514644915238
1761341798787906800,0.97790673828125,-0.06349778192043304,-0.0013901939830742777,0.0010487601342611015
1761341798797973000,0.987972900390625,-0.07427168939113617,-0.0033318295701406896,-0.001385490408493206
1761341798808039000,0.998038818359375,-0.06978373032212257,0.007350691556371748,0.002539583213906735
1761341798818105000,1.00810498046875,-0.06798866359889506,-0.0028087738104164597,0.0028156054100021716
1761341798828172000,1.018172119140625,-0.06664192516505718,-0.0007120024605654179,-0.0027228627923643217
1761341798838237700,1.02823779296875,-0.06813479407131671,0.0015443981640972195,0.006201398223661817
1761341798848303900,1.038303955078125,-0.0739694915741682,-0.002235997157450765,0.008427189080929383
1761341798858369800,1.048369873046875,-0.07486497910916805,0.001728376428876072,-0.0015226018908200785
1761341798868436700,1.058436767578125,-0.061547232374548906,0.007848320613894611,0.006118720342312008
1761341798878503000,1.0685029296875,-0.059901803255081175,0.002169836586061865,0.00798119887909852
1761341798888568800,1.07856884765625,-0.06603811405301094,0.0037181985392235216,-0.0035721502651926127
1761341798898635000,1.088635009765625,-0.06499006630480289,-0.001712923131417483,0.005158565506688318
1761341798908702000,1.098701904296875,-0.06843465380072593,-0.003682725367043167,0.0010339278913103044
1761341798918767900,1.108767822265625,-0.0637958880841732,0.004687993419449776,0.003813923131814226
1761341798928834000,1.118833984375,-0.06648994947373867,0.0005155665730126202,0.006320599589962512
1761341798938899700,1.128899658203125,-0.06424421637356281,0.0021003332801163197,0.011261508324556052
1761341798948967000,1.138966796875,-0.07097907758653163,0.002458206807076931,0.005621858469769358
1761341798959032800,1.14903271484375,-0.07172434299588203,0.0020777378558181226,0.0026336501389509067
1761341798969098800,1.1590986328125,-0.07277180622220039,0.0034421215442009268,-0.0022724201777018604
1761341798979165000,1.1691650390625,-0.07801029139757155,0.008283442361839114,-0.001489485072507523
1761341798989231900,1.17923193359375,-0.0687321754425764,0.0012660378804430364,-0.0031524224492022767
1761341798999297800,1.1892978515625,-0.06259528012275696,0.009686167032923548,0.0030250240767141804
1761341799009364000,1.199364013671875,-0.07411679109036921,0.008610719821136445,0.006326116015296429
1761341799019430000,1.209429931640625,-0.06857727714180946,-0.00017594108879566192,0.004386544521152973
1761341799029496000,1.21949609375,-0.07052373503446578,0.0027046193161979317,0.003956838733842596
1761341799039563000,1.22956298828125,-0.07576222020983696,0.001139361027162522,0.0010407046919688582
1761341799049629000,1.23962890625,-0.0660357759654522,0.004124002861138433,-0.000463151399185881
1761341799059694800,1.24969482421875,-0.06843290023505687,-0.0038428843648172914,-0.0012389854767359792
1761341799069760800,1.2597607421875,-0.07501344766914844,0.002787895419169217,-0.0006806255081901327
1761341799079827700,1.26982763671875,-0.06648878042995929,0.003715586457028985,0.005569356530974619
1761341799089894000,1.279893798828125,-0.07292319739162921,-0.005992719342466444,-0.00008107044615317135
1761341799099959800,1.289959716796875,-0.07082534832954407,0.002867353863548487,0.001597621622099541
1761341799110026000,1.30002587890625,-0.07381576231718064,0.001105531822796911,0.0029024251769296824
1761341799120093000,1.310093017578125,-0.06588380027413368,0.0022585195165127515,0.0004900668055750429
1761341799130158800,1.320158935546875,-0.06139467216134071,0.004306172761321067,0.0044289771570824085
1761341799140225000,1.33022509765625,-0.07306582073271274,0.0026705526498146353,0.005694919139402919
1761341799150291000,1.340291015625,-0.073660279494524,0.00351964375982061,0.00026608532397076487
1761341799160356900,1.35035693359375,-0.0679746350735426,0.0019012853103689848,0.0032303465236211194
1761341799170424000,1.360424072265625,-0.06946984206736087,0.0015369637763127683,0.0010905534493736923
1761341799180489700,1.37048974609375,-0.06991700131297111,0.008918963786400854,0.0034835175670916213
1761341799190556000,1.380555908203125,-0.07156476851999759,0.005656674054823815,-0.0017048357230843975
1761341799200621800,1.390621826171875,-0.060789107483625406,0.0048146337401121855,0.006854153910814784
1761341799210688800,1.400688720703125,-0.06333177770376205,-0.000029006898775696754,-0.00021621373367961496
1761341799220755000,1.4107548828125,-0.07275543960928917,0.002684215848986059,0.00000350256476085633
1761341799230820900,1.42082080078125,-0.06736907039582729,0.0015119754655286669,-0.00009698953449260443
1761341799240887000,1.430886962890625,-0.06946458137035369,-0.00011778116077184677,0.0005935819789767265
1761341799250954000,1.4409541015625,-0.06617547669708729,-0.0007438771698623896,0.00270506227419246
1761341799261020000,1.45102001953125,-0.0711111795336008,-0.0005372669481672346,0.0025825044736033304
1761341799271086000,1.461086181640625,-0.06123451316356659,0.004269585344288498,0.005541034618788398
1761341799281151700,1.47115185546875,-0.06093523795604706,0.005300024370569735,-0.0019410556317539884
1761341799291218700,1.48121875,-0.06706921066641808,0.0036577918551862236,0.0026308051613159475
1761341799301284900,1.491284912109375,-0.06392799003124237,-0.0012221256734803317,0.0029311809139559043
1761341799311350800,1.501350830078125,-0.06737199300527572,0.000694923461601138,-0.010792872466077096
1761341799321417000,1.5114169921875,-0.060634209182858466,-0.004386087863426655,0.0028459868485340846
1761341799331483000,1.52148291015625,-0.06242986042797565,0.0026349698797799646,0.011191785822901874
1761341799341549800,1.5315498046875,-0.06781447607576847,-0.0013316687288694082,0.004940315079549327
1761341799351616000,1.541615966796875,-0.06556640488803386,0.0036033765205182133,0.00245464031023439
1761341799361682000,1.551681884765625,-0.06615794104039668,0.002874331593606621,0.0003983516678214073
1761341799371748000,1.561748046875,-0.06750701756179332,0.003293031929712742,0.003513994903746061
1761341799381815000,1.57181494140625,-0.07379062787592411,0.0006927315045148134,0.003937293783156201
1761341799391880700,1.581880615234375,-0.06480886451900005,-0.0009421579546295106,0.004418716057972051
1761341799401947000,1.59194677734375,-0.06586041939854621,0.00016998627204447983,0.003929325105831958
1761341799412012800,1.6020126953125,-0.07783259674310684,-0.0003802132229320705,-0.00014086520883720366
1761341799422079700,1.612079833984375,-0.06002747546136379,-0.010771879910398274,-0.001860240913927555
1761341799432146000,1.62214599609375,-0.07125204930901527,0.005306746372301131,0.0015325204966356977
1761341799442211800,1.6322119140625,-0.06870996361076831,0.007768862169515341,-0.0009842709301505236
1761341799452278000,1.642278076171875,-0.06167524266839027,-0.000943747123517096,-0.001121816237317398
1761341799462345000,1.652344970703125,-0.06736088708937167,-0.000977758990973234,0.007058124650851823
1761341799472411000,1.662410888671875,-0.0719914694994688,-0.001591306045744568,0.007774141132831573
1761341799482477000,1.67247705078125,-0.07423486451208591,0.0022287089001387355,-0.0007999912712723016
1761341799492543000,1.68254296875,-0.06660393124222755,0.0010873751115985215,0.0031645101792179046
1761341799502609000,1.69260888671875,-0.06645838529169559,-0.0007019559905864298,0.008061008949927053
1761341799512675800,1.70267578125,-0.06990063470005989,0.010100666117947549,0.003241548337647691
1761341799522741800,1.71274169921875,-0.07289514034092426,-0.001211129355430603,0.002963137821643613
1761341799532808000,1.722807861328125,-0.06855448078811169,-0.0022725663081742823,0.009063678619870915
1761341799542873900,1.732873779296875,-0.07019874086380004,0.005130713951960205,0.008622538123093545
1761341799552940800,1.74294091796875,-0.07274141108393668,0.0009408793129958211,0.00986725465429481
1761341799563007000,1.753007080078125,-0.06795125419795513,0.007016089307144284,0.005151432513003237
1761341799573073000,1.763072998046875,-0.06600421178340911,0.0036878581998869777,0.00716821569551248
1761341799583138800,1.773138916015625,-0.06795008515417575,0.0010060169710777698,0.0020667369711911306
1761341799593206000,1.7832060546875,-0.07961831111609935,0.002336206128913909,0.01154922095844522
1761341799603272000,1.79327197265625,-0.07393208217322826,-0.005853109942376613,0.0017484282696386799
1761341799613337900,1.803337890625,-0.07094283722937107,0.00478327048746869,0.004124865944241173
1761341799623403800,1.81340380859375,-0.07259001991450786,0.00045441097030416127,0.0017324361160630359
1761341799633469700,1.8234697265625,-0.0633165801346302,0.0013859744656831024,0.0047643648575991385
1761341799643537000,1.833536865234375,-0.06675941406488418,0.001625263114273548,0.010751280080364085
1761341799653602800,1.843602783203125,-0.07259352704584598,0.001843728170543909,0.005049369511171244
1761341799663669000,1.8536689453125,-0.07019932538568974,-0.00491599348904565,0.0036554903002455827
1761341799673735000,1.86373486328125,-0.07199380758702754,-0.003161898097023368,0.004553603617171756
1761341799683801900,1.8738017578125,-0.07243979778885841,0.0016413374662399291,0.0013867233843542636
1761341799693868000,1.883867919921875,-0.07782265987098216,0.001437412391975522,0.006937352381972596
1761341799703934000,1.893933837890625,-0.07183306406736374,-0.0015724552148021758,0.008724080535117536
1761341799714000000,1.903999755859375,-0.06599310586750506,0.004198474603146315,-0.0009616252735024318
1761341799724066000,1.914066162109375,-0.07197334932088852,0.005923398699611425,-0.004430639391206205
1761341799734132000,1.924132080078125,-0.060901335686445235,-0.0018177352127619086,0.004506303009879775
1761341799744198100,1.9341982421875,-0.061650108227133744,0.001212992518953979,0.003955304363882169
1761341799754264000,1.94426416015625,-0.07392039173543453,0.0012282448870129883,-0.0004620873866835609
1761341799764330200,1.954330322265625,-0.06778174284994602,0.0010810549686662851,-0.0018907958823954686
1761341799774397200,1.964397216796875,-0.06763035168051719,0.00458338226750493,0.009854815297829918
1761341799784463000,1.974463134765625,-0.0742091455489397,0.0028624950253404676,-0.002691020049108192
1761341799794529300,1.984529296875,-0.06956804174482822,-0.003228369195666164,0.005676593464845791
1761341799804595200,1.99459521484375,-0.06657295158207416,-0.004158124326448887,0.0058670425696065644
1761341799814662100,2.004662109375,-0.06761807672083378,-0.0033466618130914864,0.0013270199532154946
1761341799824728000,2.01472802734375,-0.06836509569585322,-0.0036922786466777324,-0.0003320403993828222
1761341799834794000,2.0247939453125,-0.06297463482916354,-0.003382445512525737,0.009590826032822951
1761341799844860200,2.034860107421875,-0.06656476827561855,0.0008838884287513792,0.008525333959469571
1761341799854927000,2.044927001953125,-0.06656476827561855,-0.006006620003655552,0.00018558113339822737
1761341799864993000,2.054992919921875,-0.06836041952073574,-0.0002947268965654075,-0.0007536359454737976
1761341799875059200,2.06505908203125,-0.0674643474638462,-0.005638608675170689,0.009218942246818915
1761341799885125000,2.075125,-0.0724012193441391,-0.004767159602884203,0.014323873303551227
1761341799895192000,2.085192138671875,-0.06641396162807942,-0.0018726072051562367,0.004561307433014736
1761341799905258200,2.09525830078125,-0.06536649840176105,-0.00367720894170925,0.007537642662948928
1761341799915324200,2.10532421875,-0.07479249839484692,-0.0029597265884280205,0.002295864985371008
1761341799925390000,2.11539013671875,-0.056983285459876055,-0.0006982479298487305,0.01086786479789298
1761341799935456000,2.1254560546875,-0.06984627416431903,-0.004815108664147556,0.005286799562815576
1761341799945523000,2.13552294921875,-0.06296177534759044,-0.002805029217060655,0.0028131394582800564
1761341799955589000,2.145589111328125,-0.07238952890634537,-0.0011736468892544507,0.008695653591654263
1761341799965655000,2.155655029296875,-0.0652075084477663,-0.00015824103532359002,0.008662861000327393
1761341799975721200,2.16572119140625,-0.07403846515715122,0.001431019183807075,0.005221908499905839
1761341799985788200,2.1757880859375,-0.07059563122689723,-0.007871774554718285,0.0036504122663289307
1761341799995854000,2.18585400390625,-0.07224106034636497,-0.004872154347319155,0.009565193834644742
1761341800005920300,2.195920166015625,-0.06640694736540317,-0.002266118301078677,-0.0006462665808619931
1761341800015986200,2.205986083984375,-0.06446399660408496,0.003402008729521185,0.001106308140931651
1761341800026053000,2.21605322265625,-0.07434300106167793,-0.000862297651451081,0.004992762219416909
1761341800036119300,2.226119384765625,-0.06596212620735169,-0.0019620025216601786,0.00014264617396984248
1761341800046185000,2.23618505859375,-0.07314063953459263,-0.003941120574902743,0.006438746076915413
1761341800056251100,2.246251220703125,-0.06655541592538357,-0.010422098358348012,0.0021475653887493536
1761341800066317000,2.256317138671875,-0.06445698234140873,0.004570833313185721,-0.00033245139133650806
1761341800076384000,2.266384033203125,-0.07553191858530044,-0.005127846141438931,-0.00018511990909464657
1761341800086450200,2.2764501953125,-0.06655307783782481,-0.003637552784755826,0.0017823214060859753
1761341800096516000,2.28651611328125,-0.06356207932829856,-0.00011487681763246655,0.006749227665038779
1761341800106582300,2.296582275390625,-0.06401333022713661,0.0005322254468686879,0.0027226024974603205
1761341800116649200,2.306649169921875,-0.06820669026374816,-0.004238532618898898,0.006541726960777304
1761341800126715100,2.316715087890625,-0.07643909655809401,-0.002327767094131559,0.0037461962244240564
1761341800136781300,2.32678125,-0.07344283735156058,0.00472805143520236,0.0027355167779605834
1761341800146847000,2.336846923828125,-0.07269406481087208,-0.002316277585737407,-0.0002050941180437803
1761341800156914200,2.3469140625,-0.06880290259122848,-0.0037090836510062218,-0.0027843243557494133
1761341800166980000,2.35697998046875,-0.0713461573332548,-0.0017720511738210916,0.004874254972860217
1761341800177046000,2.3670458984375,-0.06505787084400654,-0.006560710222460329,0.0005920887082116678
1761341800187112200,2.3771123046875,-0.06819909147918224,0.0002583221426233649,-0.0008099190102424472
1761341800197179100,2.38717919921875,-0.06849602859914303,-0.0003756283793598413,0.011200192891643382
1761341800207245000,2.3972451171875,-0.06939502326548098,0.0008783902697265147,0.0015218210061080752
1761341800217311200,2.407311279296875,-0.06385960097014903,-0.002792151469178498,-0.001847997920284979
1761341800227377200,2.417377197265625,-0.06849836668670177,0.00242039554733783,0.004954877894441597
1761341800237443300,2.427443359375,-0.06850070477426051,0.002792261067032814,0.00920598230054602
1761341800247510300,2.43751025390625,-0.0686538495093584,0.005180617508292198,0.003925868206843734
1761341800257576200,2.447576171875,-0.06670797613859177,0.0014059030088596045,-0.0038466974568320436
1761341800267642000,2.45764208984375,-0.07194704583585262,0.003577748888917267,0.004813980719563551
1761341800277708000,2.4677080078125,-0.06536065318286419,-0.0019064729421399533,0.005434450705465861
1761341800287775000,2.47777490234375,-0.07359130591154098,-0.0018591266690753398,0.003069685202348046
1761341800297841200,2.487841064453125,-0.06685702922046184,-0.005174936686176806,0.013838889098470098
1761341800307907000,2.497906982421875,-0.06880465615689754,0.0038703020947054028,-0.0022731964958366004
1761341800317973200,2.50797314453125,-0.07239537412524223,0.003070785747468471,0.009047549468977376
1761341800328040200,2.518040283203125,-0.07314297762215137,0.0015744097098708153,0.008775080069992692
1761341800338106000,2.528106201171875,-0.06416705948412418,-0.0002819404802285135,0.009321416240604594
1761341800348172300,2.53817236328125,-0.063565001937747,0.004068838607799261,0.00161201090705581
1761341800358238200,2.54823828125,-0.07014964102506638,0.0033489633680321273,0.0033052018581191077
1761341800368304000,2.55830419921875,-0.06701075847744942,-0.001768361379392445,0.0029896468026563523
1761341800378371000,2.56837109375,-0.06970481986701488,-0.0038459165721200406,-0.008650503842253238
1761341800388437000,2.57843701171875,-0.07523848859667777,0.0006852971167303621,-0.001986543307872489
1761341800398503200,2.588503173828125,-0.05952244854867458,-0.0012531053336337207,0.003607070881524123
1761341800408569000,2.598569091796875,-0.06251578514575958,-0.0012281170228496193,0.010218036286765708
1761341800418636000,2.608635986328125,-0.0701443803280592,-0.0009040909665636717,0.006017689386941492
1761341800428702200,2.6187021484375,-0.06609831980764866,-0.00605385667886585,-0.005339338034228421
1761341800438768000,2.62876806640625,-0.07058510983288288,-0.0027310141327790915,0.006860921578318812
1761341800448834300,2.638834228515625,-0.07327507956922054,-0.001703424650710076,0.011911323135951533
1761341800458901200,2.6489013671875,-0.06279752469658852,0.00644163215374574,0.00647220995509997
1761341800468967200,2.65896728515625,-0.061601592910289764,0.004381174226291478,0.0076719411336816845
1761341800479033300,2.669033447265625,-0.07207739421725273,-0.0049452378498390315,0.004977318055112846
1761341800489099000,2.67909912109375,-0.06519347992241382,-0.005131444604322314,0.006410036005661823
1761341800499165200,2.689165283203125,-0.07192717209160328,-0.004700725036859512,0.007432488088309764
1761341800509232000,2.699232177734375,-0.07461714182794094,-0.006779321409203112,0.004357939481176435
1761341800519298000,2.709298095703125,-0.07102759290337562,-0.0014797354300506412,0.0031064872485119847
1761341800529364200,2.7193642578125,-0.07087795529961585,-0.0008955240676179528,-0.00037027635080739854
1761341800539430100,2.72943017578125,-0.05471884765923023,0.0008134900736622511,-0.00010051493213977664
1761341800549497000,2.7394970703125,-0.07192249591648578,-0.00045022798553109167,0.008197303014923819
1761341800559563300,2.749563232421875,-0.06204524502456188,0.004020579019282013,0.003922630503564142
1761341800569629200,2.759629150390625,-0.07671148375868797,-0.003102295130584389,0.008842035225825384
1761341800579695000,2.769695068359375,-0.07132394550144672,-0.0035475546800531445,-0.0015530837940517812
1761341800589762300,2.77976220703125,-0.0705751729607582,-0.007748075109813362,0.004031589037063531
1761341800599828000,2.789827880859375,-0.07461947991549968,-0.005655121418554335,0.005926864731754176
1761341800609894100,2.79989404296875,-0.07027998940646649,-0.0002624685947783291,0.0014397093803388997
1761341800619960000,2.8099599609375,-0.06923018809258938,-0.0017551548379473388,0.002610547824576497
1761341800630026000,2.82002587890625,-0.06399813265800476,-0.0008046674463897943,0.0031111360241658985
1761341800640093200,2.83009326171875,-0.0737251614242792,-0.0029236871606670317,0.010432099162554368
1761341800650159000,2.8401591796875,-0.05845803418755531,-0.0013057123037055133,-0.0011167610362870619
1761341800660225300,2.850225341796875,-0.07207271804213523,-0.0036274332495406267,0.0016331495932070538
1761341800670291200,2.860291259765625,-0.06743336780369281,-0.009205251648183912,0.0014121911857509985
1761341800680358100,2.870358154296875,-0.06877952171564101,-0.004587510453350842,0.008033385724062099
1761341800690424300,2.88042431640625,-0.0633908144146204,0.0027881876801140607,0.0034601321249268947
1761341800700490000,2.890489990234375,-0.0633908144146204,-0.0031836532711051403,0.0004621193527244031
1761341800710556000,2.900555908203125,-0.07177110474705696,-0.003307133520301431,-0.0006511162859154865
1761341800720623000,2.910623046875,-0.0699742844581604,-0.0018487514055334031,0.0014342888531275093
1761341800730689500,2.920689453125,-0.06802958013117313,-0.0010562858535908162,0.0014189816861413418
1761341800740755500,2.93075537109375,-0.06428337934017181,-0.0012696180770173668,0.0047612047861330204
1761341800750821400,2.9408212890625,-0.06861877819597721,-0.006774133777432143,-0.0011897303743753581
1761341800760887300,2.95088720703125,-0.06921732861101627,-0.0016702712997794151,-0.00018186393950600177
1761341800770954500,2.96095458984375,-0.06951952642798423,-0.006455825075879692,0.009758620347781107
1761341800781020400,2.9710205078125,-0.07400573193132877,-0.0016336656164377926,0.0036504213994834568
1761341800791086300,2.98108642578125,-0.07176116787493228,-0.00028345658387988803,0.0018919420932885257
1761341800801152500,2.991152587890625,-0.06697568716406822,-0.0023953159050084647,0.0035225024371873586
1761341800811219500,3.001219482421875,-0.05964519814550876,-0.0009851385798305273,0.00983092296558898
1761341800821285400,3.011285400390625,-0.0639876112639904,-0.0017788827734068035,0.0033024664783384648
1761341800831351600,3.0213515625,-0.06907470526993274,0.0031347908943891523,-0.001830092370836064
1761341800841417500,3.03141748046875,-0.06757657566666603,-0.0007961553463712334,-0.0018291744888061657
1761341800851484400,3.041484375,-0.06667816552221775,-0.0044493806242942805,0.005118959582084789
1761341800861550300,3.05155029296875,-0.07401099262833595,-0.0032649018137715755,0.007137423265026882
1761341800871616300,3.0616162109375,-0.07490764920711517,-0.0024858072000555694,-0.0002625142605509609
1761341800881682400,3.071682373046875,-0.07221300329566001,-0.0037290852594189343,0.004660575689561665
1761341800891748400,3.081748291015625,-0.061140989661216734,-0.009076547234598546,0.002551488280831836
1761341800901815300,3.091815185546875,-0.07505611776709556,-0.000583060584962368,0.009740481902891769
1761341800911881500,3.101881591796875,-0.06712532476782798,-0.0001508249138481915,0.002858549502585083
1761341800921947400,3.111947509765625,-0.07356207981705665,-0.0019799217708408832,-0.0030914358098525553
1761341800932013600,3.122013671875,-0.06758008279800415,-0.009201360924355684,-0.0016005305318161844
1761341800942080500,3.13208056640625,-0.07401800689101219,0.0013348653329536319,0.00679711736079771
1761341800952146400,3.142146484375,-0.06698620855808257,0.0008758695190772414,0.010233727046241984
1761341800962212600,3.152212646484375,-0.07042962701022625,-0.0002743234293535352,0.0007817888943012803
1761341800972278300,3.1622783203125,-0.07252396894097328,-0.0014941658142022787,0.004587492187041789
1761341800982345200,3.17234521484375,-0.07072948673963546,-0.0018653006815351546,-0.003150837846891954
1761341800992411400,3.182411376953125,-0.06668751787245274,-0.0056921106943860645,0.004051723076216877
1761341801002477300,3.192477294921875,-0.0720785632610321,-0.006849701497983187,0.007195405096537433
1761341801012543500,3.20254345703125,-0.07298398766815661,-0.003249649445712566,0.0032640980961732564
1761341801022609400,3.212609375,-0.07223463060557841,0.0002921878796070814,0.003245174199994653
1761341801032676400,3.22267626953125,-0.06759820297658443,-0.0027685879305005072,0.001985766989737749
1761341801042742500,3.232742431640625,-0.05861760866343975,0.0025276370477862655,0.004221864611888304
1761341801052808400,3.242808349609375,-0.06640168666839599,-0.004870747841522098,0.002480651534325443
1761341801062874600,3.25287451171875,-0.0731330407500267,0.0005814531497657299,-0.00007893785457126796
1761341801072941600,3.262941650390625,-0.0687935502409935,-0.00377131696594879,0.0023137522685108703
1761341801083007200,3.27300732421875,-0.07493336817026137,-0.0037279527482576664,0.00043951022869441654
1761341801093073400,3.283073486328125,-0.06595569646656513,-0.00519298379952088,0.0024608188892714677
1761341801103139300,3.293139404296875,-0.07044540910124779,-0.004866710987221449,0.005135705220908858
1761341801113206300,3.303206298828125,-0.06984627416431903,-0.005326218257751316,-0.004820889950962737
1761341801123272400,3.3132724609375,-0.06895078662931918,-0.004041347812674939,0.0009768730749841778
1761341801133338400,3.32333837890625,-0.07389408825039863,-0.0024360132415778934,0.0005955501737771556
1761341801143404500,3.333404541015625,-0.06207447111904621,0.006006254677474498,-0.000790684586809948
1761341801153470500,3.343470458984375,-0.07090484330654144,-0.0005147811217233538,-0.002780109404935501
1761341801163537400,3.353537353515625,-0.07658873416185379,0.002799512791726738,-0.0031436135216616093
1761341801173603600,3.363603515625,-0.0682096128731966,0.004357811617013067,0.0013291799442609771
1761341801183669500,3.37366943359375,-0.07045417692959308,-0.0013185717852786183,0.0016599736680509521
1761341801193735400,3.3837353515625,-0.06731470986008643,-0.001016940223891288,-0.002446872562309727
1761341801203802400,3.39380224609375,-0.0665671063631773,-0.0008225684292614459,-0.0005560629801824689
1761341801213868300,3.403868408203125,-0.05504384182989597,-0.014040654181689023,0.001697236938518472
1761341801223934500,3.4139345703125,-0.0656651890873909,-0.004015391387511044,0.009077378351660444
1761341801234000400,3.42400048828125,-0.07493804434537887,0.000862297651451081,0.00848086463008076
1761341801244067300,3.4340673828125,-0.06925181540250777,-0.0031685105009004472,-0.006131890351139009
1761341801254133500,3.444133544921875,-0.06251870775520801,0.0004633249291218817,-0.0017392403161851687
1761341801264199400,3.454199462890625,-0.07509177360236645,0.004052636391669511,0.006315987346926704
1761341801274265600,3.464265625,-0.07090367426276206,0.0027891009955666956,-0.005390949490456842
1761341801284331500,3.47433154296875,-0.07240297290980816,0.0011289492310024797,0.0024402829913189633
1761341801294398500,3.4843984375,-0.06207739372849464,-0.003981763112545013,-0.004858335884520784
1761341801304464400,3.49446435546875,-0.06462474012374878,-0.004282791885733604,0.0018778313695453105
1761341801314530300,3.5045302734375,-0.07046060667037964,0.0046757184597663575,0.0019560888041043655
1761341801324596500,3.514596435546875,-0.075098203343153,-0.0016536124259233474,0.006308068901952356
1761341801334663400,3.524663330078125,-0.06791442931890487,-0.002888579314667731,0.006609873993275687
1761341801344729300,3.534729248046875,-0.072104866746068,0.0005467288962565362,0.013400095822406
1761341801354795500,3.54479541015625,-0.0665711980164051,-0.0014265804707072674,0.009221645660558714
1761341801364861400,3.554861328125,-0.0703098000228405,-0.0027162184224463998,0.005483801705949008
1761341801374927600,3.564927734375,-0.06836275760829448,-0.00607073474843055,0.0049832637387095015
1761341801384994600,3.57499462890625,-0.06641571519374848,-0.003846574159245938,0.008277487545087933
1761341801395060500,3.585060546875,-0.06612111616134643,-0.006369334102515131,0.011748099964833818
1761341801405126400,3.59512646484375,-0.07091244209110736,0.0010653459428809583,0.0042544288743520155
1761341801415192300,3.6051923828125,-0.054452890199422836,-0.0037148010057397184,0.0014625742326956242
1761341801425259300,3.61525927734375,-0.06881751563847065,0.0013408384160138666,0.0036689708363264796
1761341801435325400,3.625325439453125,-0.07869768913984299,0.0036110666366294024,0.0008501459893537685
1761341801445391400,3.635391357421875,-0.06687456487715245,0.0037920492267236113,0.0048091264479327945
1761341801455457500,3.64545751953125,-0.06492927602827549,-0.006801569773629308,0.001167545942030847
1761341801465524500,3.6555244140625,-0.059094578525424,0.003707951139844954,0.006521739052096381
1761341801475590400,3.66559033203125,-0.0749585026115179,0.003513944671396166,-0.0025214767350582403
1761341801485656600,3.675656494140625,-0.07750117283165454,0.0031995266936719418,0.004911700906418264
1761341801495722500,3.685722412109375,-0.07645838578045368,-0.0019700214313343165,0.005863430406991392
1761341801505788700,3.69578857421875,-0.07720832736492156,-0.005485847532562912,0.0001412259684409946
1761341801515855600,3.705855712890625,-0.07347264796793461,-0.0018572817718610166,-0.001618116420856677
1761341801525921300,3.71592138671875,-0.06688859340250491,0.0035389877811074257,0.003919584596529603
1761341801535987500,3.725987548828125,-0.0673380907356739,0.0005554784582927823,-0.00539527403912507
1761341801546053400,3.736053466796875,-0.0685404522627592,0.0030131920750252903,0.004883493158663623
1761341801556120300,3.746120361328125,-0.060163084539771074,0.00045550694884732363,0.0075844866125145925
1761341801566186500,3.7561865234375,-0.06300502996742725,-0.0004882949735969305,0.007489730134303681
1761341801576252400,3.76625244140625,-0.05507365244626999,0.006830247878842056,0.0009278417349094524
1761341801586318600,3.776318603515625,-0.06778992615640163,0.0016125862957909703,0.01077430476292502
1761341801596385500,3.786385498046875,-0.07242986091673374,-0.0025285138306207953,0.0037078095759497955
1761341801606451500,3.796451416015625,-0.06180851365923881,-0.000003927256446331739,0.006192831324716098
1761341801616517600,3.806517578125,-0.06405132414996624,0.004102558214310556,0.0009225216723978518
1761341801626583300,3.816583251953125,-0.06270400119423866,0.004372808256745338,-0.0069285662873182444
1761341801636649500,3.8266494140625,-0.06360358038246632,0.0026605609787628054,0.0024174135723849756
1761341801646716400,3.83671630859375,-0.0609071809053421,0.00018242562850937245,0.009001947628427296
1761341801656782300,3.8467822265625,-0.06569324613809585,-0.0016527539093978702,-0.0006023772067856043
1761341801666848500,3.8568486328125,-0.06868249108195304,0.0034488618122413754,0.006161326508177444
1761341801676914400,3.86691455078125,-0.07362053200602531,0.0004693710774183273,0.00795849842352327
1761341801686981400,3.8769814453125,-0.07033201185464859,-0.0077782875849865376,-0.0019106970261083915
1761341801697047600,3.887047607421875,-0.06778817259073257,0.005820340183936059,0.004567508844938129
1761341801707113500,3.897113525390625,-0.06329845995604992,0.00412330874139443,0.005360755281592719
1761341801717179600,3.9071796875,-0.0634469285160303,-0.0009946370605379343,0.008424987990688531
1761341801727245800,3.917245849609375,-0.06808627875447273,0.004713931578304618,0.006896244053449481
1761341801737312800,3.927312744140625,-0.07437398072183132,-0.002819258671812713,0.002515037861117162
1761341801747378700,3.937378662109375,-0.058218964734673494,-0.002126746363006532,0.0016995978589635342
1761341801757444600,3.947444580078125,-0.062114218607544895,0.007318652450293302,0.0030957557919435203
1761341801767510500,3.957510498046875,-0.0695996059268713,0.010324428403843193,0.006367014281265437
1761341801777577700,3.96757763671875,-0.06481646330356597,-0.0037190022568218406,0.002324698354210704
1761341801787643600,3.9776435546875,-0.07214636780023574,-0.004730005930271,-0.00023869499354623258
1761341801797709800,3.987709716796875,-0.06047521922886371,0.004864519030135125,0.0025655031064525245
1761341801807775700,3.997775634765625,-0.06331482656896115,0.002638842337299138,0.0007035131934331729
1761341801817842700,4.0078427734375,-0.07034077968299389,-0.0039015922821126875,0.004714981891075149
1761341801827908900,4.017908935546875,-0.06719722096025943,-0.0006516688417643309,0.005909931863262318
1761341801837974800,4.027974853515625,-0.06495382594764232,-0.004817665947414934,-0.0010414170780219138
1761341801848040700,4.038040771484375,-0.07214052258133888,0.0014643003989011048,0.008681122742802836
1761341801858106600,4.048106689453125,-0.06675298432409763,-0.008033175661507994,-0.004575061963731423
1761341801868172500,4.058172607421875,-0.0657090282291174,0.006655676763225347,-0.00016422325153835117
1761341801878239700,4.06823974609375,-0.06750701756179332,-0.00038240518001839515,0.006234428277006372
1761341801888305700,4.0783056640625,-0.06960194401443004,-0.005482504798006266,0.004258410929725506
1761341801898371600,4.08837158203125,-0.07678747160434722,0.000023125147260725498,0.0010850918229669331
1761341801908437800,4.098437744140625,-0.06571428892612458,-0.0022143881138414145,0.0036808941695606334
1761341801918504700,4.108504638671875,-0.05673603270053863,-0.009682568570040165,0.007642596308188513
1761341801928570600,4.118570556640625,-0.07304828507602214,-0.006637958443444222,0.005036825123429298
1761341801938636800,4.12863671875,-0.06033025780022144,-0.0009078172936104237,0.003353374681668356
1761341801948702700,4.13870263671875,-0.07185059972405433,-0.0008322130404412746,0.008266609958047047
1761341801958768600,4.1487685546875,-0.0723012661010027,-0.004173431493435055,0.010452927321451715
1761341801968835600,4.158835693359375,-0.05853285298943519,-0.0021131744953803715,0.0017743344624526797
1761341801978901500,4.168901611328125,-0.06945873615145683,-0.0020124905998818573,-0.0010759404021315276
1761341801988967700,4.1789677734375,-0.0681090751081705,0.00015424071364104747,0.003907524265977554
1761341801999033600,4.18903369140625,-0.07185176876783371,-0.00023589111510664224,0.0019182729777880011
1761341802009100800,4.199100830078125,-0.06586918722689152,0.000009809007961302996,-0.0010446867473423481
1761341802019166700,4.209166748046875,-0.07081015076041221,0.005868800701852888,0.003655412668432109
1761341802029232600,4.219232666015625,-0.07694763060212134,-0.0025733393530361355,0.001203311375156045
1761341802039298800,4.229298828125,-0.0776993257522583,0.0030873715560883284,0.005787684589927084
1761341802049365800,4.23936572265625,-0.07081658050119877,0.0016204042760655283,0.0023416723218979314
1761341802059431700,4.249431640625,-0.0649807139545679,0.0050625258202664555,-0.0026425184319959953
1761341802069497600,4.25949755859375,-0.06782499746978282,0.0061452064904384315,0.0006602585735963658
1761341802079563500,4.2695634765625,-0.06707739397287368,-0.0003971460914239287,0.0014365721417590974
1761341802089629700,4.279629638671875,-0.057502340897917746,0.0005644289497286081,0.003840162684768438
1761341802099696600,4.289696533203125,-0.0648328299164772,0.004550904770009219,0.003915287447324954
1761341802109762600,4.299762451171875,-0.06573182458281517,0.002195025826245546,0.0026177995492704213
1761341802119828700,4.309828857421875,-0.0663315440416336,0.0026815855004824695,-0.00008352726472076027
1761341802129894700,4.319894775390625,-0.06678162589669227,0.004665818120259791,-0.0019055504935327917
1761341802139961600,4.329961669921875,-0.0729150140851736,0.004876867055054753,0.007921847074409015
1761341802150027800,4.34002783203125,-0.06094517482817172,0.0001835033407434821,0.0071333042123354964
1761341802160093700,4.35009375,-0.057950084665417664,0.0012679558428935706,-0.002657551604346372
1761341802170159900,4.360159912109375,-0.06573416267037391,0.006320837051980197,0.004817149924184195
1761341802180225500,4.3702255859375,-0.056010056513547894,0.00369962170291692,0.002736955249798484
1761341802190292500,4.38029248046875,-0.06559153932929039,0.001490293356683105,0.0006411702806362882
1761341802200358700,4.390358642578125,-0.07112228544950484,-0.00020933190174400804,-0.0002500292383134365
1761341802210425600,4.400425537109375,-0.06812777980864047,-0.0006063135963864624,0.00236227215193212
1761341802220491500,4.410491455078125,-0.06723229227364062,-0.007534432359132915,0.003917602701997384
1761341802230557700,4.4205576171875,-0.06933131037950516,-0.0049518685200251635,-0.0020207926373463124
1761341802240623600,4.43062353515625,-0.07052548860013484,0.0033153168267570435,0.003950322228088043
1761341802250690800,4.44069091796875,-0.06753449009060859,0.0030816359350457788,0.007536779579846188
1761341802260756700,4.4507568359375,-0.07516893049180508,0.0026053967254236338,0.0072317870175931595
1761341802270822700,4.46082275390625,-0.06379881069362163,-0.0022151370325125754,0.0047737811399158085
1761341802280888800,4.470888916015625,-0.07068330951035022,0.002642751327436417,0.005710066476184874
1761341802290955800,4.480955810546875,-0.07068681664168834,0.0026294534544460475,0.003432833126047626
1761341802301021700,4.491021728515625,-0.07053717903792858,0.003435783134959638,0.007096693962416611
1761341802311087600,4.501087646484375,-0.06425064611434936,0.010241243632417171,0.005454219418438151
1761341802321153500,4.511153564453125,-0.06380524043440819,0.0029250206012278795,0.0018454086709767579
1761341802331219700,4.5212197265625,-0.061114101654291146,0.0018441117630340158,0.00306704572068993
1761341802341286700,4.53128662109375,-0.0711374830186367,0.009346742478106171,0.0017803669110173358
1761341802351352600,4.5413525390625,-0.06634498804509639,0.004838580871280283,-0.003600006386497989
1761341802361418800,4.551418701171875,-0.06679857703149318,0.00006795066967606544,0.0014717393532628193
1761341802371484700,4.561484619140625,-0.0759258863389492,-0.0011524397044442593,0.0018074649804970249
1761341802381551600,4.571551513671875,-0.07637363010644913,0.00030482816547155377,0.009509531824383884
1761341802391617800,4.58161767578125,-0.0633516514480114,-0.00011926073180511593,0.005058082540589384
1761341802401683700,4.59168359375,-0.06425064611434936,0.0003415982455946505,0.012420624364959075
1761341802411749600,4.60174951171875,-0.06021335342228412,0.001986643772572279,0.009028241980308667
1761341802421816600,4.611816650390625,-0.06844400615096091,0.008451967329159378,-0.00033335100705735385
1761341802431882500,4.621882568359375,-0.06425298420190811,0.009179879744909704,0.006687766101653688
1761341802441948700,4.63194873046875,-0.06634791065454483,0.010967786074988543,0.00006935717547312379
1761341802452014600,4.6420146484375,-0.07891396223902702,0.008012753927987068,0.0012138556020567194
1761341802462080800,4.652080810546875,-0.06694763011336326,0.0094043178842403,0.00543512655890081
1761341802472147700,4.662147705078125,-0.07248655954003333,0.005631375216785818,0.008768682295246981
1761341802482213600,4.672213623046875,-0.06709609867334365,0.007870094054285437,0.004428050141897983
1761341802492279800,4.68227978515625,-0.06634264995753765,0.002866751075349748,0.004140593236335553
1761341802502345700,4.692345703125,-0.057064534002542494,0.0035774018290452656,0.0021119506526738403
1761341802512412700,4.70241259765625,-0.06305062267482281,0.004320785808563233,0.011154189192294143
1761341802522478800,4.712478759765625,-0.07023381217718123,-0.0001517930282279849,0.0012337795786559582
1761341802532544500,4.72254443359375,-0.07262918288111686,-0.0009677490536123514,0.006430836765095592
1761341802542610700,4.732610595703125,-0.07008417457342148,0.0034676030453294512,0.005433710919949226
1761341802552677600,4.742677734375,-0.07217910102605819,0.0037792262777686116,0.0061114868839271365
1761341802562743600,4.75274365234375,-0.07158171965479851,-0.004248743485659361,0.005064156088349409
1761341802572809700,4.762809814453125,-0.06873509805202484,0.0017498393420130012,0.006697314814710989
1761341802582875600,4.772875732421875,-0.07187456512153148,0.003709978700149804,0.008278565257322042
1761341802592941800,4.78294189453125,-0.07292261286973953,-0.005107351342681795,0.0029215774019714443
1761341802603008800,4.7930087890625,-0.07246843936145306,0.0020166005194187163,0.0017350436316803098
1761341802613074700,4.80307470703125,-0.0646890375316143,0.002397927987203002,0.0076334677202394225
1761341802623140900,4.813140869140625,-0.0712725075751543,0.002510539782512933,0.012932880169455893
1761341802633206500,4.82320654296875,-0.06139817929267883,-0.000595664338208735,0.000842834899155423
1761341802643273500,4.8332734375,-0.059300330230593674,-0.00038359249010682105,0.0007753226208966225
1761341802653339600,4.843339599609375,-0.07486497910916805,-0.004175404254812747,-0.00041225689558777956
1761341802663405600,4.853405517578125,-0.06499123534858227,0.0014498152158223092,-0.0022043964427895845
1761341802673471700,4.8634716796875,-0.059604866135120387,0.0039990613072179255,0.0030957877579843624
1761341802683537700,4.87353759765625,-0.06693477063179015,0.008684862769581378,0.008618711331347003
1761341802693604600,4.8836044921875,-0.0744143127322197,0.0031708668547682462,0.001809277911670506
1761341802703670800,4.8936708984375,-0.06842880858182906,0.00899347206102684,0.006466940124938264
1761341802713736700,4.90373681640625,-0.07127133853137493,0.010915800159424543,0.007700043850159272
1761341802723803000,4.913802978515625,-0.06962357132434845,0.004850855830963701,0.0019826206180034206
1761341802733869800,4.923869873046875,-0.06797755768299102,-0.0017600136761553584,0.011139544179011135
1761341802743935500,4.933935546875,-0.07366554019153118,-0.003488773697521537,0.00665256235753186
1761341802754001700,4.944001708984375,-0.0724661012738943,0.0031116109482012687,0.002639047833275981
1761341802764067600,4.954067626953125,-0.0697691172748804,0.004615256976801901,0.006542667675693519
1761341802774134500,4.964134521484375,-0.06841653362214564,-0.0011566044229082762,-0.0052276441209483885
1761341802784200700,4.97420068359375,-0.06796645176708697,-0.004186692833807319,-0.0074153588569955894
1761341802794266600,4.9842666015625,-0.0658697717487812,-0.0008033522721379994,0.007113476133858785
1761341802804332800,4.994332763671875,-0.07230886488556862,0.003985964363627135,0.001678445473080501
1761341802814398700,5.004398681640625,-0.06662029785513877,0.0012077500882558523,0.0019116377410246057
1761341802824465700,5.014465576171875,-0.06288169584870339,-0.004099014550354331,0.006955020469403825
1761341802834531800,5.02453173828125,-0.06587269435822964,-0.001750478662829846,0.00655379642448388
1761341802844597800,5.03459765625,-0.06557166558504104,0.000564812542218715,0.0058431319710565725
1761341802854663700,5.04466357421875,-0.0744049603819847,-0.0007164777062833308,-0.0034197042164159936
1761341802864730600,5.054730712890625,-0.06662497403025627,0.000660473202727735,-0.00042402039861772205
1761341802874796500,5.064796630859375,-0.0712684159219265,-0.000447414973936975,0.0034423727059504014
1761341802884862700,5.07486279296875,-0.06842647049427032,-0.00830649444386363,0.00022237404640763997
1761341802894928600,5.0849287109375,-0.07351122641265392,0.008057268923148512,0.0037634350535925474
1761341802904995600,5.09499560546875,-0.0646849458783865,-0.003077818276453763,0.004641414331365376
1761341802915061800,5.105061767578125,-0.06183890879750251,0.002752020388189703,0.006164180618966929
1761341802925127700,5.115127685546875,-0.06707564040720462,0.001379800453223288,0.013050190972769632
1761341802935193900,5.12519384765625,-0.07978957602977753,0.00028210487700998783,0.0001376046726712957
1761341802945259800,5.135259765625,-0.07275602413117885,-0.004646017441246659,0.005510580115020275
1761341802955326700,5.14532666015625,-0.058688335812091826,0.0015619703534059226,0.009869738872325978
1761341802965392600,5.155392578125,-0.0730547148168087,0.005516060007736087,0.009459349706838838
1761341802975458600,5.16545849609375,-0.07425532277822494,0.001357205028925091,0.0011674317775992676
1761341802985524700,5.175524658203125,-0.06991583226919174,0.00329213688056916,0.006714060453535058
1761341802995591700,5.185591796875,-0.06303367154002189,0.0057462337681092315,0.006171957500046119
1761341803005657600,5.19565771484375,-0.0769499686896801,0.0018656660077162085,-0.003429627388808876
1761341803015723800,5.205723876953125,-0.07036416055858134,0.007018737921956926,0.0054900579167995595
1761341803025789700,5.215789794921875,-0.06676876641511917,-0.000019088292960077524,-0.004890027930727228
1761341803035856000,5.22585595703125,-0.0637783524274826,0.008001775876246392,0.0011911916790995746
1761341803045922800,5.2359228515625,-0.06557283462882041,0.0004737184589728713,-0.0016214226227952166
1761341803055988700,5.24598876953125,-0.06257832898795604,0.0006485818355344235,-0.0023496044666040687
1761341803066054700,5.2560546875,-0.07080956623852253,-0.0028928536309860645,0.004959645401104353
1761341803076120600,5.26612060546875,-0.06482464661002159,-0.003156052878126502,-0.0035937730085337533
1761341803086187500,5.2761875,-0.06317512583732604,0.0007033807626925408,0.0006894938012352213
1761341803096253700,5.286253662109375,-0.0730506231635809,0.0033892040468752383,0.005247138839284889
1761341803106319600,5.296319580078125,-0.06871230169832707,0.0031972982039675116,0.007077454972406849
1761341803116385800,5.3063857421875,-0.07394494165480137,0.01555620984379202,0.000815065542818047
1761341803126452700,5.31645263671875,-0.0696077892333269,0.002366071544215083,-0.004001289796922355
1761341803136518700,5.3265185546875,-0.06975859588086605,0.0018411343546584247,-0.0010097752641653641
1761341803146584800,5.336584716796875,-0.06871347074210643,0.004206347382348031,0.0032813369253417474
1761341803156650800,5.346650634765625,-0.05943301669955253,0.0008062018163502216,0.00277491720658727
1761341803166717000,5.356717041015625,-0.06721241852939129,-0.0037173582890070974,0.010095537851681002
1761341803176784000,5.366783935546875,-0.0746925451517105,-0.000514708056487143,0.0041277428879169745
1761341803186849500,5.376849609375,-0.06810790606439113,0.0005058123639784753,0.0024191397385904564
1761341803196915700,5.386915771484375,-0.07215104397535324,-0.005832998736109585,0.0038596619696822016
1761341803206981600,5.396981689453125,-0.06571370440423488,-0.005652381472196429,0.009833854708191939
1761341803217048600,5.407048583984375,-0.06212181739211082,-0.00031829043524339795,0.003907049341942183
1761341803227114800,5.41711474609375,-0.06841068840324878,-0.004348532332014292,-0.0012665630368283018
1761341803237180700,5.4271806640625,-0.07649521065950393,0.00507383266557008,-0.000050369347212836145
1761341803247246800,5.437246826171875,-0.06228139186799526,-0.00007850859630852937,0.00601581709026359
1761341803257312800,5.447312744140625,-0.06422668071687221,0.0003936572263948619,0.0011724641457432881
1761341803267379700,5.457379638671875,-0.06198387022614479,-0.00022602730821818113,0.0022453495076857504
1761341803277446000,5.46744580078125,-0.07799743191599845,0.004390782304853201,0.005660135520389303
1761341803287511600,5.477511474609375,-0.07829846068918704,0.0022379151199012994,0.005321715612569823
1761341803297577700,5.48757763671875,-0.06782265938222408,0.0004047996749170124,-0.0030423999032005667
1761341803307644700,5.497644775390625,-0.0630377631932497,0.0017655849004164336,0.006595005217706784
1761341803317710600,5.507710693359375,-0.0711199473619461,-0.0016003296024166046,0.012328630665992386
1761341803327776800,5.51777685546875,-0.0690244363874197,-0.002953534309659153,0.002634161595604382
1761341803337842700,5.5278427734375,-0.0597439823448658,0.0011290040299296378,0.004499622107343748
1761341803347908600,5.53790869140625,-0.0637830286026001,-0.0038532961609773334,0.01024044904797338
1761341803357975800,5.547975830078125,-0.0709673871487379,-0.0022884945296682414,0.008100103417877107
1761341803368041700,5.558041748046875,-0.0612426964700222,0.003012698884680867,0.011678902619564904
1761341803378108000,5.56810791015625,-0.06827566384673119,0.0031897359520196913,0.006834892087918706
1761341803388173800,5.578173828125,-0.06857669261991978,-0.0025542693263851104,0.0005744297539349645
1761341803398240800,5.58824072265625,-0.07426292156279087,-0.0015043218820355831,0.0061255839079385616
1761341803408306700,5.598306640625,-0.06064414605498313,0.001902070761658251,0.003970748528186231
1761341803418372600,5.60837255859375,-0.059147185495495795,0.010427833979390561,0.008760339158587158
1761341803428438800,5.618438720703125,-0.06498655917346477,-0.001257014323771,0.005583298291359096
1761341803438505700,5.628505615234375,-0.060650575795769684,0.00038172932658344505,0.002096565853874199
1761341803448571600,5.638571533203125,-0.0651379503428936,-0.00016134630786255,0.00980986191125121
1761341803458637800,5.648637939453125,-0.06648351973295212,0.003954089654330164,0.00986271090991795
1761341803468703700,5.658703857421875,-0.0718733960777521,0.0012163169872015714,0.00916582838667091
1761341803478769700,5.668769775390625,-0.07352174780666827,0.0042803989992477,0.00518346705250442
1761341803488836900,5.6788369140625,-0.07202420272529125,0.010377163238078356,0.0064170365686062715
1761341803498902800,5.68890283203125,-0.07950608291327953,0.0009398746659979223,0.007901055448129773
1761341803508968700,5.69896875,-0.06588847644925117,0.0052598567569628355,0.0037457350001204757
1761341803519034600,5.70903466796875,-0.06514496460556983,0.0026251060728915035,0.008873576574982143
1761341803529101600,5.7191015625,-0.07053250286281108,0.007590181134361773,0.004729211345827207
1761341803539167700,5.729167724609375,-0.07277355978786945,0.0032552754689007994,0.005446113743796013
1761341803549233700,5.739233642578125,-0.06379764164984225,0.000014649579860270023,-0.002050703718420118
1761341803559299600,5.749299560546875,-0.06454699871242046,0.0034995873524807392,-0.004317429374274797
1761341803569365800,5.75936572265625,-0.07188099486231804,0.0007647555611096322,0.0000016211349284276365
1761341803579432700,5.7694326171875,-0.0747282009869814,0.007549264602083713,0.00454828812123742
1761341803589499000,5.779498779296875,-0.06186462776064872,0.0032682080157101154,0.012439657858991995
1761341803599564800,5.789564697265625,-0.07039514021873473,0.008379979805182665,0.0006883978226920589
1761341803609630500,5.79963037109375,-0.07069441542625426,0.0029432503776624795,0.005905401818617246
1761341803619698000,5.809697998046875,-0.07233633741438389,0.005000000244379043,0.0055010588014265515
1761341803629763600,5.819763671875,-0.06665127751529216,-0.0018691000738181173,0.0002630896492861211
1761341803639829800,5.829829833984375,-0.06754910313785076,0.00307111454103142,0.005987408413109369
1761341803649895700,5.839895751953125,-0.07099252158999443,-0.0025566804791800676,0.009217955866130069
1761341803659961600,5.849961669921875,-0.0660568187534809,0.0002148300607688725,0.001037772949365899
1761341803670028800,5.86002880859375,-0.07010112570822238,0.0014220869586803017,0.008125502720614896
1761341803680094700,5.8700947265625,-0.06740940240621567,-0.0013758731967769562,-0.0018432258470449595
1761341803690160600,5.88016064453125,-0.06635609396100044,0.0027276531319133934,0.002847548617958091
1761341803700226800,5.890226806640625,-0.06650514704287051,-0.0016392916396260262,0.0018860603417735545
1761341803710293800,5.900293701171875,-0.06860065801739693,0.005589417504891753,0.004266534870676696
1761341803720359700,5.910359619140625,-0.06650631608664989,0.00759772512000054,0.004518687567417509
1761341803730425000,5.920425048828125,-0.06740531075298786,0.004020012763701379,-0.00033710930014494805
1761341803740491300,5.9304912109375,-0.06889584157168865,0.000047528936155140396,0.0038896095833741125
1761341803750557200,5.94055712890625,-0.06649754825830459,0.0014014825620688497,0.0020280945943901315
1761341803760624000,5.9506240234375,-0.06949146937727928,-0.00019323928346857427,0.0015835656972834839
1761341803770690300,5.960690185546875,-0.06620002661645412,-0.00017827917635440825,0.004598630068986676
1761341803780756200,5.970756103515625,-0.06620236470401286,0.0024358853774145246,0.0038702518623555076
1761341803790822100,5.980822265625,-0.06545359216332436,0.007745627424400299,0.0060805254900828
1761341803800889300,5.990889404296875,-0.06740063457787036,0.0037526305317878723,0.0007326388232177123
1761341803810955300,6.000955322265625,-0.06770341691672802,-0.008065543561149389,0.005030093988543376
1761341803821021400,6.011021484375,-0.06889934870302676,-0.0004944324534386397,-0.0023053680326556784
1761341803831087000,6.021087158203125,-0.065002925786376,0.004465418443642556,0.004435205968469381
1761341803841153000,6.031153076171875,-0.06305822145938873,-0.0015127243841998278,0.00932858576690778
1761341803851220200,6.04122021484375,-0.06904197204411029,0.002920947214309126,0.000501999271963723
1761341803861286100,6.0512861328125,-0.07233633741438389,-0.00029076310750097035,0.00797884252523072
1761341803871352300,6.061352294921875,-0.06485270366072654,0.0017470993956550955,0.012184861114015802
1761341803881418200,6.071418212890625,-0.06650105538964271,0.008141056482773273,0.009801660338486545
1761341803891485200,6.081485107421875,-0.0720347241193056,-0.00008979717530310154,0.0037847107370616866
1761341803901551400,6.09155126953125,-0.058120180535316465,0.00911565540228039,-0.0002350462983129546
1761341803911617300,6.1016171875,-0.05796995840966701,0.0011835837613791227,0.0010221643882803617
1761341803921683200,6.11168310546875,-0.06605097353458404,0.0001828822862356901,0.0007811632732162251
1761341803931749000,6.1217490234375,-0.0774251849859953,0.00159125124681741,-0.0014603914087638259
1761341803941816000,6.131816162109375,-0.07428396435081959,0.00003686141166836023,0.005552816388127393
1761341803951882200,6.14188232421875,-0.0648585488796234,-0.0012370492479763925,0.003489718979015015
1761341803961948200,6.1519482421875,-0.06904781726300716,0.0006962021032348275,-0.00011182634402066468
1761341803972014000,6.16201416015625,-0.065159577652812,-0.004900503658968955,0.0017269973225425928
1761341803982081300,6.172081298828125,-0.06411094538271427,0.004636756422556936,-0.0011477543961722404
1761341803992147200,6.182147216796875,-0.07054653138816357,0.0014063596665859221,0.0008714308059774339
1761341804002213000,6.192213134765625,-0.06725450410544873,0.0046891076643019915,0.005371336041111499
1761341804012279300,6.202279296875,-0.0656084904640913,0.0008095993498340249,0.0004144762521376833
1761341804022346200,6.21234619140625,-0.06860124253928661,0.00578139641303569,0.0005506104869302361
1761341804032412400,6.222412353515625,-0.07324293086528777,-0.0014733239555731416,0.00103658107270021
1761341804042478000,6.23247802734375,-0.06680851390361786,0.0030077669812366365,0.006519916987768374
1761341804052544000,6.2425439453125,-0.06306757380962372,0.003288702814467251,-0.0003019192557549104
1761341804062610200,6.252610107421875,-0.06501520074605942,-0.002198843484837562,-0.005255614406685345
1761341804072677000,6.262677001953125,-0.07279460257589816,-0.00285650367597118,0.0023802872992353514
1761341804082743000,6.272742919921875,-0.06397182917296886,0.0021619455405510963,-0.004138972101407125
1761341804092809200,6.282809326171875,-0.06682254242897033,0.0005302709518000483,0.00751275938344188
1761341804102875100,6.292875244140625,-0.06637655222713947,0.011470584497973323,0.0027711178143043067
1761341804112942300,6.3029423828125,-0.05964753623306751,0.002193747184611857,0.0008784633349627255
1761341804123008300,6.31300830078125,-0.06323650063574314,-0.000024093261640518903,0.0038916599765652787
1761341804133074200,6.32307421875,-0.0789496180742979,0.002430515082553029,-0.0017293628095649183
1761341804143140400,6.333140380859375,-0.07251578563451766,0.0017179098337888716,0.0036510789866093544
1761341804153206000,6.3432060546875,-0.06922317382991314,0.0061808805920183655,0.004100010064197704
1761341804163273200,6.353273193359375,-0.07580956648290157,0.0032837709110230206,0.004047795819770545
1761341804173339100,6.363339111328125,-0.07805413053929805,-0.00036218437589704986,0.0011385527429869397
1761341804183405000,6.373405029296875,-0.07191606617569923,0.003974237393215298,0.004645268522575498
1761341804193471200,6.38347119140625,-0.0716167909681797,0.00529796027764678,0.0036319358947221186
1761341804203538200,6.3935380859375,-0.06473755284845828,0.009788641026709228,-0.005390944923879579
1761341804213604000,6.40360400390625,-0.06084697515070438,0.004887041389197111,0.0014301058683544397
1761341804223670300,6.413670166015625,-0.07311667413711548,0.0056061859766021365,-0.006904020934528671
1761341804233736200,6.423736083984375,-0.06997136184871196,0.00611448255861178,-0.0018452945065451786
1761341804243802400,6.43380224609375,-0.0738648621559143,0.002333794976118952,0.0006092499055666849
1761341804253869300,6.443869384765625,-0.06697977881729603,0.009251227948069572,0.005424920258717611
1761341804263935000,6.45393505859375,-0.06638122840225696,0.010907836048677563,0.007661661768262274
1761341804274001200,6.464001220703125,-0.06398585769832134,0.006952705214731395,0.0006087704149540514
1761341804284067000,6.474067138671875,-0.06502981379330158,0.0005535422295331955,0.007724073179718106
1761341804294134000,6.484134033203125,-0.0645756402850151,0.0034800241354852914,0.0029425516913412137
1761341804304200200,6.4942001953125,-0.06711947954893112,0.008986202070023864,-0.00644279663094785
1761341804314266000,6.50426611328125,-0.0651683454811573,0.0030495968289673326,0.009704940232052468
1761341804324332300,6.514332275390625,-0.05978197626769542,0.008728391384053975,0.009289390834257937
1761341804334398200,6.524398193359375,-0.07100304298400878,0.00730270596249029,0.009354615257307887
1761341804344465200,6.534465087890625,-0.07504208924174309,0.00737189874118194,0.0027887128364993256
1761341804354531300,6.54453125,-0.06067512571513652,0.0037007542140781876,0.006210558777651749
1761341804364597000,6.554596923828125,-0.07085282085835934,0.0022847134036943317,0.009445266382559202
1761341804374663200,6.5646630859375,-0.06980126597881317,0.0034707448504865167,0.00663733738893643
1761341804384730000,6.574730224609375,-0.07025134783387184,-0.001587524919770658,-0.004019346043420955
1761341804394796000,6.584796142578125,-0.07204992168843746,0.005103917276579886,0.006865848915185779
1761341804404862200,6.5948623046875,-0.0720481681227684,0.005613949157949536,0.003305827479204163
1761341804414928100,6.60492822265625,-0.0717518155246973,0.004372315066400915,0.007919760148599743
1761341804424994300,6.614994384765625,-0.06771218474507332,0.00921820246130228,-0.0017150694227311759
1761341804435061200,6.625061279296875,-0.06083411566913127,0.005718615108821541,-0.006709772437484935
1761341804445127200,6.635127197265625,-0.06487316192686557,0.001936228759586811,0.0020401503583649173
1761341804455193300,6.645193359375,-0.06322597924172878,0.0017536022016778588,0.0032243460410973056
1761341804465259300,6.65525927734375,-0.07070552134215831,-0.0019241364629939198,-0.001375786431808956
1761341804475326200,6.665326171875,-0.07878536742329598,0.001948448920343071,0.0072659267492126665
1761341804485392100,6.67539208984375,-0.06771043117940426,0.004441014654748141,0.0034235538410488514
1761341804495458000,6.6854580078125,-0.06427168890237808,0.0009621960956603288,0.0009496608410729095
1761341804505524200,6.695524169921875,-0.07175532265603542,-0.0025797142948955297,0.009234824802540242
1761341804515590100,6.705590087890625,-0.06681845077574253,-0.0006056012103334069,0.0005318509875331073
1761341804525657000,6.715656982421875,-0.0683142422914505,-0.000040898265969008204,-0.0009971852106507868
1761341804535723300,6.72572314453125,-0.0695119276434183,0.005487162706814706,-0.0036937079853611066
1761341804545789200,6.7357890625,-0.07624035911560058,0.001239496933389455,-0.00159358020122163
1761341804555855400,6.74585546875,-0.0750455963730812,0.0060941886892542235,0.003819768350711092
1761341804565922300,6.75592236328125,-0.07265548636615275,0.007897237789537758,-0.0022095064427470786
1761341804575988200,6.76598828125,-0.07250643328428268,0.004578578228224069,-0.008787336763367057
1761341804586054100,6.77605419921875,-0.06876490866839885,0.006088617464993148,0.002515636082738638
1761341804596120000,6.7861201171875,-0.06936462812721729,-0.001794189940392971,-0.0013434002658585086
1761341804606187000,6.79618701171875,-0.07101181081235408,0.004670019371341914,0.006819050631392746
1761341804616253200,6.806253173828125,-0.06936696621477603,0.00023282237518578767,0.008622341760271228
1761341804626319000,6.816319091796875,-0.0711637865036726,0.007184760404936969,0.0003512885225471109
1761341804636385300,6.82638525390625,-0.06293196473121643,0.006515647238027304,0.0024379494703374804
1761341804646451200,6.836451171875,-0.06128361300230026,-0.002579074974078685,0.004168590921536088
1761341804656518100,6.84651806640625,-0.060388125467300414,0.006913962373230606,-0.001969021350913681
1761341804666584300,6.856584228515625,-0.07400397836565971,0.0021789697405882177,-0.003175045272964053
1761341804676650200,6.866650146484375,-0.06771627639830112,0.005205094362422824,0.0030662420030916106
1761341804686716400,6.87671630859375,-0.06292904212176799,0.006300597981549799,0.0014280463420087472
1761341804696783400,6.886783447265625,-0.0681657737314701,0.008341218697372824,0.00448335139255505
1761341804706849000,6.89684912109375,-0.059037879902124404,0.003830189280025661,0.000966292315465398
1761341804716915200,6.906915283203125,-0.07520049467384815,0.004512874314561486,-0.0012242673982167617
1761341804726981600,6.916981689453125,-0.07924070997536183,0.00046162616237998004,0.004194570179586299
1761341804737047600,6.927047607421875,-0.06517360617816448,0.00023817440373823044,0.006814173526875674
1761341804747114800,6.93711474609375,-0.07535013227760791,0.0031284524851478636,-0.0008342953996732831
1761341804757180700,6.9471806640625,-0.07116027937233448,0.004313095692452043,0.007069486295082606
1761341804767246600,6.95724658203125,-0.0645762248069048,-0.0025475655909627673,0.0033807376126293092
1761341804777312500,6.9673125,-0.06113455992043018,0.0022273571932688355,0.007359212789544835
1761341804787379500,6.97737939453125,-0.06652618983089924,0.0034421215442009268,0.007690458604483865
1761341804797445600,6.987445556640625,-0.06353577584326267,0.00377529902132228,-0.0007038100209552794
1761341804807511600,6.997511474609375,-0.058901686301827426,0.00540368567444384,-0.0012663666740059852
1761341804817577700,7.00757763671875,-0.07012742919325828,0.0010327223149128257,-0.0014782375927083194
1761341804827643600,7.0176435546875,-0.07027297514379025,0.0027903796372003853,0.0013655344658531248
1761341804837710600,7.027710693359375,-0.06399053387343884,0.0014170819899998605,0.003532220113603398
1761341804847776800,7.03777685546875,-0.05980243453383446,-0.0007405161689966916,-0.0013408566823229194
1761341804857842700,7.0478427734375,-0.06608429128229618,0.0030377967933192846,-0.0000938340296037495
1761341804867908400,7.057908447265625,-0.06817629512548447,-0.0002259359766729176,0.0020048278832342473
1761341804877975600,7.0679755859375,-0.06653437313735484,0.001273581866081804,-0.0014041494431905447
1761341804888041500,7.07804150390625,-0.07072481056451797,0.005331332824286073,0.0009500946659129113
1761341804898107600,7.088107666015625,-0.06204758311212062,0.00541981482533738,-0.0023704874244285744
1761341804908173600,7.098173583984375,-0.07312076579034328,0.007530231108050793,0.0018847908332943915
1761341804918239500,7.108239501953125,-0.06908347309827804,0.009727357559837401,0.001338573393691331
1761341804928306700,7.118306640625,-0.058759647482633584,0.0024553024639375506,0.0013749233487062155
1761341804938372600,7.12837255859375,-0.06789221748709678,0.004893763390928506,0.000008717595995403827
1761341804948438500,7.1384384765625,-0.059660395714640616,-0.0015755056884139776,0.005999034918821417
1761341804958504700,7.148504638671875,-0.06205225928723812,-0.001680938824266195,-0.0035680312125012277
1761341804968571600,7.158571533203125,-0.07162614331841469,0.010319185973145068,0.0038909201910486443
1761341804978637600,7.168637451171875,-0.06369535031914711,0.0007419774737209081,0.00332861013317015
1761341804988703500,7.178703369140625,-0.06234627379775047,0.0037618367515504358,0.0061911188582424075
1761341804998769400,7.188769287109375,-0.06713467711806297,0.016031225210707635,-0.007864125537802465
1761341805008835600,7.198835693359375,-0.07012333754003047,0.0022541173360310493,0.0044462251194054255
1761341805018902500,7.208902587890625,-0.07401040810644627,0.0001496010711416602,0.0035124651003628966
1761341805028968400,7.218968505859375,-0.08582827167212963,0.007495324191451072,-0.002243317380803637
1761341805039034600,7.22903466796875,-0.07250877137184143,0.005129270913545042,0.008715760231344028
1761341805049100500,7.2391005859375,-0.06457739385068416,0.0012030373805202543,0.005012361969030462
1761341805059167700,7.249167724609375,-0.06323182446062564,0.007340699885319918,0.00005338785478379577
1761341805069233700,7.259233642578125,-0.07161269931495189,0.001242474341765046,0.0016293136683059855
1761341805079299600,7.269299560546875,-0.06532616639137268,-0.0003165916685014963,0.00008859616548288613
1761341805089365500,7.279365478515625,-0.06293254925310611,0.0008652019945904612,-0.004114865140034817
1761341805099431400,7.289431396484375,-0.06293605638444423,0.0014561901576817034,0.004815606421069242
1761341805109498600,7.29949853515625,-0.0563537553846836,0.00767089995406568,0.00021968433239962905
1761341805119564500,7.309564453125,-0.06667875004410743,0.006323522199410945,-0.0011274742265464737
1761341805129630500,7.31963037109375,-0.06548515634536743,-0.004162033316586166,-0.007722534243180416
1761341805139696600,7.329696533203125,-0.0672813921123743,0.0027392705044709145,0.0003221583261853084
1761341805149763600,7.339763671875,-0.06803308726251125,0.0018447510838508604,0.003804547948692925
1761341805159829500,7.34982958984375,-0.0663882426649332,0.0031472485171630976,0.0011635045211529358
1761341805169895700,7.359895751953125,-0.06818623199760913,0.004892758743930608,-0.0011686601868830622
1761341805179961600,7.369961669921875,-0.06175415312349796,-0.0009959157021716236,0.002853549100481905
1761341805190027500,7.380027587890625,-0.06489303567111492,0.0072714340413920575,-0.0009550494022434576
1761341805200094500,7.390094482421875,-0.07237199324965476,0.006409300786722451,0.00200960452305153
1761341805210160400,7.400160400390625,-0.06504033518731593,0.005149473451357334,0.007707916629360988
1761341805220226600,7.4102265625,-0.06444120025038719,-0.0029864501985721287,0.0022478291591396552
1761341805230292500,7.42029248046875,-0.06952829425632953,0.0011638926802203058,0.00818779083448462
1761341805240359400,7.430359375,-0.0604015694707632,0.009906111660227179,-0.004184966667601838
1761341805250425600,7.440425537109375,-0.07207096447646617,0.0009601868016645312,-0.00023679073082748798
1761341805260491500,7.450491455078125,-0.07177285831272602,0.008299297518096863,-0.003959743076981976
1761341805270557700,7.4605576171875,-0.06428922455906867,0.00019868264356628058,-0.003827682229108177
1761341805280623600,7.47062353515625,-0.0638350510507822,0.002837451915629208,0.011561514184437691
1761341805290690600,7.480690673828125,-0.06802315039038657,0.003251439543999731,0.004807601211126894
1761341805300756700,7.4907568359375,-0.06907353622615336,-0.0027403482167050242,-0.0029165541669819504
1761341805310822400,7.500822509765625,-0.07640811689794064,0.006451240232307464,0.004008304059598595
1761341805320888600,7.510888671875,-0.07042202822566032,0.0011749985961243509,0.00017932492254767567
1761341805330955500,7.52095556640625,-0.061442018434405325,0.0036637832045555113,-0.015086952930805272
1761341805341021400,7.531021484375,-0.06757716018855571,0.006817771989759057,0.002459453482669778
1761341805351087600,7.541087646484375,-0.0686234543710947,-0.0038448023272678253,0.010143642176571302
1761341805361153500,7.551153564453125,-0.061143912270665166,0.007948840112611651,0.008681972126173786
1761341805371219700,7.5612197265625,-0.06473579928278923,0.006744451025221496,0.004579066851991228
1761341805381286700,7.57128662109375,-0.07296879009902477,0.00287358267493546,0.0038110279218293726
1761341805391352600,7.5813525390625,-0.06608662936985492,0.0029017858561128378,-0.005053995453938842
1761341805401418800,7.591418701171875,-0.07326748078465462,-0.0002931559939868748,0.005626731007709168
1761341805411484400,7.601484375,-0.061443187478184697,0.006969035295024514,0.005522170088114216
1761341805421550600,7.611550537109375,-0.06578092442154884,0.006606248130928725,0.005251828714134171
1761341805431617500,7.621617431640625,-0.06817571060359477,0.0003288848944939673,0.0020766692767385394
1761341805441683500,7.631683349609375,-0.06338380015194416,0.005759714304190129,0.009332759618526323
1761341805451749600,7.64174951171875,-0.06352934610247611,0.010517265828512609,-0.00096468488026876
1761341805461815600,7.651815673828125,-0.07714344543516635,0.005140431628376245,-0.0032641483285231515
1761341805471882500,7.661882568359375,-0.06277765095233917,-0.00385252897599712,0.0021718184805940835
1761341805481948700,7.67194873046875,-0.07684300118386744,0.0031271555772051213,0.001700552273611538
1761341805492014600,7.6820146484375,-0.0744534756988287,0.006170487062167376,0.012231134241423568
1761341805502080800,7.692080810546875,-0.08447685706317425,-0.006211915051098913,0.002984742298675701
1761341805512147700,7.702147705078125,-0.07534662514626979,0.001785056785866618,0.004381562385358848
1761341805522213400,7.71221337890625,-0.06800970638692379,0.013250636315159499,0.004370826362213119
1761341805532279600,7.722279541015625,-0.06696399672627448,0.0030760099118575454,-0.003045541708357632
1761341805542345500,7.732345458984375,-0.0632248101979494,-0.003283679579477757,0.0004070372977759689
1761341805552411600,7.74241162109375,-0.06083177758157253,0.0018284940687939523,0.0023675100160529833
1761341805562478600,7.752478515625,-0.05993395195901394,0.0014967778963968156,0.008981576127256266
1761341805572544500,7.76254443359375,-0.07609656673073768,0.003632328620366752,0.005674159479164518
1761341805582610700,7.772610595703125,-0.062335167881846426,-0.000996153164189309,0.0021861620997777205
1761341805592676600,7.782676513671875,-0.07206511925756931,-0.0002370418925769627,-0.0007529874915024265
1761341805602743600,7.79274365234375,-0.06457914741635322,0.001677358627691865,0.005357563244085759
1761341805612809700,7.802809814453125,-0.060686816152930256,0.006549805235955864,0.0025304637591121717
1761341805622875600,7.812875732421875,-0.07490355755388736,0.004356496442761272,0.006096732272789813
1761341805632941600,7.822941650390625,-0.06562485707700252,0.00970669836429879,0.00677151256208308
1761341805643007500,7.833007568359375,-0.07340542795062065,0.0055329015446826816,0.0062997577313333745
1761341805653074400,7.843074462890625,-0.060086512172222134,-0.005440309624094516,-0.0029902358911233023
1761341805663140600,7.853140625,-0.07669102549254894,0.0028579649806953966,-0.0018288867944385855
1761341805673206500,7.86320654296875,-0.0642705198585987,0.0022590309731662273,0.0030909289197763425
1761341805683272700,7.873272705078125,-0.06262509073913097,0.0027005824618972834,0.0007111987429670989
1761341805693338600,7.883338623046875,-0.06322305663228035,0.005369509410206228,0.00044114049677737056
1761341805703405600,7.893405517578125,-0.07130348723530769,0.006263791368808597,0.008046902792761101
1761341805713471700,7.9034716796875,-0.07339899820983409,0.0008870302339084446,0.002413591347215697
1761341805723537700,7.91353759765625,-0.07325111417174339,0.0027580665364861485,0.004659721739613451
1761341805733603800,7.923603759765625,-0.06113046826720237,-0.003083352968096733,0.0030307459980249405
1761341805743671000,7.933671142578125,-0.07654489502012729,-0.000006027881987392902,0.00016756598609499632
1761341805753737000,7.943737060546875,-0.0684621263295412,0.0019707155510783193,-0.005202801940636709
1761341805763803000,7.953802978515625,-0.07714052282571793,0.006893175313528626,0.007094584203721024
1761341805773869000,7.963869140625,-0.06771043117940426,0.0037072752864100037,0.0016727920504286883
1761341805783936000,7.97393603515625,-0.0651642538279295,0.009298062764480709,0.004885945410653948
1761341805794002200,7.984002197265625,-0.06426584368348122,-0.0013662468519061804,0.0052303840673062945
1761341805804067800,7.99406787109375,-0.06845686563253402,0.009463756453897803,-0.0005443040437297895
1761341805814133800,8.0041337890625,-0.07144903318583964,-0.0007393471252173185,0.00018558569997549057
1761341805824200000,8.014199951171875,-0.06366729326844214,0.0005935637126676738,0.003780559718329459
1761341805834265900,8.024265869140624,-0.06666296795308589,-0.006796181212458759,0.002604880702192895
1761341805844332000,8.03433203125,-0.06815759042501449,0.0023530111332423984,-0.0020734681060770527
1761341805854399000,8.04439892578125,-0.06291618264019488,0.003706161041557789,-0.0037862679399084296
1761341805864465000,8.05446484375,-0.06875088014304638,0.0007820537557825445,0.0033275689535541457
1761341805874531000,8.064531005859376,-0.07742869211733341,-0.001742898144572973,-0.0006415858391672373
1761341805884597000,8.074596923828125,-0.0721919605076313,0.004253821519576013,-0.005910329155484214
1761341805894663000,8.084662841796876,-0.06097089379131793,0.0032581250131130217,0.009443590448703616
1761341805904729900,8.094729736328125,-0.06186462776064872,0.004326357032824308,0.007654341544909403
1761341805914795800,8.104795654296876,-0.0666542001247406,0.0024422237866558133,-0.003204837623029016
1761341805924862000,8.114862060546875,-0.06994388931989669,0.0050475839794613415,0.005357586076972075
1761341805934928000,8.124927978515625,-0.06231237152814865,0.0011744871394708753,-0.0016713307457044719
1761341805944994000,8.134994140625,-0.0700958650112152,0.0024674130268394945,0.001182994672912173
1761341805955061000,8.14506103515625,-0.07294014852643013,-0.0023972156011499465,-0.0010773286416195333
1761341805965127000,8.155126953125,-0.059171735414862627,0.0005403539543971419,0.004640592347458005
1761341805975193000,8.165193115234375,-0.06411152990460395,-0.000005516425333917141,0.0023755289257271213
1761341805985259000,8.175259033203124,-0.07144377248883246,-0.0017934044891037045,-0.004840695196553133
1761341805995326000,8.185325927734375,-0.06620762540102004,-0.005375482493266463,-0.0013974091751500963
1761341806005392000,8.195391845703124,-0.0726408733189106,0.0004373137050308287,0.002275045959628187
1761341806015457800,8.205457763671875,-0.06800152308046817,0.004127875318657607,-0.005085235408996231
1761341806025524000,8.21552392578125,-0.06321311976015567,-0.005723766207974404,0.003952550717792474
1761341806035590000,8.22558984375,-0.060069561037421226,-0.0018734474553726613,0.0064217401431873435
1761341806045656800,8.23565673828125,-0.07323942373394966,0.005409841420594603,0.003161076113115996
1761341806055723000,8.245722900390625,-0.07069383090436458,0.004422766612004489,-0.0011606686766725033
1761341806065789000,8.255788818359376,-0.06874445040225982,0.000665441638790071,-0.0041849986336426805
1761341806075855000,8.265855224609375,-0.06800210760235786,-0.003164236184582114,0.007510247765947133
1761341806085922000,8.275922119140626,-0.06680734485983848,0.0024524711860343814,0.008936709505645558
1761341806095988000,8.285988037109375,-0.07309037065207957,0.005713865868467837,-0.006055477813794277
1761341806106054100,8.29605419921875,-0.06725684219300747,-0.0006088891459628939,-0.0019309223968069999
1761341806116119800,8.306119873046875,-0.06650690060853957,0.005453333502449095,0.01005397286543157
1761341806126186000,8.31618603515625,-0.06799801594913006,0.00676627926453948,-0.001636780022131279
1761341806136253000,8.3262529296875,-0.0708417149424553,0.004435114636924117,-0.010005147021333687
1761341806146318800,8.33631884765625,-0.06830430541932582,-0.0007913695733994245,0.00448473049888853
1761341806156385000,8.346385009765624,-0.06815408329367638,0.006365552976541221,0.0030027209133608266
1761341806166451000,8.356450927734375,-0.07129881106019019,0.005264295470062643,-0.0023532440286828204
1761341806176518000,8.366517822265624,-0.058876551860570905,0.005031272165477276,-0.006625012196903117
1761341806186584000,8.376583984375,-0.06411445251405239,-0.008058949423581362,-0.0019830681425752118
1761341806196650000,8.38664990234375,-0.06605857231914997,0.0027859043914824724,0.008844619908556341
1761341806206716200,8.396716064453125,-0.06666179890930653,0.004185048865992576,0.00719928212063387
1761341806216781800,8.40678173828125,-0.07533961088359356,0.00041139381248503923,-0.00007186422639060765
1761341806226848800,8.416848876953125,-0.07174947743713855,0.002885309645347297,0.0054826691947877405
1761341806236915000,8.4269150390625,-0.05947685584127903,0.0041379400549456475,0.006853825117251835
1761341806246980900,8.43698095703125,-0.058873629251122474,-0.00412661494333297,0.008712572760414332
1761341806257047000,8.447047119140626,-0.07233633741438389,-0.002803312184009701,0.0023377359322970734
1761341806267114000,8.457114013671875,-0.06515197886824607,0.0013614976115524768,-0.0014987415246199816
1761341806277180000,8.467179931640626,-0.06560089167952537,0.004632500372547656,0.0023343429653905332
1761341806287246000,8.47724609375,-0.06559855359196662,0.007126801406312734,0.0049538504145573824
1761341806297312000,8.48731201171875,-0.061710313981771465,0.006642397156544029,0.006060925740469247
1761341806307378200,8.497378173828125,-0.07308101830184459,0.003737104169093072,-0.0022000033954624083
1761341806317445000,8.507445068359376,-0.07772036854028701,0.0028615451772697267,0.011498531950823962
1761341806327510800,8.5175107421875,-0.07442483412623405,0.005126037776842713,0.008279090413707307
1761341806337577000,8.527576904296875,-0.0644014527618885,0.007341448803991079,0.008486148159974255
1761341806347643000,8.537642822265624,-0.07023322765529155,0.006136877053510397,0.004187592449528165
1761341806357709800,8.547709716796875,-0.0723223088890314,0.0036408772530034184,0.0029469401720911264
1761341806367776000,8.55777587890625,-0.06498831273913383,0.0011865611697547138,0.00427863173384685
1761341806377842000,8.567842041015625,-0.06663315733671188,0.007449165228474885,-0.0035945082274731247
1761341806387908000,8.577908203125,-0.07474398307800292,0.004604680783860385,-0.007725032160943374
1761341806397974000,8.58797412109375,-0.0861082576572895,0.0034942718565464017,-0.0026365499155130236
1761341806408041000,8.598041015625,-0.04212356998026371,0.004598360640928149,0.012572307795332744
1761341806418107100,8.608107177734375,-0.09554361000061035,0.001006126568932086,0.0012253222775645554
1761341806428173000,8.618173095703124,-0.053637482163310046,0.0007198752397671341,0.005003557608067058
1761341806438239000,8.628239013671875,-0.05932020397484302,-0.002479797584377229,-0.0005075339636066928
1761341806448306000,8.638305908203124,-0.059465165403485294,-0.0031903022076003253,0.00879901806800626
1761341806458371800,8.648371826171875,-0.06424772350490093,0.004017930404469371,0.0006498011116636916
1761341806468438000,8.65843798828125,-0.06888356661200523,0.0073792783300392325,-0.000705120628629811
1761341806478504000,8.66850390625,-0.07756313215196133,0.0004891534901224076,0.003743698306661099
