time,seconds_elapsed,z,y,x
1761341797874396000,0.06439599609375,-1.0066375732421875,-0.0234222412109375,0.0064697265625
1761341797884461800,0.0744619140625,-1.006622314453125,-0.0229949951171875,0.005767822265625
1761341797894528800,0.08452880859375,-1.006011962890625,-0.0227813720703125,0.0063018798828125
1761341797904595000,0.094594970703125,-1.0057830810546875,-0.023284912109375,0.0058746337890625
1761341797914660900,0.104660888671875,-1.0059051513671875,-0.022735595703125,0.005462646484375
1761341797924727000,0.11472705078125,-1.0062713623046875,-0.0231170654296875,0.005584716796875
1761341797934794000,0.1247939453125,-1.0064697265625,-0.0230865478515625,0.005584716796875
1761341797944860000,0.13485986328125,-1.0077056884765625,-0.0229949951171875,0.0061798095703125
1761341797954925800,0.14492578125,-1.006195068359375,-0.0235443115234375,0.0063934326171875
1761341797964991700,0.15499169921875,-1.006988525390625,-0.0233612060546875,0.006317138671875
1761341797975058700,0.16505859375,-1.0078277587890625,-0.0233306884765625,0.0058135986328125
1761341797985124900,0.175124755859375,-1.0068359375,-0.02337646484375,0.0061187744140625
1761341797995190800,0.185190673828125,-1.0062713623046875,-0.0232696533203125,0.006195068359375
1761341798005257000,0.195257080078125,-1.0064697265625,-0.0229034423828125,0.00555419921875
1761341798015324000,0.205323974609375,-1.006683349609375,-0.022857666015625,0.005584716796875
1761341798025389800,0.215389892578125,-1.0059051513671875,-0.0233154296875,0.0064849853515625
1761341798035456000,0.2254560546875,-1.0066680908203125,-0.0225677490234375,0.0064544677734375
1761341798045522000,0.23552197265625,-1.0062103271484375,-0.023223876953125,0.0068359375
1761341798055588900,0.2455888671875,-1.006256103515625,-0.023162841796875,0.006134033203125
1761341798065654800,0.25565478515625,-1.006378173828125,-0.02374267578125,0.005889892578125
1761341798075720700,0.265720703125,-1.0072021484375,-0.022705078125,0.00506591796875
1761341798085787000,0.275786865234375,-1.006256103515625,-0.0227203369140625,0.0063018798828125
1761341798095852800,0.285852783203125,-1.0069427490234375,-0.0233917236328125,0.0059814453125
1761341798105919700,0.295919677734375,-1.006500244140625,-0.024017333984375,0.0064849853515625
1761341798115986000,0.30598583984375,-1.00628662109375,-0.0233154296875,0.0069732666015625
1761341798126051800,0.3160517578125,-1.006591796875,-0.023834228515625,0.0065155029296875
1761341798136118000,0.326117919921875,-1.0066680908203125,-0.0232696533203125,0.006317138671875
1761341798146185000,0.33618505859375,-1.006988525390625,-0.0236968994140625,0.006317138671875
1761341798156251000,0.3462509765625,-1.006622314453125,-0.023162841796875,0.0057373046875
1761341798166316800,0.35631689453125,-1.00555419921875,-0.0222930908203125,0.0057373046875
1761341798176382700,0.3663828125,-1.0065765380859375,-0.02288818359375,0.006591796875
1761341798186449700,0.37644970703125,-1.0064544677734375,-0.0237274169921875,0.0065765380859375
1761341798196515800,0.386515869140625,-1.00665283203125,-0.02362060546875,0.0059967041015625
1761341798206581800,0.396581787109375,-1.00726318359375,-0.022491455078125,0.00628662109375
1761341798216648000,0.40664794921875,-1.0064697265625,-0.0239105224609375,0.006500244140625
1761341798226715000,0.41671484375,-1.006591796875,-0.024139404296875,0.005462646484375
1761341798236780800,0.42678076171875,-1.006256103515625,-0.02337646484375,0.0059356689453125
1761341798246847000,0.436846923828125,-1.006866455078125,-0.0231781005859375,0.0062103271484375
1761341798256913000,0.446912841796875,-1.006744384765625,-0.024078369140625,0.005889892578125
1761341798266979800,0.456979736328125,-1.006103515625,-0.0239105224609375,0.00677490234375
1761341798277046000,0.4670458984375,-1.007049560546875,-0.023651123046875,0.0059661865234375
1761341798287111700,0.477111572265625,-1.0069580078125,-0.0240936279296875,0.0058746337890625
1761341798297177900,0.487177734375,-1.0068359375,-0.0238189697265625,0.005340576171875
1761341798307243800,0.497243896484375,-1.006683349609375,-0.023223876953125,0.00567626953125
1761341798317310700,0.507310791015625,-1.0060577392578125,-0.02288818359375,0.00634765625
1761341798327377000,0.517376953125,-1.00701904296875,-0.023529052734375,0.0055084228515625
1761341798337442800,0.52744287109375,-1.0072021484375,-0.024261474609375,0.00616455078125
1761341798347509000,0.537509033203125,-1.0062255859375,-0.0239105224609375,0.00543212890625
1761341798357576000,0.547575927734375,-1.0059814453125,-0.023406982421875,0.006134033203125
1761341798367641900,0.557641845703125,-1.0058441162109375,-0.023162841796875,0.0061492919921875
1761341798377708000,0.5677080078125,-1.0063018798828125,-0.0235137939453125,0.0066986083984375
1761341798387773700,0.577773681640625,-1.0059967041015625,-0.0240478515625,0.0060577392578125
1761341798397841000,0.5878408203125,-1.0059967041015625,-0.0235443115234375,0.005706787109375
1761341798407906800,0.59790673828125,-1.006591796875,-0.023284912109375,0.0061798095703125
1761341798417972700,0.60797265625,-1.0063629150390625,-0.0237274169921875,0.0058135986328125
1761341798428039000,0.618038818359375,-1.0070343017578125,-0.0236663818359375,0.006317138671875
1761341798438105900,0.62810595703125,-1.006561279296875,-0.0234832763671875,0.0059814453125
1761341798448171800,0.638171875,-1.0064849853515625,-0.02301025390625,0.0058746337890625
1761341798458238000,0.648238037109375,-1.0063018798828125,-0.0233154296875,0.0055694580078125
1761341798468304000,0.658303955078125,-1.0062255859375,-0.02313232421875,0.006317138671875
1761341798478370800,0.668370849609375,-1.005584716796875,-0.0236663818359375,0.0060577392578125
1761341798488437000,0.67843701171875,-1.0063934326171875,-0.0231170654296875,0.0061187744140625
1761341798498503000,0.6885029296875,-1.0057220458984375,-0.024078369140625,0.0061187744140625
1761341798508568800,0.69856884765625,-1.007049560546875,-0.0235443115234375,0.0063629150390625
1761341798518634800,0.708634765625,-1.0068817138671875,-0.02313232421875,0.0063934326171875
1761341798528701700,0.71870166015625,-1.0071868896484375,-0.0233001708984375,0.0058746337890625
1761341798538768000,0.728767822265625,-1.006622314453125,-0.0237274169921875,0.005462646484375
1761341798548833800,0.738833740234375,-1.0059967041015625,-0.0230865478515625,0.0060577392578125
1761341798558900000,0.74889990234375,-1.006195068359375,-0.0231170654296875,0.005615234375
1761341798568967000,0.758966796875,-1.0073699951171875,-0.0236358642578125,0.006500244140625
1761341798579032800,0.76903271484375,-1.0070953369140625,-0.0231781005859375,0.0057525634765625
1761341798589099000,0.77909912109375,-1.0067901611328125,-0.0233154296875,0.0066070556640625
1761341798599165000,0.7891650390625,-1.007354736328125,-0.0231781005859375,0.0065765380859375
1761341798609232000,0.79923193359375,-1.0066375732421875,-0.023223876953125,0.006622314453125
1761341798619298000,0.809298095703125,-1.00732421875,-0.0232086181640625,0.0062408447265625
1761341798629363700,0.81936376953125,-1.006927490234375,-0.022979736328125,0.0061798095703125
1761341798639430000,0.829429931640625,-1.0063323974609375,-0.0229339599609375,0.006011962890625
1761341798649496800,0.839496826171875,-1.0064697265625,-0.0228729248046875,0.0060272216796875
1761341798659562800,0.849562744140625,-1.0057830810546875,-0.02374267578125,0.0072479248046875
1761341798669629000,0.85962890625,-1.006195068359375,-0.0238037109375,0.0056915283203125
1761341798679694800,0.86969482421875,-1.0066070556640625,-0.0235595703125,0.0058746337890625
1761341798689761000,0.879760986328125,-1.0065765380859375,-0.023468017578125,0.00640869140625
1761341798699828000,0.889827880859375,-1.00665283203125,-0.023468017578125,0.006378173828125
1761341798709894000,0.899893798828125,-1.0058746337890625,-0.023406982421875,0.0059661865234375
1761341798719960000,0.9099599609375,-1.006927490234375,-0.0231781005859375,0.00732421875
1761341798730025700,0.920025634765625,-1.0079803466796875,-0.0236358642578125,0.0062255859375
1761341798740092700,0.9300927734375,-1.0077972412109375,-0.0234527587890625,0.0063934326171875
1761341798750158800,0.940158935546875,-1.0066680908203125,-0.0228424072265625,0.0055999755859375
1761341798760224800,0.950224853515625,-1.006561279296875,-0.02313232421875,0.0060577392578125
1761341798770291000,0.960291015625,-1.0070037841796875,-0.0231781005859375,0.0068511962890625
1761341798780358000,0.97035791015625,-1.0059814453125,-0.0233001708984375,0.0061798095703125
1761341798790423800,0.980423828125,-1.0069580078125,-0.0242919921875,0.00555419921875
1761341798800490000,0.990489990234375,-1.007049560546875,-0.02301025390625,0.00634765625
1761341798810556000,1.000555908203125,-1.0065765380859375,-0.0236968994140625,0.0060272216796875
1761341798820622800,1.010622802734375,-1.00665283203125,-0.0237274169921875,0.0058441162109375
1761341798830689000,1.02068896484375,-1.0064239501953125,-0.0233612060546875,0.0062255859375
1761341798840754700,1.030754638671875,-1.007293701171875,-0.0236663818359375,0.0069122314453125
1761341798850820900,1.04082080078125,-1.0075836181640625,-0.0236053466796875,0.0056304931640625
1761341798860887800,1.0508876953125,-1.0062408447265625,-0.0228729248046875,0.006256103515625
1761341798870953700,1.06095361328125,-1.005615234375,-0.023101806640625,0.0069580078125
1761341798881020000,1.07102001953125,-1.006561279296875,-0.0230712890625,0.0054931640625
1761341798891085800,1.0810859375,-1.006103515625,-0.0235443115234375,0.0061798095703125
1761341798901152000,1.091152099609375,-1.0067291259765625,-0.02410888671875,0.0058135986328125
1761341798911219000,1.101218994140625,-1.0062255859375,-0.023101806640625,0.006500244140625
1761341798921284900,1.111284912109375,-1.0067138671875,-0.023406982421875,0.006378173828125
1761341798931351000,1.12135107421875,-1.0060272216796875,-0.023345947265625,0.006988525390625
1761341798941417000,1.1314169921875,-1.0068817138671875,-0.0234832763671875,0.0067291259765625
1761341798951484000,1.14148388671875,-1.0069732666015625,-0.0233917236328125,0.006011962890625
1761341798961549800,1.1515498046875,-1.0070953369140625,-0.0231781005859375,0.005859375
1761341798971615700,1.16161572265625,-1.0076141357421875,-0.022796630859375,0.0056304931640625
1761341798981682000,1.171681884765625,-1.00701904296875,-0.023162841796875,0.005462646484375
1761341798991748900,1.181748779296875,-1.0059661865234375,-0.02294921875,0.00616455078125
1761341799001814800,1.191814697265625,-1.0071868896484375,-0.022491455078125,0.0065460205078125
1761341799011881000,1.201880859375,-1.006805419921875,-0.0231475830078125,0.0061492919921875
1761341799021947000,1.21194677734375,-1.006805419921875,-0.02337646484375,0.0065155029296875
1761341799032013800,1.222013916015625,-1.00738525390625,-0.02349853515625,0.005889892578125
1761341799042080000,1.232080078125,-1.0069122314453125,-0.0232696533203125,0.0059661865234375
1761341799052146000,1.24214599609375,-1.006317138671875,-0.0238494873046875,0.0055389404296875
1761341799062211800,1.2522119140625,-1.0075836181640625,-0.0234832763671875,0.005859375
1761341799072279000,1.262279052734375,-1.0066986083984375,-0.02301025390625,0.0066375732421875
1761341799082344700,1.2723447265625,-1.0068359375,-0.0243072509765625,0.0057373046875
1761341799092411000,1.282410888671875,-1.007080078125,-0.02349853515625,0.0060577392578125
1761341799102476800,1.292476806640625,-1.007049560546875,-0.02349853515625,0.0059814453125
1761341799112543000,1.30254296875,-1.0068206787109375,-0.0234832763671875,0.0059814453125
1761341799122610000,1.31260986328125,-1.006011962890625,-0.02313232421875,0.0063018798828125
1761341799132675800,1.32267578125,-1.0068511962890625,-0.023284912109375,0.0063323974609375
1761341799142742000,1.332741943359375,-1.0074005126953125,-0.0231170654296875,0.0059356689453125
1761341799152808000,1.342807861328125,-1.0067901611328125,-0.023193359375,0.00616455078125
1761341799162875000,1.352875,-1.00665283203125,-0.0236358642578125,0.0060577392578125
1761341799172941000,1.362941162109375,-1.006866455078125,-0.02276611328125,0.0062713623046875
1761341799183006700,1.3730068359375,-1.006927490234375,-0.022918701171875,0.0056304931640625
1761341799193073000,1.383072998046875,-1.006195068359375,-0.0230865478515625,0.006439208984375
1761341799203139800,1.393139892578125,-1.0059661865234375,-0.023193359375,0.0063018798828125
1761341799213205800,1.403205810546875,-1.007049560546875,-0.0231475830078125,0.0057830810546875
1761341799223272000,1.41327197265625,-1.0067596435546875,-0.0235595703125,0.0058135986328125
1761341799233337900,1.423337890625,-1.0066680908203125,-0.023162841796875,0.00592041015625
1761341799243404000,1.433404052734375,-1.0064849853515625,-0.02386474609375,0.0060272216796875
1761341799253471000,1.443470947265625,-1.0069732666015625,-0.0233612060546875,0.0060272216796875
1761341799263537000,1.453536865234375,-1.006072998046875,-0.023193359375,0.006622314453125
1761341799273603000,1.46360302734375,-1.006103515625,-0.0231475830078125,0.0056915283203125
1761341799283668700,1.473668701171875,-1.006622314453125,-0.0230560302734375,0.0059967041015625
1761341799293736000,1.48373583984375,-1.0063018798828125,-0.023651123046875,0.006317138671875
1761341799303801900,1.4938017578125,-1.0064697265625,-0.023345947265625,0.0049591064453125
1761341799313867800,1.50386767578125,-1.006103515625,-0.0238494873046875,0.0056915283203125
1761341799323934000,1.513933837890625,-1.005828857421875,-0.02325439453125,0.0069580078125
1761341799334001000,1.5240009765625,-1.0067138671875,-0.02349853515625,0.0066375732421875
1761341799344066800,1.53406689453125,-1.0063018798828125,-0.0233306884765625,0.006103515625
1761341799354133000,1.544133056640625,-1.0063934326171875,-0.023223876953125,0.0056915283203125
1761341799364199000,1.554198974609375,-1.006561279296875,-0.023193359375,0.0063018798828125
1761341799374265900,1.564265869140625,-1.0072784423828125,-0.0232086181640625,0.0058746337890625
1761341799384332000,1.57433203125,-1.0064849853515625,-0.0235443115234375,0.00628662109375
1761341799394398000,1.58439794921875,-1.00604248046875,-0.0236663818359375,0.0061798095703125
1761341799404463900,1.5944638671875,-1.00775146484375,-0.0232391357421875,0.0057525634765625
1761341799414529800,1.60452978515625,-1.0062103271484375,-0.0245819091796875,0.0057220458984375
1761341799424596700,1.6145966796875,-1.006561279296875,-0.02313232421875,0.005767822265625
1761341799434663000,1.624662841796875,-1.0069732666015625,-0.022430419921875,0.00592041015625
1761341799444728800,1.634728759765625,-1.006072998046875,-0.0236663818359375,0.0055084228515625
1761341799454795000,1.644794921875,-1.006622314453125,-0.0234832763671875,0.006591796875
1761341799464862000,1.654862060546875,-1.0070037841796875,-0.023712158203125,0.0067291259765625
1761341799474927900,1.664927978515625,-1.0070343017578125,-0.023193359375,0.005828857421875
1761341799484994000,1.674994140625,-1.0068206787109375,-0.0233001708984375,0.005889892578125
1761341799495060000,1.68506005859375,-1.0061798095703125,-0.0234375,0.0063629150390625
1761341799505127000,1.695126953125,-1.0068511962890625,-0.0225372314453125,0.0063629150390625
1761341799515193000,1.705193115234375,-1.0068817138671875,-0.023223876953125,0.00592041015625
1761341799525258800,1.7152587890625,-1.0068206787109375,-0.0236053466796875,0.00665283203125
1761341799535325000,1.725324951171875,-1.0068359375,-0.0233154296875,0.00665283203125
1761341799545391900,1.735391845703125,-1.007171630859375,-0.0230865478515625,0.0067291259765625
1761341799555457800,1.745457763671875,-1.0066070556640625,-0.023040771484375,0.006103515625
1761341799565524000,1.75552392578125,-1.00653076171875,-0.0228271484375,0.0064239501953125
1761341799575590000,1.76558984375,-1.0065460205078125,-0.0233154296875,0.005828857421875
1761341799585655800,1.77565576171875,-1.0076751708984375,-0.0230712890625,0.00701904296875
1761341799595723000,1.785722900390625,-1.0074462890625,-0.0237579345703125,0.0061187744140625
1761341799605789000,1.795788818359375,-1.0071563720703125,-0.0232696533203125,0.0059967041015625
1761341799615855000,1.805855224609375,-1.0069427490234375,-0.023193359375,0.0059967041015625
1761341799625920800,1.815920654296875,-1.0062103271484375,-0.023162841796875,0.006072998046875
1761341799635987700,1.82598779296875,-1.006256103515625,-0.02325439453125,0.0067291259765625
1761341799646054000,1.836053955078125,-1.007049560546875,-0.023345947265625,0.00634765625
1761341799656119800,1.846119873046875,-1.0070648193359375,-0.02386474609375,0.0061187744140625
1761341799666185700,1.856185791015625,-1.0066070556640625,-0.024078369140625,0.006195068359375
1761341799676253000,1.8662529296875,-1.0072784423828125,-0.023223876953125,0.005859375
1761341799686318800,1.87631884765625,-1.0076446533203125,-0.02337646484375,0.006195068359375
1761341799696385000,1.886385009765625,-1.006927490234375,-0.0235748291015625,0.006439208984375
1761341799706451000,1.896450927734375,-1.0066070556640625,-0.0233306884765625,0.0058746337890625
1761341799716516900,1.906516845703125,-1.006988525390625,-0.02252197265625,0.0054931640625
1761341799726583000,1.9165830078125,-1.0060272216796875,-0.0233917236328125,0.005828857421875
1761341799736649000,1.92664892578125,-1.0056915283203125,-0.023468017578125,0.00640869140625
1761341799746715100,1.936715087890625,-1.007171630859375,-0.0232086181640625,0.005828857421875
1761341799756781000,1.946781005859375,-1.0070037841796875,-0.0235137939453125,0.005462646484375
1761341799766848000,1.956847900390625,-1.006378173828125,-0.02276611328125,0.006561279296875
1761341799776914200,1.9669140625,-1.007232666015625,-0.0232696533203125,0.00592041015625
1761341799786980000,1.97697998046875,-1.006988525390625,-0.0234222412109375,0.0059967041015625
1761341799797046300,1.98704638671875,-1.0068206787109375,-0.02374267578125,0.0064544677734375
1761341799807113200,1.99711328125,-1.006378173828125,-0.0237884521484375,0.0058135986328125
1761341799817179100,2.00717919921875,-1.0069427490234375,-0.0233917236328125,0.0058746337890625
1761341799827245300,2.017245361328125,-1.0062713623046875,-0.0239715576171875,0.0062255859375
1761341799837311000,2.02731103515625,-1.00640869140625,-0.02313232421875,0.0068359375
1761341799847377200,2.037377197265625,-1.006317138671875,-0.0238800048828125,0.0059814453125
1761341799857444000,2.047444091796875,-1.0069122314453125,-0.0234832763671875,0.005706787109375
1761341799867510000,2.057510009765625,-1.0063629150390625,-0.0234375,0.006500244140625
1761341799877576200,2.067576171875,-1.0070648193359375,-0.0240478515625,0.0070953369140625
1761341799887642000,2.07764208984375,-1.00653076171875,-0.0234222412109375,0.0066680908203125
1761341799897709000,2.087708984375,-1.0062103271484375,-0.0234527587890625,0.00628662109375
1761341799907775200,2.097775146484375,-1.007232666015625,-0.0236358642578125,0.0060272216796875
1761341799917841200,2.107841064453125,-1.006011962890625,-0.0233612060546875,0.0068206787109375
1761341799927907300,2.1179072265625,-1.006561279296875,-0.0238189697265625,0.006134033203125
1761341799937974300,2.127974365234375,-1.0063629150390625,-0.0235595703125,0.0060882568359375
1761341799948040000,2.1380400390625,-1.0072174072265625,-0.023223876953125,0.00634765625
1761341799958106000,2.148106201171875,-1.0062255859375,-0.0234375,0.0066070556640625
1761341799968172000,2.158172119140625,-1.0072021484375,-0.022857666015625,0.0065155029296875
1761341799978239000,2.168239013671875,-1.006805419921875,-0.023834228515625,0.005767822265625
1761341799988305200,2.17830517578125,-1.006988525390625,-0.0238037109375,0.0069580078125
1761341799998371000,2.18837109375,-1.0067138671875,-0.0234832763671875,0.0056610107421875
1761341800008437200,2.198437255859375,-1.0061492919921875,-0.0229644775390625,0.0059051513671875
1761341800018503200,2.208503173828125,-1.007080078125,-0.023193359375,0.0060577392578125
1761341800028570000,2.218570068359375,-1.006683349609375,-0.02337646484375,0.0058746337890625
1761341800038636300,2.22863623046875,-1.0068206787109375,-0.0231781005859375,0.0062713623046875
1761341800048702000,2.238701904296875,-1.0068511962890625,-0.0244293212890625,0.00604248046875
1761341800058768100,2.24876806640625,-1.006378173828125,-0.0229949951171875,0.005706787109375
1761341800068835000,2.2588349609375,-1.0068817138671875,-0.023406982421875,0.0056915283203125
1761341800078901000,2.26890087890625,-1.00701904296875,-0.02362060546875,0.0057830810546875
1761341800088967200,2.27896728515625,-1.0058135986328125,-0.0232086181640625,0.006256103515625
1761341800099033000,2.289033203125,-1.0062408447265625,-0.023101806640625,0.0062103271484375
1761341800109100000,2.29910009765625,-1.006591796875,-0.023681640625,0.00634765625
1761341800119166200,2.309166259765625,-1.0073394775390625,-0.023651123046875,0.006011962890625
1761341800129232100,2.319232177734375,-1.007354736328125,-0.0229034423828125,0.006256103515625
1761341800139298300,2.32929833984375,-1.0073394775390625,-0.0233001708984375,0.005706787109375
1761341800149364200,2.3393642578125,-1.0068817138671875,-0.0238189697265625,0.005523681640625
1761341800159431200,2.34943115234375,-1.0070037841796875,-0.02313232421875,0.0060577392578125
1761341800169497000,2.3594970703125,-1.0065460205078125,-0.02392578125,0.005889892578125
1761341800179563000,2.36956298828125,-1.0067138671875,-0.0233001708984375,0.0057373046875
1761341800189629200,2.379629150390625,-1.006561279296875,-0.023162841796875,0.0062713623046875
1761341800199696100,2.389696044921875,-1.006988525390625,-0.0230560302734375,0.0063629150390625
1761341800209762000,2.399761962890625,-1.0063018798828125,-0.0234527587890625,0.0054779052734375
1761341800219828200,2.409828125,-1.0063018798828125,-0.02294921875,0.00604248046875
1761341800229894100,2.41989404296875,-1.00689697265625,-0.0231170654296875,0.0066375732421875
1761341800239961000,2.429961181640625,-1.006500244140625,-0.0226287841796875,0.0063629150390625
1761341800250027300,2.44002734375,-1.0067596435546875,-0.0230255126953125,0.005279541015625
1761341800260093200,2.45009326171875,-1.00689697265625,-0.02294921875,0.0061798095703125
1761341800270159000,2.4601591796875,-1.006622314453125,-0.023406982421875,0.0063323974609375
1761341800280225000,2.47022509765625,-1.0068511962890625,-0.0234527587890625,0.0059661865234375
1761341800290292000,2.4802919921875,-1.00689697265625,-0.023773193359375,0.0071563720703125
1761341800300358100,2.490358154296875,-1.0066986083984375,-0.023193359375,0.0054473876953125
1761341800310424000,2.500424072265625,-1.007110595703125,-0.022735595703125,0.006256103515625
1761341800320490200,2.510490234375,-1.007110595703125,-0.023101806640625,0.0070648193359375
1761341800330557200,2.52055712890625,-1.0065460205078125,-0.02325439453125,0.0066680908203125
1761341800340623000,2.530623046875,-1.0062103271484375,-0.0230560302734375,0.006103515625
1761341800350689300,2.540689208984375,-1.0068206787109375,-0.022796630859375,0.005950927734375
1761341800360755200,2.550755126953125,-1.0065155029296875,-0.023162841796875,0.00640869140625
1761341800370822100,2.560822265625,-1.00653076171875,-0.023834228515625,0.0048065185546875
1761341800380888300,2.570888427734375,-1.00750732421875,-0.02301025390625,0.0057220458984375
1761341800390954000,2.5809541015625,-1.006195068359375,-0.0233154296875,0.0056304931640625
1761341800401020200,2.591020263671875,-1.005889892578125,-0.0236053466796875,0.006866455078125
1761341800411087000,2.601087158203125,-1.00665283203125,-0.023101806640625,0.006439208984375
1761341800421153000,2.611153076171875,-1.0067901611328125,-0.02386474609375,0.0054473876953125
1761341800431219200,2.62121923828125,-1.0068511962890625,-0.0237274169921875,0.006134033203125
1761341800441285000,2.63128515625,-1.007049560546875,-0.0233612060546875,0.00701904296875
1761341800451351000,2.64135107421875,-1.006591796875,-0.022613525390625,0.006439208984375
1761341800461418200,2.651418212890625,-1.00567626953125,-0.022552490234375,0.0064697265625
1761341800471484200,2.661484130859375,-1.0070343017578125,-0.0233001708984375,0.006195068359375
1761341800481550300,2.67155029296875,-1.006591796875,-0.0236053466796875,0.00634765625
1761341800491616000,2.681615966796875,-1.007080078125,-0.023529052734375,0.006561279296875
1761341800501683200,2.69168310546875,-1.0073394775390625,-0.023834228515625,0.0063018798828125
1761341800511749000,2.7017490234375,-1.0068359375,-0.02337646484375,0.00634765625
1761341800521815000,2.71181494140625,-1.007049560546875,-0.0232696533203125,0.0056304931640625
1761341800531881200,2.721881103515625,-1.0057220458984375,-0.0231475830078125,0.0054931640625
1761341800541947100,2.731947021484375,-1.006439208984375,-0.023101806640625,0.006683349609375
1761341800552014000,2.74201416015625,-1.00616455078125,-0.0230712890625,0.0063018798828125
1761341800562080300,2.752080322265625,-1.007080078125,-0.0228729248046875,0.0065155029296875
1761341800572146200,2.762146240234375,-1.007293701171875,-0.023956298828125,0.0057830810546875
1761341800582212000,2.772212158203125,-1.0068511962890625,-0.0236053466796875,0.0061187744140625
1761341800592279300,2.782279296875,-1.0070037841796875,-0.024200439453125,0.0064239501953125
1761341800602345200,2.79234521484375,-1.0073089599609375,-0.0230712890625,0.0059814453125
1761341800612411100,2.8024111328125,-1.00665283203125,-0.0234832763671875,0.0060577392578125
1761341800622477000,2.81247705078125,-1.00653076171875,-0.02301025390625,0.005859375
1761341800632544000,2.8225439453125,-1.0068511962890625,-0.023590087890625,0.0068817138671875
1761341800642610200,2.832610107421875,-1.0060272216796875,-0.023468017578125,0.00592041015625
1761341800652676000,2.842676025390625,-1.0066986083984375,-0.0234527587890625,0.005645751953125
1761341800662742000,2.852741943359375,-1.00653076171875,-0.0240020751953125,0.00604248046875
1761341800672809200,2.862809326171875,-1.0068206787109375,-0.0237884521484375,0.006591796875
1761341800682875100,2.872875244140625,-1.0062408447265625,-0.0229644775390625,0.0063629150390625
1761341800692941300,2.88294140625,-1.0058441162109375,-0.023193359375,0.0059356689453125
1761341800703007200,2.89300732421875,-1.0072174072265625,-0.0234832763671875,0.005828857421875
1761341800713073000,2.903072998046875,-1.0068359375,-0.0233306884765625,0.0057220458984375
1761341800723140400,2.913140380859375,-1.0070037841796875,-0.0233154296875,0.0059051513671875
1761341800733206500,2.92320654296875,-1.00616455078125,-0.0232391357421875,0.0062713623046875
1761341800743272400,2.9332724609375,-1.0066070556640625,-0.0234527587890625,0.0059356689453125
1761341800753338400,2.94333837890625,-1.0068359375,-0.0232391357421875,0.005645751953125
1761341800763405600,2.953405517578125,-1.0066986083984375,-0.0235748291015625,0.006622314453125
1761341800773471200,2.96347119140625,-1.00738525390625,-0.023468017578125,0.0062103271484375
1761341800783537400,2.973537353515625,-1.0069580078125,-0.022918701171875,0.0057373046875
1761341800793603300,2.983603271484375,-1.0069122314453125,-0.0235595703125,0.0063018798828125
1761341800803669500,2.99366943359375,-1.006011962890625,-0.0230255126953125,0.006256103515625
1761341800813736400,3.003736328125,-1.0059814453125,-0.023529052734375,0.0067596435546875
1761341800823802400,3.01380224609375,-1.007080078125,-0.0227508544921875,0.00537109375
1761341800833868500,3.02386865234375,-1.00653076171875,-0.0229339599609375,0.005615234375
1761341800843934500,3.0339345703125,-1.0063018798828125,-0.0236358642578125,0.00592041015625
1761341800854001400,3.04400146484375,-1.00701904296875,-0.0235137939453125,0.0067138671875
1761341800864067600,3.054067626953125,-1.0074462890625,-0.0236053466796875,0.0059967041015625
1761341800874133200,3.06413330078125,-1.007354736328125,-0.023284912109375,0.0062408447265625
1761341800884199400,3.074199462890625,-1.006103515625,-0.0240936279296875,0.0062255859375
1761341800894266400,3.084266357421875,-1.00714111328125,-0.0234222412109375,0.0063629150390625
1761341800904332300,3.094332275390625,-1.0066070556640625,-0.0229339599609375,0.0067291259765625
1761341800914398500,3.1043984375,-1.0072174072265625,-0.0232696533203125,0.0052947998046875
1761341800924464400,3.11446435546875,-1.0069122314453125,-0.0241546630859375,0.0057830810546875
1761341800934530600,3.124530517578125,-1.0072174072265625,-0.02325439453125,0.00604248046875
1761341800944597500,3.134597412109375,-1.006866455078125,-0.0230255126953125,0.006988525390625
1761341800954663400,3.144663330078125,-1.0063934326171875,-0.0232086181640625,0.0058746337890625
1761341800964729600,3.1547294921875,-1.00738525390625,-0.023101806640625,0.0062255859375
1761341800974795300,3.164795166015625,-1.0067138671875,-0.023223876953125,0.0057525634765625
1761341800984862500,3.174862548828125,-1.0066680908203125,-0.02374267578125,0.0056610107421875
1761341800994928400,3.184928466796875,-1.006866455078125,-0.023712158203125,0.00653076171875
1761341801004994300,3.194994384765625,-1.0074615478515625,-0.023895263671875,0.0063323974609375
1761341801015060500,3.205060546875,-1.0070037841796875,-0.02337646484375,0.006072998046875
1761341801025127400,3.21512744140625,-1.0067291259765625,-0.023406982421875,0.00616455078125
1761341801035193300,3.225193359375,-1.0057830810546875,-0.0230865478515625,0.0059814453125
1761341801045259500,3.235259521484375,-1.0062408447265625,-0.0236053466796875,0.006378173828125
1761341801055325400,3.245325439453125,-1.0071868896484375,-0.0233917236328125,0.0052947998046875
1761341801065391600,3.2553916015625,-1.0069122314453125,-0.02337646484375,0.006195068359375
1761341801075458600,3.26545849609375,-1.0069580078125,-0.0237884521484375,0.0057220458984375
1761341801085524500,3.2755244140625,-1.0069580078125,-0.0235137939453125,0.00604248046875
1761341801095590400,3.28559033203125,-1.006591796875,-0.0236968994140625,0.006439208984375
1761341801105656300,3.29565625,-1.0069427490234375,-0.0235595703125,0.0055084228515625
1761341801115723300,3.30572314453125,-1.0065155029296875,-0.0240631103515625,0.00579833984375
1761341801125789400,3.31578955078125,-1.0073394775390625,-0.02362060546875,0.005767822265625
1761341801135855400,3.32585546875,-1.0061492919921875,-0.0226593017578125,0.0056915283203125
1761341801145921500,3.335921630859375,-1.0066070556640625,-0.0232391357421875,0.005523681640625
1761341801155988500,3.345988525390625,-1.007781982421875,-0.0230560302734375,0.0056915283203125
1761341801166054400,3.356054443359375,-1.0067901611328125,-0.0229339599609375,0.0055084228515625
1761341801176120600,3.36612060546875,-1.007080078125,-0.02301025390625,0.006103515625
1761341801186186500,3.3761865234375,-1.0064849853515625,-0.0235137939453125,0.005584716796875
1761341801196252400,3.38625244140625,-1.0067291259765625,-0.0230865478515625,0.0055084228515625
1761341801206319400,3.3963193359375,-1.0058441162109375,-0.0242919921875,0.005950927734375
1761341801216385300,3.40638525390625,-1.005859375,-0.0239715576171875,0.0062713623046875
1761341801226451500,3.416451416015625,-1.00732421875,-0.0230560302734375,0.0070648193359375
1761341801236517400,3.426517333984375,-1.007080078125,-0.0235137939453125,0.0052642822265625
1761341801246584300,3.436584228515625,-1.006378173828125,-0.0233154296875,0.0054779052734375
1761341801256650500,3.446650390625,-1.00677490234375,-0.022857666015625,0.0062103271484375
1761341801266716400,3.45671630859375,-1.00738525390625,-0.0227203369140625,0.0055694580078125
1761341801276782600,3.466782470703125,-1.0069580078125,-0.0233001708984375,0.0057830810546875
1761341801286849500,3.476849609375,-1.0065765380859375,-0.0235137939453125,0.005523681640625
1761341801296915500,3.48691552734375,-1.005859375,-0.023681640625,0.0057830810546875
1761341801306981600,3.496981689453125,-1.0070343017578125,-0.0231781005859375,0.0058441162109375
1761341801317047300,3.50704736328125,-1.007476806640625,-0.0232696533203125,0.0065155029296875
1761341801327113500,3.517113525390625,-1.0067291259765625,-0.023834228515625,0.0064697265625
1761341801337180400,3.527180419921875,-1.006927490234375,-0.0232391357421875,0.0072174072265625
1761341801347246300,3.537246337890625,-1.006622314453125,-0.02337646484375,0.006866455078125
1761341801357312500,3.5473125,-1.0068817138671875,-0.0236053466796875,0.0063018798828125
1761341801367378400,3.55737841796875,-1.006805419921875,-0.0238037109375,0.006195068359375
1761341801377445400,3.5674453125,-1.0064544677734375,-0.02374267578125,0.0064544677734375
1761341801387511600,3.577511474609375,-1.0064697265625,-0.023895263671875,0.0070648193359375
1761341801397577500,3.587577392578125,-1.00701904296875,-0.023345947265625,0.00634765625
1761341801407643600,3.5976435546875,-1.005340576171875,-0.0236358642578125,0.0061187744140625
1761341801417710600,3.607710693359375,-1.006622314453125,-0.0234832763671875,0.00604248046875
1761341801427776300,3.6177763671875,-1.0076751708984375,-0.022796630859375,0.005859375
1761341801437842400,3.627842529296875,-1.0066986083984375,-0.0228118896484375,0.0064544677734375
1761341801447908400,3.637908447265625,-1.0064697265625,-0.023712158203125,0.00592041015625
1761341801457974500,3.647974609375,-1.005645751953125,-0.0233917236328125,0.006378173828125
1761341801468041500,3.65804150390625,-1.007049560546875,-0.022796630859375,0.0057830810546875
1761341801478107400,3.668107421875,-1.0073699951171875,-0.02294921875,0.0059356689453125
1761341801488173600,3.678173583984375,-1.007843017578125,-0.0233154296875,0.0064239501953125
1761341801498239500,3.688239501953125,-1.0073394775390625,-0.023651123046875,0.00579833984375
1761341801508306400,3.698306396484375,-1.00738525390625,-0.0236968994140625,0.0057830810546875
1761341801518372600,3.70837255859375,-1.0065460205078125,-0.023193359375,0.0060882568359375
1761341801528438500,3.7184384765625,-1.0065155029296875,-0.0231475830078125,0.00543212890625
1761341801538504400,3.72850439453125,-1.0069732666015625,-0.02325439453125,0.00616455078125
1761341801548571400,3.7385712890625,-1.0056915283203125,-0.0233612060546875,0.0065155029296875
1761341801558637300,3.74863720703125,-1.0061492919921875,-0.023345947265625,0.00665283203125
1761341801568703500,3.758703369140625,-1.0053558349609375,-0.0228729248046875,0.005950927734375
1761341801578769400,3.768769287109375,-1.0062408447265625,-0.022979736328125,0.006622314453125
1761341801588835600,3.778835693359375,-1.0072021484375,-0.023681640625,0.0064697265625
1761341801598902500,3.788902587890625,-1.006378173828125,-0.0236968994140625,0.0059814453125
1761341801608968400,3.798968505859375,-1.0059661865234375,-0.0228271484375,0.0063018798828125
1761341801619034600,3.80903466796875,-1.00616455078125,-0.022918701171875,0.0050811767578125
1761341801629100500,3.8191005859375,-1.0062255859375,-0.023193359375,0.0057525634765625
1761341801639167500,3.82916748046875,-1.006195068359375,-0.0232696533203125,0.00701904296875
1761341801649233400,3.8392333984375,-1.0059967041015625,-0.0235748291015625,0.0057373046875
1761341801659299300,3.84929931640625,-1.00677490234375,-0.02325439453125,0.0061798095703125
1761341801669365500,3.859365478515625,-1.0070648193359375,-0.023162841796875,0.0065155029296875
1761341801679432400,3.869432373046875,-1.00726318359375,-0.0241241455078125,0.005706787109375
1761341801689498400,3.879498291015625,-1.00628662109375,-0.02301025390625,0.006072998046875
1761341801699564500,3.889564453125,-1.0066375732421875,-0.022979736328125,0.0062713623046875
1761341801709630500,3.89963037109375,-1.0060577392578125,-0.0233612060546875,0.006561279296875
1761341801719696600,3.909696533203125,-1.00628662109375,-0.0230712890625,0.0065765380859375
1761341801729763800,3.919763916015625,-1.0073089599609375,-0.023468017578125,0.006103515625
1761341801739829800,3.929829833984375,-1.0060272216796875,-0.0238494873046875,0.00592041015625
1761341801749896000,3.93989599609375,-1.005523681640625,-0.0229034423828125,0.0059814453125
1761341801759961600,3.949961669921875,-1.0069427490234375,-0.0222320556640625,0.00640869140625
1761341801770028500,3.960028564453125,-1.006500244140625,-0.0235748291015625,0.0061798095703125
1761341801780094700,3.9700947265625,-1.0068511962890625,-0.0241851806640625,0.005584716796875
1761341801790160600,3.98016064453125,-1.00628662109375,-0.023223876953125,0.0063629150390625
1761341801800226800,3.990226806640625,-1.0061187744140625,-0.0229644775390625,0.0058441162109375
1761341801810292700,4.000292724609375,-1.00677490234375,-0.0237884521484375,0.00604248046875
1761341801820358700,4.010358642578125,-1.0066986083984375,-0.0236663818359375,0.006439208984375
1761341801830424800,4.0204248046875,-1.0063629150390625,-0.0240325927734375,0.00555419921875
1761341801840490800,4.03049072265625,-1.0067138671875,-0.0234527587890625,0.0066680908203125
1761341801850557700,4.0405576171875,-1.0071258544921875,-0.02423095703125,0.0057373046875
1761341801860623600,4.05062353515625,-1.0061798095703125,-0.023223876953125,0.0054168701171875
1761341801870689500,4.060689453125,-1.00640869140625,-0.0232391357421875,0.00640869140625
1761341801880755700,4.070755615234375,-1.0066070556640625,-0.024139404296875,0.0064544677734375
1761341801890821600,4.080821533203125,-1.00762939453125,-0.0234527587890625,0.0059967041015625
1761341801900888600,4.090888671875,-1.0067138671875,-0.0236358642578125,0.0062103271484375
1761341801910954800,4.100954833984375,-1.005523681640625,-0.024444580078125,0.0063323974609375
1761341801921020700,4.111020751953125,-1.0068511962890625,-0.0242919921875,0.006683349609375
1761341801931086800,4.1210869140625,-1.0063934326171875,-0.023651123046875,0.0060577392578125
1761341801941153800,4.13115380859375,-1.0065460205078125,-0.0235137939453125,0.00634765625
1761341801951219700,4.1412197265625,-1.0073089599609375,-0.0236968994140625,0.0067901611328125
1761341801961285600,4.15128564453125,-1.0057373046875,-0.02398681640625,0.0063629150390625
1761341801971351600,4.1613515625,-1.0064849853515625,-0.02325439453125,0.005615234375
1761341801981417700,4.171417724609375,-1.0066680908203125,-0.0237274169921875,0.0059661865234375
1761341801991484700,4.181484619140625,-1.007080078125,-0.0232391357421875,0.0061492919921875
1761341802001550600,4.191550537109375,-1.006561279296875,-0.0236663818359375,0.0055084228515625
1761341802011616800,4.20161669921875,-1.0064849853515625,-0.0227203369140625,0.00634765625
1761341802021682700,4.2116826171875,-1.0074920654296875,-0.0235748291015625,0.0058135986328125
1761341802031749600,4.22174951171875,-1.0075531005859375,-0.0233612060546875,0.006195068359375
1761341802041815800,4.23181591796875,-1.007293701171875,-0.023406982421875,0.006256103515625
1761341802051881700,4.2418818359375,-1.0064544677734375,-0.0229339599609375,0.0054473876953125
1761341802061947600,4.25194775390625,-1.006744384765625,-0.0230865478515625,0.005828857421875
1761341802072014800,4.262014892578125,-1.0066680908203125,-0.023162841796875,0.0058135986328125
1761341802082080500,4.27208056640625,-1.0057525634765625,-0.0237884521484375,0.0058441162109375
1761341802092146700,4.282146728515625,-1.0058746337890625,-0.023193359375,0.00628662109375
1761341802102212600,4.292212646484375,-1.0069427490234375,-0.0232391357421875,0.00604248046875
1761341802112278800,4.30227880859375,-1.0062255859375,-0.023345947265625,0.005859375
1761341802122345700,4.312345703125,-1.0064697265625,-0.0228118896484375,0.0057373046875
1761341802132411600,4.32241162109375,-1.0071563720703125,-0.023101806640625,0.00640869140625
1761341802142477800,4.332477783203125,-1.0063629150390625,-0.0232696533203125,0.006561279296875
1761341802152543700,4.342543701171875,-1.0053558349609375,-0.023681640625,0.005828857421875
1761341802162610700,4.352610595703125,-1.00653076171875,-0.0228271484375,0.0059356689453125
1761341802172676900,4.3626767578125,-1.005340576171875,-0.023162841796875,0.00634765625
1761341802182742500,4.372742431640625,-1.0061798095703125,-0.0235595703125,0.0058441162109375
1761341802192808700,4.38280859375,-1.0067901611328125,-0.023590087890625,0.005615234375
1761341802202875600,4.392875732421875,-1.006683349609375,-0.02349853515625,0.005859375
1761341802212941600,4.402941650390625,-1.006500244140625,-0.0241546630859375,0.0061187744140625
1761341802223007700,4.4130078125,-1.0067901611328125,-0.0243072509765625,0.0056915283203125
1761341802233073700,4.42307373046875,-1.0070953369140625,-0.023406982421875,0.0058135986328125
1761341802243139800,4.433139892578125,-1.006317138671875,-0.0232696533203125,0.006805419921875
1761341802253206800,4.443206787109375,-1.0074615478515625,-0.023223876953125,0.0062408447265625
1761341802263272700,4.453272705078125,-1.00665283203125,-0.0238189697265625,0.0064849853515625
1761341802273339000,4.4633388671875,-1.006805419921875,-0.0234527587890625,0.00628662109375
1761341802283404500,4.473404541015625,-1.006866455078125,-0.0233306884765625,0.0061798095703125
1761341802293471700,4.4834716796875,-1.0068511962890625,-0.02325439453125,0.0063018798828125
1761341802303537700,4.49353759765625,-1.006561279296875,-0.0227813720703125,0.006591796875
1761341802313603600,4.503603515625,-1.006256103515625,-0.0230255126953125,0.0057830810546875
1761341802323669800,4.513669677734375,-1.0057830810546875,-0.0235595703125,0.0058441162109375
1761341802333735700,4.523735595703125,-1.00677490234375,-0.0228729248046875,0.0060272216796875
1761341802343802600,4.533802734375,-1.00653076171875,-0.0230865478515625,0.0053863525390625
1761341802353868800,4.543868896484375,-1.0063629150390625,-0.0233306884765625,0.0057525634765625
1761341802363934700,4.553934814453125,-1.007293701171875,-0.0240478515625,0.005706787109375
1761341802374001000,4.5640009765625,-1.0075531005859375,-0.0236663818359375,0.006805419921875
1761341802384067800,4.57406787109375,-1.006439208984375,-0.023529052734375,0.00640869140625
1761341802394133800,4.5841337890625,-1.0063629150390625,-0.023529052734375,0.0069122314453125
1761341802404199700,4.59419970703125,-1.005767822265625,-0.0235595703125,0.0067596435546875
1761341802414265600,4.604265625,-1.0066375732421875,-0.0230560302734375,0.00592041015625
1761341802424332500,4.61433251953125,-1.0061798095703125,-0.0225830078125,0.0063323974609375
1761341802434398700,4.624398681640625,-1.0065155029296875,-0.0226287841796875,0.00616455078125
1761341802444464600,4.634464599609375,-1.0072479248046875,-0.0228424072265625,0.0057373046875
1761341802454530800,4.64453076171875,-1.0069580078125,-0.022491455078125,0.0062103271484375
1761341802464596700,4.6545966796875,-1.0070648193359375,-0.0232391357421875,0.006622314453125
1761341802474663700,4.66466357421875,-1.0065765380859375,-0.022735595703125,0.0063323974609375
1761341802484729900,4.674729736328125,-1.0064239501953125,-0.0234832763671875,0.0062103271484375
1761341802494795800,4.684795654296875,-1.0056304931640625,-0.023223876953125,0.0060577392578125
1761341802504861700,4.69486181640625,-1.0061187744140625,-0.02337646484375,0.0067901611328125
1761341802514929000,4.704928955078125,-1.0065460205078125,-0.023590087890625,0.00628662109375
1761341802524994600,4.71499462890625,-1.0070343017578125,-0.0239410400390625,0.0061187744140625
1761341802535060700,4.725060791015625,-1.007110595703125,-0.0232086181640625,0.006317138671875
1761341802545126700,4.735126708984375,-1.006805419921875,-0.0232696533203125,0.0062713623046875
1761341802555193600,4.745193603515625,-1.0072784423828125,-0.02392578125,0.00634765625
1761341802565259800,4.755259765625,-1.006622314453125,-0.023681640625,0.006500244140625
1761341802575325700,4.76532568359375,-1.006866455078125,-0.0227813720703125,0.0064544677734375
1761341802585391900,4.775391845703125,-1.0073394775390625,-0.0238800048828125,0.0063629150390625
1761341802595457800,4.785457763671875,-1.00714111328125,-0.0234375,0.0057220458984375
1761341802605524700,4.795524658203125,-1.0066070556640625,-0.023040771484375,0.0060272216796875
1761341802615591000,4.8055908203125,-1.006744384765625,-0.0236968994140625,0.0070648193359375
1761341802625656600,4.815656494140625,-1.0062408447265625,-0.0235137939453125,0.006103515625
1761341802635722800,4.82572265625,-1.005615234375,-0.023895263671875,0.005859375
1761341802645789700,4.835789794921875,-1.006866455078125,-0.02392578125,0.005706787109375
1761341802655855600,4.845855712890625,-1.006927490234375,-0.02349853515625,0.00531005859375
1761341802665921800,4.855921875,-1.00537109375,-0.0232696533203125,0.0056304931640625
1761341802675987700,4.86598779296875,-1.006622314453125,-0.022613525390625,0.006500244140625
1761341802686053600,4.8760537109375,-1.0069122314453125,-0.022918701171875,0.0060272216796875
1761341802696120800,4.886120849609375,-1.0070037841796875,-0.0231170654296875,0.00634765625
1761341802706186800,4.896186767578125,-1.0068359375,-0.0222015380859375,0.0067901611328125
1761341802716253000,4.9062529296875,-1.0069732666015625,-0.0229644775390625,0.00592041015625
1761341802726318600,4.916318603515625,-1.00653076171875,-0.02362060546875,0.0067901611328125
1761341802736385500,4.926385498046875,-1.007049560546875,-0.02423095703125,0.006683349609375
1761341802746451700,4.93645166015625,-1.0072784423828125,-0.023284912109375,0.0060577392578125
1761341802756517600,4.946517578125,-1.006683349609375,-0.0229644775390625,0.00628662109375
1761341802766583800,4.956583740234375,-1.0067291259765625,-0.023712158203125,0.0056304931640625
1761341802776650800,4.966650634765625,-1.0066375732421875,-0.0238800048828125,0.004913330078125
1761341802786716700,4.976716552734375,-1.0060577392578125,-0.0236358642578125,0.006317138671875
1761341802796782800,4.986782958984375,-1.007080078125,-0.023406982421875,0.0063018798828125
1761341802806848800,4.996848876953125,-1.006683349609375,-0.02325439453125,0.0059356689453125
1761341802816914700,5.006914794921875,-1.006195068359375,-0.02398681640625,0.0063629150390625
1761341802826982000,5.01698193359375,-1.0061492919921875,-0.02386474609375,0.0062255859375
1761341802837047800,5.0270478515625,-1.0064239501953125,-0.0234375,0.006256103515625
1761341802847113700,5.03711376953125,-1.0073699951171875,-0.023529052734375,0.005706787109375
1761341802857179600,5.0471796875,-1.00665283203125,-0.02362060546875,0.0056610107421875
1761341802867246600,5.05724658203125,-1.00689697265625,-0.0231475830078125,0.0058746337890625
1761341802877312800,5.067312744140625,-1.0068359375,-0.024688720703125,0.005889892578125
1761341802887378700,5.077378662109375,-1.0069122314453125,-0.022918701171875,0.0060882568359375
1761341802897444600,5.087444580078125,-1.006439208984375,-0.0238189697265625,0.0062103271484375
1761341802907511800,5.09751171875,-1.006103515625,-0.0234222412109375,0.0061492919921875
1761341802917577700,5.10757763671875,-1.0064544677734375,-0.02325439453125,0.0070953369140625
1761341802927643600,5.1176435546875,-1.0074462890625,-0.023529052734375,0.006134033203125
1761341802937709800,5.127709716796875,-1.007781982421875,-0.023773193359375,0.00579833984375
1761341802947775500,5.137775390625,-1.0055084228515625,-0.0238494873046875,0.0068511962890625
1761341802957842700,5.1478427734375,-1.006927490234375,-0.0228118896484375,0.0065460205078125
1761341802967908600,5.15790869140625,-1.007293701171875,-0.0232696533203125,0.005950927734375
1761341802977974500,5.167974609375,-1.0072784423828125,-0.0234527587890625,0.0062408447265625
1761341802988040700,5.178040771484375,-1.0059967041015625,-0.0229949951171875,0.006439208984375
1761341802998107600,5.188107666015625,-1.0071258544921875,-0.023345947265625,0.0055694580078125
1761341803008173800,5.198173828125,-1.0074310302734375,-0.0230712890625,0.0059814453125
1761341803018239700,5.20823974609375,-1.0066375732421875,-0.023406982421875,0.0054473876953125
1761341803028305700,5.2183056640625,-1.0060272216796875,-0.0229034423828125,0.00579833984375
1761341803038371800,5.228371826171875,-1.006378173828125,-0.0234375,0.0057373046875
1761341803048438800,5.238438720703125,-1.0062408447265625,-0.0233306884765625,0.00537109375
1761341803058504700,5.248504638671875,-1.0066070556640625,-0.0237274169921875,0.0062408447265625
1761341803068570600,5.258570556640625,-1.0064849853515625,-0.023956298828125,0.0055389404296875
1761341803078636500,5.268636474609375,-1.006103515625,-0.0234375,0.005645751953125
1761341803088703700,5.278703857421875,-1.0069732666015625,-0.0233612060546875,0.0062713623046875
1761341803098769700,5.288769775390625,-1.006683349609375,-0.023345947265625,0.00665283203125
1761341803108835600,5.298835693359375,-1.0072021484375,-0.0219879150390625,0.0058746337890625
1761341803118901800,5.30890185546875,-1.0068817138671875,-0.023040771484375,0.005340576171875
1761341803128968700,5.31896875,-1.006622314453125,-0.02325439453125,0.0054779052734375
1761341803139034600,5.32903466796875,-1.0070648193359375,-0.02337646484375,0.00616455078125
1761341803149100800,5.339100830078125,-1.00592041015625,-0.023284912109375,0.0057220458984375
1761341803159166700,5.349166748046875,-1.0059967041015625,-0.024078369140625,0.0064849853515625
1761341803169232600,5.359232666015625,-1.0074310302734375,-0.0236358642578125,0.006378173828125
1761341803179299600,5.369299560546875,-1.006805419921875,-0.02349853515625,0.0058135986328125
1761341803189365500,5.379365478515625,-1.00726318359375,-0.023956298828125,0.005889892578125
1761341803199431700,5.389431640625,-1.0065765380859375,-0.0241546630859375,0.00653076171875
1761341803209497600,5.39949755859375,-1.0062103271484375,-0.0235443115234375,0.00616455078125
1761341803219564800,5.409564697265625,-1.0064544677734375,-0.024017333984375,0.0059051513671875
1761341803229630700,5.419630615234375,-1.0076446533203125,-0.0230712890625,0.0053558349609375
1761341803239696600,5.429696533203125,-1.006317138671875,-0.023406982421875,0.0064239501953125
1761341803249762800,5.4397626953125,-1.006195068359375,-0.023468017578125,0.0057830810546875
1761341803259828700,5.449828857421875,-1.006103515625,-0.0236358642578125,0.005859375
1761341803269895700,5.459895751953125,-1.0072021484375,-0.0231170654296875,0.0059967041015625
1761341803279961600,5.469961669921875,-1.0079803466796875,-0.0233306884765625,0.006378173828125
1761341803290027500,5.480027587890625,-1.006866455078125,-0.023468017578125,0.005615234375
1761341803300093700,5.49009375,-1.0060882568359375,-0.0234527587890625,0.0059814453125
1761341803310160600,5.50016064453125,-1.0065155029296875,-0.0236968994140625,0.00689697265625
1761341803320226600,5.5102265625,-1.007232666015625,-0.0239715576171875,0.0060577392578125
1761341803330292700,5.520292724609375,-1.0057830810546875,-0.023529052734375,0.005889892578125
1761341803340358700,5.530358642578125,-1.00628662109375,-0.023712158203125,0.006744384765625
1761341803350424800,5.5404248046875,-1.006988525390625,-0.024139404296875,0.00665283203125
1761341803360491800,5.55049169921875,-1.0063323974609375,-0.02337646484375,0.006500244140625
1761341803370557700,5.5605576171875,-1.00604248046875,-0.0233917236328125,0.006439208984375
1761341803380624000,5.570623779296875,-1.0069122314453125,-0.023773193359375,0.0058746337890625
1761341803390689500,5.580689453125,-1.00689697265625,-0.023712158203125,0.005828857421875
1761341803400756500,5.590756591796875,-1.00634765625,-0.023712158203125,0.0060577392578125
1761341803410822700,5.60082275390625,-1.0057220458984375,-0.022613525390625,0.0062255859375
1761341803420888600,5.610888671875,-1.006317138671875,-0.023468017578125,0.006256103515625
1761341803430954800,5.620954833984375,-1.0060882568359375,-0.023590087890625,0.005950927734375
1761341803441021700,5.631021728515625,-1.00616455078125,-0.0238037109375,0.0062408447265625
1761341803451087600,5.641087646484375,-1.006622314453125,-0.0230865478515625,0.006805419921875
1761341803461153800,5.65115380859375,-1.0069732666015625,-0.0235748291015625,0.00634765625
1761341803471219700,5.6612197265625,-1.0069732666015625,-0.023529052734375,0.0062713623046875
1761341803481286000,5.671285888671875,-1.00714111328125,-0.022552490234375,0.0061492919921875
1761341803491352800,5.681352783203125,-1.0077667236328125,-0.0233917236328125,0.00628662109375
1761341803501418500,5.69141845703125,-1.0066986083984375,-0.0229644775390625,0.006195068359375
1761341803511484700,5.701484619140625,-1.0063934326171875,-0.0234375,0.0063018798828125
1761341803521550600,5.711550537109375,-1.006622314453125,-0.0228424072265625,0.0063018798828125
1761341803531617500,5.721617431640625,-1.00732421875,-0.0230255126953125,0.00592041015625
1761341803541683700,5.73168359375,-1.0062255859375,-0.0233917236328125,0.005950927734375
1761341803551749600,5.74174951171875,-1.00634765625,-0.023651123046875,0.005157470703125
1761341803561815800,5.75181591796875,-1.0066375732421875,-0.023468017578125,0.0054931640625
1761341803571881700,5.7618818359375,-1.0074462890625,-0.0232391357421875,0.005889892578125
1761341803581948700,5.77194873046875,-1.006378173828125,-0.0234832763671875,0.00665283203125
1761341803592014800,5.782014892578125,-1.006744384765625,-0.0228271484375,0.0060272216796875
1761341803602080500,5.79208056640625,-1.0067901611328125,-0.023590087890625,0.0062255859375
1761341803612146700,5.802146728515625,-1.0074615478515625,-0.023193359375,0.006011962890625
1761341803622213600,5.812213623046875,-1.00640869140625,-0.0237579345703125,0.0058135986328125
1761341803632279600,5.822279541015625,-1.0065460205078125,-0.0233612060546875,0.0060272216796875
1761341803642345700,5.832345703125,-1.00689697265625,-0.0237274169921875,0.006744384765625
1761341803652411600,5.84241162109375,-1.00677490234375,-0.02386474609375,0.0058441162109375
1761341803662477800,5.852477783203125,-1.006317138671875,-0.0235595703125,0.0066070556640625
1761341803672544800,5.862544677734375,-1.006744384765625,-0.0237884521484375,0.0057525634765625
1761341803682610700,5.872610595703125,-1.0064697265625,-0.023712158203125,0.00604248046875
1761341803692676900,5.8826767578125,-1.006256103515625,-0.0234832763671875,0.0058135986328125
1761341803702742800,5.89274267578125,-1.007080078125,-0.023681640625,0.006195068359375
1761341803712809700,5.902809814453125,-1.00665283203125,-0.022735595703125,0.00616455078125
1761341803722875600,5.912875732421875,-1.0066680908203125,-0.02325439453125,0.0055999755859375
1761341803732941000,5.922941162109375,-1.0069427490234375,-0.02349853515625,0.0058746337890625
1761341803743007200,5.93300732421875,-1.0064849853515625,-0.023529052734375,0.005950927734375
1761341803753073200,5.9430732421875,-1.0070343017578125,-0.023468017578125,0.005828857421875
1761341803763140000,5.95314013671875,-1.0063934326171875,-0.024078369140625,0.0059661865234375
1761341803773206300,5.963206298828125,-1.0066680908203125,-0.0231475830078125,0.005950927734375
1761341803783272200,5.973272216796875,-1.0061798095703125,-0.0230560302734375,0.006134033203125
1761341803793338400,5.98333837890625,-1.0064544677734375,-0.0229339599609375,0.005767822265625
1761341803803405300,5.9934052734375,-1.0068511962890625,-0.0241241455078125,0.0061187744140625
1761341803813471200,6.00347119140625,-1.006591796875,-0.0240478515625,0.0059051513671875
1761341803823537200,6.013537109375,-1.00689697265625,-0.0230712890625,0.005828857421875
1761341803833603000,6.02360302734375,-1.0057220458984375,-0.02362060546875,0.0069122314453125
1761341803843669200,6.033669189453125,-1.0065765380859375,-0.023468017578125,0.005767822265625
1761341803853736200,6.043736083984375,-1.007232666015625,-0.023590087890625,0.0063323974609375
1761341803863802000,6.053802001953125,-1.00640869140625,-0.023590087890625,0.006988525390625
1761341803873868300,6.063868408203125,-1.00640869140625,-0.02301025390625,0.0068511962890625
1761341803883934200,6.073934326171875,-1.007354736328125,-0.0236968994140625,0.006256103515625
1761341803894001200,6.084001220703125,-1.0059661865234375,-0.0227508544921875,0.0056610107421875
1761341803904067300,6.0940673828125,-1.0057373046875,-0.0234527587890625,0.006011962890625
1761341803914133200,6.10413330078125,-1.006103515625,-0.023529052734375,0.0059967041015625
1761341803924199200,6.11419921875,-1.00750732421875,-0.0234527587890625,0.00555419921875
1761341803934265000,6.12426513671875,-1.0075836181640625,-0.0236358642578125,0.0061187744140625
1761341803944332000,6.13433203125,-1.0062713623046875,-0.02374267578125,0.0060577392578125
1761341803954398200,6.144398193359375,-1.0068359375,-0.023681640625,0.0057830810546875
1761341803964464000,6.154464111328125,-1.006317138671875,-0.0242156982421875,0.0057525634765625
1761341803974530300,6.1645302734375,-1.0064239501953125,-0.0233154296875,0.00567626953125
1761341803984597200,6.17459716796875,-1.006683349609375,-0.0236968994140625,0.005401611328125
1761341803994663200,6.1846630859375,-1.0069580078125,-0.0231781005859375,0.0062713623046875
1761341804004729300,6.194729248046875,-1.0063323974609375,-0.0235595703125,0.0059661865234375
1761341804014795300,6.204795166015625,-1.006500244140625,-0.0230712890625,0.0056915283203125
1761341804024862200,6.2148623046875,-1.00714111328125,-0.02386474609375,0.005889892578125
1761341804034928000,6.22492822265625,-1.0069427490234375,-0.0234375,0.00634765625
1761341804044994000,6.234994140625,-1.0059967041015625,-0.023162841796875,0.0061187744140625
1761341804055060200,6.245060302734375,-1.006561279296875,-0.02374267578125,0.0050811767578125
1761341804065126100,6.255126220703125,-1.0068359375,-0.02392578125,0.005859375
1761341804075193000,6.265193115234375,-1.006561279296875,-0.0236358642578125,0.005218505859375
1761341804085259300,6.27525927734375,-1.00616455078125,-0.023712158203125,0.0062255859375
1761341804095325200,6.2853251953125,-1.0066375732421875,-0.0227508544921875,0.006256103515625
1761341804105391400,6.295391357421875,-1.0058135986328125,-0.0232696533203125,0.00592041015625
1761341804115458300,6.305458251953125,-1.005828857421875,-0.0236053466796875,0.006011962890625
1761341804125524200,6.315524169921875,-1.00726318359375,-0.0234527587890625,0.005615234375
1761341804135590400,6.32559033203125,-1.007354736328125,-0.0235595703125,0.0059356689453125
1761341804145656000,6.335656005859375,-1.006561279296875,-0.0232391357421875,0.0063323974609375
1761341804155722200,6.34572216796875,-1.007354736328125,-0.02337646484375,0.0062103271484375
1761341804165789200,6.3557890625,-1.0074920654296875,-0.0238037109375,0.0059661865234375
1761341804175855000,6.365855224609375,-1.0071868896484375,-0.0234527587890625,0.0061798095703125
1761341804185921300,6.37592138671875,-1.0069732666015625,-0.02325439453125,0.0063323974609375
1761341804195987200,6.3859873046875,-1.0067901611328125,-0.0229339599609375,0.00506591796875
1761341804206054100,6.39605419921875,-1.005584716796875,-0.023193359375,0.005950927734375
1761341804216120300,6.406120361328125,-1.00726318359375,-0.0231475830078125,0.00518798828125
1761341804226186200,6.416186279296875,-1.0067138671875,-0.02313232421875,0.005523681640625
1761341804236252400,6.42625244140625,-1.00726318359375,-0.0235748291015625,0.005584716796875
1761341804246318000,6.436318115234375,-1.0066070556640625,-0.0230712890625,0.0063629150390625
1761341804256385000,6.446385009765625,-1.0064697265625,-0.022796630859375,0.0068817138671875
1761341804266451200,6.456451171875,-1.0060882568359375,-0.0229644775390625,0.0058135986328125
1761341804276517000,6.46651708984375,-1.0062713623046875,-0.02349853515625,0.0065460205078125
1761341804286583300,6.476583251953125,-1.0062408447265625,-0.0235137939453125,0.0064697265625
1761341804296650200,6.486650146484375,-1.006683349609375,-0.0227508544921875,0.0050506591796875
1761341804306716200,6.496716064453125,-1.0063934326171875,-0.023284912109375,0.006805419921875
1761341804316782300,6.5067822265625,-1.0060577392578125,-0.022735595703125,0.0065155029296875
1761341804326848300,6.51684814453125,-1.0063629150390625,-0.0229644775390625,0.006988525390625
1761341804336914200,6.5269140625,-1.0076446533203125,-0.02276611328125,0.006011962890625
1761341804346981400,6.5369814453125,-1.0061187744140625,-0.0230865478515625,0.006500244140625
1761341804357047000,6.547047119140625,-1.0066680908203125,-0.0235595703125,0.006591796875
1761341804367113200,6.55711328125,-1.0070037841796875,-0.022979736328125,0.0068206787109375
1761341804377179100,6.56717919921875,-1.0067901611328125,-0.0238494873046875,0.0056304931640625
1761341804387246000,6.57724609375,-1.0071563720703125,-0.0232696533203125,0.00634765625
1761341804397312300,6.587312255859375,-1.007080078125,-0.0231170654296875,0.0061798095703125
1761341804407378200,6.597378173828125,-1.007110595703125,-0.023193359375,0.0066070556640625
1761341804417444400,6.6074443359375,-1.0063629150390625,-0.022979736328125,0.0057220458984375
1761341804427510300,6.61751025390625,-1.00634765625,-0.02288818359375,0.00494384765625
1761341804437577200,6.6275771484375,-1.0058746337890625,-0.023529052734375,0.0060882568359375
1761341804447643400,6.637643310546875,-1.0067138671875,-0.0234375,0.006011962890625
1761341804457709300,6.647709228515625,-1.0063629150390625,-0.0239105224609375,0.0059356689453125
1761341804467775200,6.657775146484375,-1.007843017578125,-0.0236053466796875,0.0063323974609375
1761341804477842200,6.66784228515625,-1.0067291259765625,-0.02301025390625,0.0064544677734375
1761341804487908000,6.677908203125,-1.006317138671875,-0.023590087890625,0.005584716796875
1761341804497974300,6.687974365234375,-1.0070037841796875,-0.0238189697265625,0.006866455078125
1761341804508040200,6.698040283203125,-1.006683349609375,-0.0235595703125,0.00604248046875
1761341804518106000,6.708106201171875,-1.0067596435546875,-0.0237884521484375,0.005859375
1761341804528173300,6.71817333984375,-1.00665283203125,-0.0231781005859375,0.0053863525390625
1761341804538239200,6.7282392578125,-1.0072784423828125,-0.023468017578125,0.0054931640625
1761341804548305200,6.73830517578125,-1.0074310302734375,-0.023101806640625,0.006256103515625
1761341804558371300,6.748371337890625,-1.00714111328125,-0.022735595703125,0.0057830810546875
1761341804568438300,6.758438232421875,-1.007171630859375,-0.0230560302734375,0.0048980712890625
1761341804578504200,6.768504150390625,-1.006591796875,-0.0230712890625,0.005767822265625
1761341804588570000,6.778570068359375,-1.0067596435546875,-0.02362060546875,0.00604248046875
1761341804598636000,6.788635986328125,-1.0068511962890625,-0.0232086181640625,0.00604248046875
1761341804608703200,6.798703125,-1.00677490234375,-0.0236968994140625,0.0068511962890625
1761341804618769200,6.80876904296875,-1.0072784423828125,-0.0229644775390625,0.0059356689453125
1761341804628835300,6.81883544921875,-1.0058441162109375,-0.0231170654296875,0.0060272216796875
1761341804638901200,6.8289013671875,-1.0061187744140625,-0.023895263671875,0.006195068359375
1761341804648967200,6.83896728515625,-1.0056915283203125,-0.0233154296875,0.0063018798828125
1761341804659034400,6.849034423828125,-1.0072021484375,-0.0232086181640625,0.0052490234375
1761341804669100300,6.859100341796875,-1.00677490234375,-0.0232391357421875,0.00616455078125
1761341804679166200,6.869166259765625,-1.0060272216796875,-0.023284912109375,0.00628662109375
1761341804689232100,6.879232177734375,-1.00689697265625,-0.0229339599609375,0.006103515625
1761341804699299000,6.889299072265625,-1.0055084228515625,-0.023193359375,0.006378173828125
1761341804709365200,6.899365234375,-1.0069427490234375,-0.0232391357421875,0.0057220458984375
1761341804719431200,6.90943115234375,-1.007904052734375,-0.023406982421875,0.006134033203125
1761341804729497600,6.91949755859375,-1.0067291259765625,-0.0237274169921875,0.00677490234375
1761341804739563500,6.9295634765625,-1.0068817138671875,-0.02337646484375,0.005767822265625
1761341804749630700,6.939630615234375,-1.0071868896484375,-0.023193359375,0.0064239501953125
1761341804759696400,6.9496962890625,-1.0064849853515625,-0.0239715576171875,0.00665283203125
1761341804769762600,6.959762451171875,-1.006072998046875,-0.023529052734375,0.0062713623046875
1761341804779828500,6.969828369140625,-1.006561279296875,-0.023101806640625,0.006866455078125
1761341804789895400,6.9798955078125,-1.00628662109375,-0.0237884521484375,0.0061492919921875
1761341804799961600,6.989961669921875,-1.0057525634765625,-0.0230255126953125,0.005950927734375
1761341804810027500,7.000027587890625,-1.0063018798828125,-0.0237274169921875,0.0058135986328125
1761341804820093700,7.01009375,-1.0072174072265625,-0.0234832763671875,0.006011962890625
1761341804830159600,7.02015966796875,-1.006256103515625,-0.0237884521484375,0.0065460205078125
1761341804840226600,7.0302265625,-1.005950927734375,-0.02374267578125,0.0057525634765625
1761341804850292700,7.040292724609375,-1.0061492919921875,-0.0234527587890625,0.0059661865234375
1761341804860358400,7.0503583984375,-1.0069122314453125,-0.0235443115234375,0.006103515625
1761341804870424600,7.060424560546875,-1.0062255859375,-0.023956298828125,0.0058441162109375
1761341804880491500,7.070491455078125,-1.006927490234375,-0.023162841796875,0.006072998046875
1761341804890557400,7.080557373046875,-1.0063323974609375,-0.0230865478515625,0.0057525634765625
1761341804900623600,7.09062353515625,-1.0067138671875,-0.0232086181640625,0.0059356689453125
1761341804910689500,7.100689453125,-1.0072784423828125,-0.022552490234375,0.006317138671875
1761341804920755700,7.110755615234375,-1.0055999755859375,-0.023223876953125,0.00628662109375
1761341804930822700,7.12082275390625,-1.0065155029296875,-0.02337646484375,0.00604248046875
1761341804940888600,7.130888671875,-1.0059814453125,-0.02349853515625,0.00640869140625
1761341804950954800,7.140954833984375,-1.005950927734375,-0.0240020751953125,0.0058746337890625
1761341804961020400,7.1510205078125,-1.0069580078125,-0.0227813720703125,0.0061492919921875
1761341804971087400,7.16108740234375,-1.0064697265625,-0.0236053466796875,0.0062408447265625
1761341804981153500,7.171153564453125,-1.00592041015625,-0.02386474609375,0.0067138671875
1761341804991219500,7.181219482421875,-1.0066070556640625,-0.0220489501953125,0.005462646484375
1761341805001285600,7.19128564453125,-1.006927490234375,-0.0231170654296875,0.0059661865234375
1761341805011351600,7.2013515625,-1.0068817138671875,-0.02386474609375,0.00653076171875
1761341805021418500,7.21141845703125,-1.00836181640625,-0.022979736328125,0.005859375
1761341805031484700,7.221484619140625,-1.007415771484375,-0.0231475830078125,0.0064697265625
1761341805041550600,7.231550537109375,-1.006500244140625,-0.0236358642578125,0.006744384765625
1761341805051616800,7.24161669921875,-1.005859375,-0.02301025390625,0.005950927734375
1761341805061683700,7.25168359375,-1.0072174072265625,-0.023284912109375,0.006103515625
1761341805071749600,7.26174951171875,-1.0065460205078125,-0.0238037109375,0.0062713623046875
1761341805081815600,7.271815673828125,-1.0062255859375,-0.023529052734375,0.005401611328125
1761341805091881500,7.281881591796875,-1.0061492919921875,-0.0234832763671875,0.0065155029296875
1761341805101947600,7.29194775390625,-1.0054168701171875,-0.0228729248046875,0.006317138671875
1761341805112014600,7.3020146484375,-1.0061187744140625,-0.02301025390625,0.0059814453125
1761341805122080500,7.31208056640625,-1.0066070556640625,-0.0239105224609375,0.005035400390625
1761341805132146700,7.322146728515625,-1.0065460205078125,-0.0237274169921875,0.005889892578125
1761341805142212600,7.332212646484375,-1.0067291259765625,-0.0236053466796875,0.0063934326171875
1761341805152279600,7.342279541015625,-1.006439208984375,-0.0234375,0.006195068359375
1761341805162345700,7.352345703125,-1.00665283203125,-0.0233306884765625,0.005950927734375
1761341805172411600,7.36241162109375,-1.005889892578125,-0.023895263671875,0.0062103271484375
1761341805182477600,7.3724775390625,-1.006256103515625,-0.0232696533203125,0.0062408447265625
1761341805192543500,7.38254345703125,-1.006927490234375,-0.023101806640625,0.0058746337890625
1761341805202610400,7.3926103515625,-1.00665283203125,-0.02325439453125,0.0069122314453125
1761341805212676600,7.402676513671875,-1.006195068359375,-0.02362060546875,0.0061798095703125
1761341805222742500,7.412742431640625,-1.0066680908203125,-0.02398681640625,0.006805419921875
1761341805232808700,7.42280859375,-1.0063018798828125,-0.0228118896484375,0.005859375
1761341805242875600,7.432875732421875,-1.0066070556640625,-0.02362060546875,0.005859375
1761341805252941600,7.442941650390625,-1.00714111328125,-0.022674560546875,0.0059814453125
1761341805263007700,7.4530078125,-1.0064544677734375,-0.0234832763671875,0.0053863525390625
1761341805273073700,7.46307373046875,-1.006011962890625,-0.023773193359375,0.006866455078125
1761341805283139600,7.4731396484375,-1.00665283203125,-0.023223876953125,0.006866455078125
1761341805293206800,7.483206787109375,-1.00665283203125,-0.0238494873046875,0.0054779052734375
1761341805303272400,7.4932724609375,-1.00750732421875,-0.023529052734375,0.0063323974609375
1761341805313338600,7.503338623046875,-1.00738525390625,-0.02325439453125,0.0065155029296875
1761341805323404500,7.513404541015625,-1.005859375,-0.0239105224609375,0.004669189453125
1761341805333471500,7.523471435546875,-1.0065155029296875,-0.022857666015625,0.0057373046875
1761341805343537700,7.53353759765625,-1.006439208984375,-0.0240478515625,0.006988525390625
1761341805353603600,7.543603515625,-1.006317138671875,-0.0232696533203125,0.0068511962890625
1761341805363669800,7.553669677734375,-1.0057373046875,-0.022918701171875,0.006378173828125
1761341805373735700,7.563735595703125,-1.0076446533203125,-0.02325439453125,0.0064849853515625
1761341805383802600,7.573802734375,-1.0061492919921875,-0.0232391357421875,0.005401611328125
1761341805393868800,7.583868896484375,-1.0071563720703125,-0.0240020751953125,0.006256103515625
1761341805403934500,7.5939345703125,-1.006134033203125,-0.0230255126953125,0.006500244140625
1761341805414000400,7.60400048828125,-1.006317138671875,-0.023040771484375,0.0063629150390625
1761341805424066600,7.614066650390625,-1.0064544677734375,-0.0237274169921875,0.006103515625
1761341805434133500,7.624133544921875,-1.0064239501953125,-0.02313232421875,0.006561279296875
1761341805444199700,7.63419970703125,-1.006072998046875,-0.0227203369140625,0.0060882568359375
1761341805454265600,7.644265625,-1.0074462890625,-0.022857666015625,0.0055084228515625
1761341805464331500,7.65433154296875,-1.006439208984375,-0.0238189697265625,0.0063323974609375
1761341805474398700,7.664398681640625,-1.0071258544921875,-0.0237274169921875,0.005767822265625
1761341805484464600,7.674464599609375,-1.0071563720703125,-0.022979736328125,0.006927490234375
1761341805494530600,7.684530517578125,-1.008148193359375,-0.024261474609375,0.0066986083984375
1761341805504596500,7.694596435546875,-1.007598876953125,-0.02374267578125,0.00616455078125
1761341805514663400,7.704663330078125,-1.0067291259765625,-0.022430419921875,0.0064544677734375
1761341805524729600,7.7147294921875,-1.0066070556640625,-0.02301025390625,0.0057525634765625
1761341805534795500,7.72479541015625,-1.006195068359375,-0.0237274169921875,0.0060882568359375
1761341805544861400,7.734861328125,-1.005950927734375,-0.0236053466796875,0.005828857421875
1761341805554927600,7.744927734375,-1.005615234375,-0.0232391357421875,0.00689697265625
1761341805564994600,7.75499462890625,-1.0075836181640625,-0.0234527587890625,0.0067901611328125
1761341805575060500,7.765060546875,-1.0061492919921875,-0.023590087890625,0.0065155029296875
1761341805585126700,7.775126708984375,-1.006805419921875,-0.0237274169921875,0.0059356689453125
1761341805595192600,7.785192626953125,-1.0065155029296875,-0.0234527587890625,0.006439208984375
1761341805605259800,7.795259765625,-1.00567626953125,-0.02325439453125,0.00634765625
1761341805615325700,7.80532568359375,-1.0074920654296875,-0.0233306884765625,0.006439208984375
1761341805625391400,7.815391357421875,-1.00628662109375,-0.0226898193359375,0.0068206787109375
1761341805635457500,7.82545751953125,-1.007415771484375,-0.023162841796875,0.0066375732421875
1761341805645523500,7.8355234375,-1.0059967041015625,-0.023681640625,0.0059967041015625
1761341805655590700,7.845590576171875,-1.007110595703125,-0.0237579345703125,0.0056915283203125
1761341805665656600,7.855656494140625,-1.006683349609375,-0.023345947265625,0.006195068359375
1761341805675722500,7.865722412109375,-1.00604248046875,-0.0232391357421875,0.0063018798828125
1761341805685788700,7.87578857421875,-1.0058746337890625,-0.0233306884765625,0.0057830810546875
1761341805695854600,7.8858544921875,-1.006805419921875,-0.022613525390625,0.0067596435546875
1761341805705921500,7.895921630859375,-1.007171630859375,-0.0235443115234375,0.00628662109375
1761341805715987700,7.90598779296875,-1.0075225830078125,-0.023345947265625,0.006195068359375
1761341805726053400,7.916053466796875,-1.0057830810546875,-0.0237884521484375,0.0065460205078125
1761341805736120000,7.9261201171875,-1.0070953369140625,-0.0238800048828125,0.0063629150390625
1761341805746187000,7.93618701171875,-1.0071868896484375,-0.023590087890625,0.005523681640625
1761341805756253000,7.9462529296875,-1.0072174072265625,-0.0230712890625,0.006744384765625
1761341805766319000,7.956319091796875,-1.0069427490234375,-0.0231170654296875,0.0059661865234375
1761341805776385000,7.966385009765625,-1.0062713623046875,-0.022918701171875,0.0062255859375
1761341805786452000,7.976451904296875,-1.0062255859375,-0.0235137939453125,0.0064544677734375
1761341805796518000,7.986517822265625,-1.0066680908203125,-0.022979736328125,0.0062255859375
1761341805806583800,7.996583740234375,-1.006805419921875,-0.02349853515625,0.0057220458984375
1761341805816650000,8.00664990234375,-1.006256103515625,-0.02337646484375,0.0064239501953125
1761341805826716000,8.0167158203125,-1.0063934326171875,-0.0242462158203125,0.0063934326171875
1761341805836782800,8.026782958984375,-1.0066680908203125,-0.023712158203125,0.00579833984375
1761341805846849000,8.03684912109375,-1.00640869140625,-0.0231781005859375,0.0056915283203125
1761341805856915000,8.0469150390625,-1.0062408447265625,-0.0232696533203125,0.00604248046875
1761341805866981000,8.056981201171874,-1.0078582763671875,-0.0238494873046875,0.006378173828125
1761341805877048000,8.067048095703125,-1.0070037841796875,-0.023223876953125,0.005340576171875
1761341805887114000,8.077114013671874,-1.0062103271484375,-0.023529052734375,0.0064697265625
1761341805897180000,8.087179931640625,-1.005767822265625,-0.0231781005859375,0.007080078125
1761341805907245800,8.097245849609376,-1.0063018798828125,-0.0233612060546875,0.0055084228515625
1761341805917312000,8.10731201171875,-1.0069580078125,-0.0233306884765625,0.0064544677734375
1761341805927379000,8.11737890625,-1.0057525634765625,-0.0235137939453125,0.0059661865234375
1761341805937444900,8.12744482421875,-1.0067291259765625,-0.02337646484375,0.00592041015625
1761341805947511000,8.137510986328126,-1.0071868896484375,-0.0240936279296875,0.005767822265625
1761341805957577000,8.147576904296875,-1.006072998046875,-0.02349853515625,0.00640869140625
1761341805967643100,8.15764306640625,-1.00567626953125,-0.0235748291015625,0.0060272216796875
1761341805977710000,8.1677099609375,-1.0070648193359375,-0.0236358642578125,0.00579833984375
1761341805987776000,8.17777587890625,-1.0062713623046875,-0.0238494873046875,0.0055389404296875
1761341805997842000,8.187842041015625,-1.0071258544921875,-0.02392578125,0.0060272216796875
1761341806007907800,8.197907958984375,-1.0067291259765625,-0.022796630859375,0.0056610107421875
1761341806017974800,8.207974853515625,-1.0062103271484375,-0.0239410400390625,0.006103515625
1761341806028041000,8.218041015625,-1.0058746337890625,-0.0240020751953125,0.006622314453125
1761341806038107000,8.22810693359375,-1.0067291259765625,-0.0231170654296875,0.006500244140625
1761341806048173000,8.238173095703125,-1.007232666015625,-0.022979736328125,0.00567626953125
1761341806058239000,8.248239013671874,-1.0066986083984375,-0.0233154296875,0.005615234375
1761341806068306000,8.258305908203125,-1.0069427490234375,-0.023895263671875,0.0063323974609375
1761341806078372000,8.2683720703125,-1.00640869140625,-0.0235748291015625,0.0071258544921875
1761341806088438000,8.27843798828125,-1.006927490234375,-0.022796630859375,0.0057220458984375
1761341806098504200,8.288504150390626,-1.006805419921875,-0.0236053466796875,0.00543212890625
1761341806108571100,8.298571044921875,-1.006561279296875,-0.0231781005859375,0.0067138671875
1761341806118636800,8.30863671875,-1.0064849853515625,-0.0229034423828125,0.0062713623046875
1761341806128703000,8.318702880859375,-1.0068359375,-0.023345947265625,0.00494384765625
1761341806138769000,8.328768798828126,-1.0067138671875,-0.0236968994140625,0.00604248046875
1761341806148834800,8.338834716796875,-1.0068206787109375,-0.023345947265625,0.0062255859375
1761341806158902000,8.348902099609376,-1.0069732666015625,-0.0231170654296875,0.005889892578125
1761341806168968000,8.358968017578125,-1.0059051513671875,-0.0229644775390625,0.005523681640625
1761341806179034000,8.3690341796875,-1.0059051513671875,-0.0244140625,0.0055084228515625
1761341806189100000,8.37910009765625,-1.006622314453125,-0.0236663818359375,0.006500244140625
1761341806199167000,8.3891669921875,-1.0065765380859375,-0.02313232421875,0.0068206787109375
1761341806209233200,8.399233154296875,-1.0071868896484375,-0.0233612060546875,0.006256103515625
1761341806219298800,8.409298828125,-1.007171630859375,-0.023468017578125,0.0061798095703125
1761341806229365000,8.419364990234374,-1.0060272216796875,-0.023193359375,0.0065460205078125
1761341806239431000,8.429430908203125,-1.0057373046875,-0.0239410400390625,0.0067596435546875
1761341806249497900,8.439497802734374,-1.0066986083984375,-0.023956298828125,0.006134033203125
1761341806259564000,8.44956396484375,-1.006622314453125,-0.02349853515625,0.0057220458984375
1761341806269631000,8.459630859375,-1.0061187744140625,-0.023193359375,0.0059051513671875
1761341806279697000,8.46969677734375,-1.006622314453125,-0.0228271484375,0.00634765625
1761341806289763000,8.47976318359375,-1.0059814453125,-0.02288818359375,0.00634765625
1761341806299829000,8.4898291015625,-1.007171630859375,-0.0230865478515625,0.005767822265625
1761341806309896000,8.49989599609375,-1.0073394775390625,-0.0234832763671875,0.006622314453125
1761341806319962000,8.509962158203125,-1.00775146484375,-0.0230712890625,0.006805419921875
1761341806330028000,8.520028076171876,-1.0065155029296875,-0.0227813720703125,0.0066986083984375
1761341806340094000,8.530093994140625,-1.0064697265625,-0.0230255126953125,0.0063018798828125
1761341806350160000,8.540159912109376,-1.007293701171875,-0.023223876953125,0.00616455078125
1761341806360226800,8.550226806640625,-1.006561279296875,-0.0233154296875,0.0059814453125
1761341806370293000,8.56029296875,-1.0063323974609375,-0.022796630859375,0.0056610107421875
1761341806380359000,8.57035888671875,-1.006988525390625,-0.0231781005859375,0.0053558349609375
1761341806390425000,8.580425048828126,-1.013153076171875,-0.02252197265625,0.0039520263671875
1761341806400492000,8.590491943359375,-0.999267578125,-0.0241851806640625,0.0084686279296875
1761341806410558000,8.600557861328125,-1.010589599609375,-0.0228424072265625,0.005767822265625
1761341806420624100,8.6106240234375,-1.0047607421875,-0.023529052734375,0.00665283203125
1761341806430690000,8.62068994140625,-1.005828857421875,-0.023773193359375,0.005889892578125
1761341806440756000,8.630755859375,-1.005523681640625,-0.02410888671875,0.0065460205078125
1761341806450823200,8.6408232421875,-1.0059356689453125,-0.023284912109375,0.006256103515625
1761341806460888800,8.650888916015624,-1.0065460205078125,-0.0227508544921875,0.0058746337890625
1761341806470955000,8.660955078125,-1.007354736328125,-0.0234527587890625,0.005950927734375
