time,seconds_elapsed,z,y,x
1761341797874396000,0.06439599609375,-0.0057351174764335155,0.013398629613220692,0.009925601072609425
1761341797884461800,0.0744619140625,-0.006539924535900354,0.01053599826991558,0.006292783189564943
1761341797894528800,0.08452880859375,-0.004998220596462488,0.012466256506741047,0.006530869752168655
1761341797904595000,0.094594970703125,-0.0067750816233456135,0.012338425032794476,0.005200620740652084
1761341797914660900,0.104660888671875,-0.0041705104522407055,0.011757323518395424,0.009092298336327076
1761341797924727000,0.11472705078125,-0.004679972771555185,0.01224574726074934,0.008101868443191051
1761341797934794000,0.1247939453125,-0.007133809383958578,0.012405803427100182,0.00714579364284873
1761341797944860000,0.13485986328125,-0.006972688250243664,0.013010607101023197,0.007502657361328602
1761341797954925800,0.14492578125,-0.0051777176558971405,0.015076687559485435,0.008928514085710049
1761341797964991700,0.15499169921875,-0.0058080879971385,0.010492322035133839,0.009266468696296215
1761341797975058700,0.16505859375,-0.0052016861736774445,0.014003699645400047,0.00884915143251419
1761341797985124900,0.175124755859375,-0.00589677132666111,0.014337926171720028,0.005937783978879452
1761341797995190800,0.185190673828125,-0.003865045728161931,0.01167449913918972,0.0071005201898515224
1761341798005257000,0.195257080078125,-0.006057093385607004,0.01449691690504551,0.0070400661788880825
1761341798015324000,0.205323974609375,-0.006229932885617018,0.01525778230279684,0.0049646650440990925
1761341798025389800,0.215389892578125,-0.006077333353459835,0.012261725962162018,0.007726096548140049
1761341798035456000,0.2254560546875,-0.006073072552680969,0.01290194969624281,0.0062309978529810905
1761341798045522000,0.23552197265625,-0.004534298088401556,0.014673750847578049,0.011246529407799244
1761341798055588900,0.2455888671875,-0.007577492389827967,0.01464871782809496,0.007208378054201603
1761341798065654800,0.25565478515625,-0.00720571493729949,0.014780011028051376,0.006112487055361271
1761341798075720700,0.265720703125,-0.007552724797278643,0.013426326215267181,0.0024839304387569427
1761341798085787000,0.275786865234375,-0.006873618811368942,0.013618074357509613,0.005980394314974546
1761341798095852800,0.285852783203125,-0.005146558862179518,0.009465406648814678,0.010973288677632809
1761341798105919700,0.295919677734375,-0.0057500312104821205,0.016274044290184975,0.007450459524989128
1761341798115986000,0.30598583984375,-0.0031185615807771683,0.014508634805679321,0.005176386330276728
1761341798126051800,0.3160517578125,-0.007679757662117481,0.014177870936691761,0.006611830089241266
1761341798136118000,0.326117919921875,-0.005711148958653212,0.013855627737939358,0.005086371209472418
1761341798146185000,0.33618505859375,-0.004569984506815672,0.012899819761514664,0.007653925102204084
1761341798156251000,0.3462509765625,-0.0076089175418019295,0.013562147505581379,0.00759879732504487
1761341798166316800,0.35631689453125,-0.005323925521224737,0.014253770932555199,0.004878378473222256
1761341798176382700,0.3663828125,-0.005826463922858238,0.011829495429992676,0.01116024237126112
1761341798186449700,0.37644970703125,-0.008882973343133926,0.013656956143677235,0.008537295274436474
1761341798196515800,0.386515869140625,-0.006624347064644098,0.010581271722912788,0.006998254451900721
1761341798206581800,0.396581787109375,-0.0073532541282474995,0.01353445090353489,0.005249356850981712
1761341798216648000,0.40664794921875,-0.006113019771873951,0.014620487578213215,0.007989749312400818
1761341798226715000,0.41671484375,-0.007541273254901171,0.011480887420475483,0.006786533165723085
1761341798236780800,0.42678076171875,-0.005120193585753441,0.014361361972987652,0.008293882943689823
1761341798246847000,0.436846923828125,-0.007227818947285414,0.014044179581105709,0.005883455276489258
1761341798256913000,0.446912841796875,-0.006179332733154297,0.012958142906427383,0.008200138807296753
1761341798266979800,0.456979736328125,-0.0076094502583146095,0.013919278047978878,0.0075604477897286415
1761341798277046000,0.4670458984375,-0.00812077708542347,0.014907044358551502,0.00714552728459239
1761341798287111700,0.477111572265625,-0.007439007982611656,0.013409548439085484,0.0070760189555585384
1761341798297177900,0.487177734375,-0.007430219557136297,0.013552294112741947,0.007555654272437096
1761341798307243800,0.497243896484375,-0.0065106297843158245,0.015164571814239025,0.006350839976221323
1761341798317310700,0.507310791015625,-0.007407050114125013,0.016167251393198967,0.007728493306785822
1761341798327377000,0.517376953125,-0.0070981234312057495,0.012320049107074738,0.005111405160278082
1761341798337442800,0.52744287109375,-0.005841909907758236,0.014397581107914448,0.005604622419923544
1761341798347509000,0.537509033203125,-0.005382248666137457,0.013512613251805305,0.005321261938661337
1761341798357576000,0.547575927734375,-0.007395864464342594,0.013668674044311047,0.00714552728459239
1761341798367641900,0.557641845703125,-0.0070280819199979305,0.013636982999742031,0.008377505466341972
1761341798377708000,0.5677080078125,-0.008785768412053585,0.013429522514343262,0.0062547000125050545
1761341798387773700,0.577773681640625,-0.005385976750403643,0.01393099594861269,0.007816378027200699
1761341798397841000,0.5878408203125,-0.007861118763685226,0.014020477421581745,0.005449892953038216
1761341798407906800,0.59790673828125,-0.007877630181610584,0.012513660825788975,0.006591590121388435
1761341798417972700,0.60797265625,-0.003430151380598545,0.01643223688006401,0.004719654098153114
1761341798428039000,0.618038818359375,-0.00717482203617692,0.013880128972232342,0.01013785507529974
1761341798438105900,0.62810595703125,-0.007077882997691631,0.014918495900928974,0.006165218073874712
1761341798448171800,0.638171875,-0.00515774404630065,0.012897156178951263,0.00987127237021923
1761341798458238000,0.648238037109375,-0.0062395199202001095,0.011847871355712414,0.006811034400016069
1761341798468304000,0.658303955078125,-0.006657103542238474,0.012710202485322952,0.006382798310369253
1761341798478370800,0.668370849609375,-0.003085005795583129,0.010654241777956486,0.005426457151770592
1761341798488437000,0.67843701171875,-0.007699731271713972,0.013823936693370342,0.005066663958132267
1761341798498503000,0.6885029296875,-0.00632127933204174,0.014846590347588062,0.009817210957407951
1761341798508568800,0.69856884765625,-0.008701878599822521,0.015295599587261677,0.007506385911256075
1761341798518634800,0.708634765625,-0.004984372295439243,0.015844743698835373,0.010163954459130764
1761341798528701700,0.71870166015625,-0.004853610880672932,0.012456403113901615,0.009662747383117676
1761341798538768000,0.728767822265625,-0.004537760280072689,0.014473747462034225,0.0052376389503479
1761341798548833800,0.738833740234375,-0.005396896041929722,0.01302259135991335,0.007770305033773184
1761341798558900000,0.74889990234375,-0.004697283264249563,0.01296613272279501,0.008915198035538197
1761341798568967000,0.758966796875,-0.006585997529327869,0.014432734809815884,0.00680144689977169
1761341798579032800,0.76903271484375,-0.005600627511739731,0.015393869951367378,0.009810819290578365
1761341798589099000,0.77909912109375,-0.006412625312805176,0.014021276496350765,0.009016931056976318
1761341798599165000,0.7891650390625,-0.006627276539802551,0.015542740933597088,0.009098690003156662
1761341798609232000,0.79923193359375,-0.0062975771725177765,0.013480122201144695,0.007498662453144789
1761341798619298000,0.809298095703125,-0.005819805897772312,0.015272696502506733,0.00965449120849371
1761341798629363700,0.81936376953125,-0.004775047767907381,0.013768808916211128,0.004846686962991953
1761341798639430000,0.829429931640625,-0.006840062793344259,0.012750682421028614,0.007881891913712025
1761341798649496800,0.839496826171875,-0.005344697739928961,0.012774118222296238,0.005434446502476931
1761341798659562800,0.849562744140625,-0.005786249879747629,0.012895026244223118,0.005585181526839733
1761341798669629000,0.85962890625,-0.0049135321751236916,0.01589188165962696,0.008733037859201431
1761341798679694800,0.86969482421875,-0.005765743553638458,0.011813515797257423,0.009580722078680992
1761341798689761000,0.879760986328125,-0.0047835698351264,0.012142417021095753,0.009215336292982101
1761341798699828000,0.889827880859375,-0.006865629460662603,0.016054866835474968,0.0073383403941988945
1761341798709894000,0.899893798828125,-0.005044559482485056,0.010907774791121483,0.009890713728964329
1761341798719960000,0.9099599609375,-0.006711698602885008,0.0157731045037508,0.008807872422039509
1761341798730025700,0.920025634765625,-0.0065196845680475235,0.01569427363574505,0.007238205522298813
1761341798740092700,0.9300927734375,-0.006280266214162111,0.014331002719700336,0.008160724304616451
1761341798750158800,0.940158935546875,-0.005441637244075537,0.014890266582369804,0.008851815015077591
1761341798760224800,0.950224853515625,-0.004938033409416676,0.0128774493932724,0.005626726895570755
1761341798770291000,0.960291015625,-0.006391054019331932,0.013199158944189548,0.0070371367037296295
1761341798780358000,0.97035791015625,-0.008568454533815384,0.015205318108201027,0.007032076828181744
1761341798790423800,0.980423828125,-0.005203816574066877,0.013973605819046497,0.007418235298246145
1761341798800490000,0.990489990234375,-0.007407582364976406,0.015076154842972755,0.006053365301340818
1761341798810556000,1.000555908203125,-0.005357747431844473,0.013797837309539318,0.0076179723255336285
1761341798820622800,1.010622802734375,-0.005970540922135115,0.013318735174834728,0.0051628039218485355
1761341798830689000,1.02068896484375,-0.0036618465092033148,0.012367719784379005,0.008510930463671684
1761341798840754700,1.030754638671875,-0.004692756105214357,0.013587181456387043,0.008420648984611034
1761341798850820900,1.04082080078125,-0.0054213968105614185,0.014505439437925816,0.006596649996936321
1761341798860887800,1.0508876953125,-0.007409180514514446,0.012142682448029518,0.006494917441159487
1761341798870953700,1.06095361328125,-0.006640325766056776,0.013420467264950275,0.008738896809518337
1761341798881020000,1.07102001953125,-0.004062918480485678,0.014330203644931316,0.0073652383871376514
1761341798891085800,1.0810859375,-0.005269596818834543,0.014275342226028442,0.0060142166912555695
1761341798901152000,1.091152099609375,-0.008234228007495403,0.014138455502688885,0.006491987966001034
1761341798911219000,1.101218994140625,-0.007252320181578398,0.012762400321662426,0.008496016263961792
1761341798921284900,1.111284912109375,-0.006478405557572842,0.011641476303339005,0.007381483446806669
1761341798931351000,1.12135107421875,-0.005498894955962896,0.016025038436055183,0.006754841655492783
1761341798941417000,1.1314169921875,-0.007237406447529793,0.013576262630522251,0.00754952896386385
1761341798951484000,1.14148388671875,-0.007576693315058947,0.013993047177791595,0.005162005312740803
1761341798961549800,1.1515498046875,-0.006050968077033758,0.013338175602257252,0.008439557626843452
1761341798971615700,1.16161572265625,-0.005795571021735668,0.012369051575660706,0.008607336319983006
1761341798981682000,1.171681884765625,-0.00558118661865592,0.013984259217977524,0.008519185706973076
1761341798991748900,1.181748779296875,-0.00700890738517046,0.014284131117165089,0.0049153962172567844
1761341799001814800,1.191814697265625,-0.006946855690330267,0.013391172513365746,0.008499212563037872
1761341799011881000,1.201880859375,-0.004728975240141153,0.013308614492416382,0.007987619377672672
1761341799021947000,1.21194677734375,-0.00552206439897418,0.01494992058724165,0.009845706634223461
1761341799032013800,1.222013916015625,-0.006386792752891779,0.014407169073820114,0.005026982631534338
1761341799042080000,1.232080078125,-0.007149255834519863,0.012355735525488853,0.00848669558763504
1761341799052146000,1.24214599609375,-0.0044291033409535885,0.01275920495390892,0.008392419666051865
1761341799062211800,1.2522119140625,-0.006854443810880184,0.014702512882649899,0.008887767791748047
1761341799072279000,1.262279052734375,-0.004865328781306744,0.012865997850894928,0.010188189335167408
1761341799082344700,1.2723447265625,-0.005119660869240761,0.01341833733022213,0.007765245158225298
1761341799092411000,1.282410888671875,-0.003973702434450388,0.014315023086965084,0.008023837581276894
1761341799102476800,1.292476806640625,-0.006518353242427111,0.015214905142784119,0.007248325273394585
1761341799112543000,1.30254296875,-0.007743673399090767,0.0144108971580863,0.005334844347089529
1761341799122610000,1.31260986328125,-0.005107143893837929,0.015592008829116821,0.010277139022946358
1761341799132675800,1.32267578125,-0.006654973141849041,0.010581005364656448,0.006042712368071079
1761341799142742000,1.332741943359375,-0.005114867351949215,0.011263573542237282,0.010065416805446148
1761341799152808000,1.342807861328125,-0.007184942252933979,0.012368518859148026,0.00956687331199646
1761341799162875000,1.352875,-0.007367901504039764,0.014603976160287857,0.006368949543684721
1761341799172941000,1.362941162109375,-0.005464806687086821,0.012033759616315365,0.010267817415297031
1761341799183006700,1.3730068359375,-0.003489806316792965,0.016172578558325768,0.007231281138956547
1761341799193073000,1.383072998046875,-0.007220362313091755,0.014390656724572182,0.009467004798352718
1761341799203139800,1.393139892578125,-0.005135373678058386,0.013571202754974365,0.006511961575597525
1761341799213205800,1.403205810546875,-0.008743690326809883,0.013788782991468906,0.008048338815569878
1761341799223272000,1.41327197265625,-0.006117014680057764,0.011322163045406342,0.005760950036346912
1761341799233337900,1.423337890625,-0.006622216198593378,0.014906778000295162,0.009373527951538563
1761341799243404000,1.433404052734375,-0.005618470720946789,0.013135509565472603,0.007610781583935022
1761341799253471000,1.443470947265625,-0.0067971860989928246,0.014129933901131153,0.005425125360488892
1761341799263537000,1.453536865234375,-0.005134840961545706,0.014801316894590855,0.005301288329064846
1761341799273603000,1.46360302734375,-0.006527407560497522,0.014868427999317646,0.008885636925697327
1761341799283668700,1.473668701171875,-0.00657614367082715,0.012562130577862263,0.006670419592410326
1761341799293736000,1.48373583984375,-0.004837898537516594,0.013883325271308422,0.007925034500658512
1761341799303801900,1.4938017578125,-0.005030178464949131,0.011214304715394974,0.008127701468765736
1761341799313867800,1.50386767578125,-0.0049494849517941475,0.012982644140720367,0.005822202656418085
1761341799323934000,1.513933837890625,-0.005440305452793837,0.015150456689298153,0.005789978429675102
1761341799334001000,1.5240009765625,-0.00637880340218544,0.013487046584486961,0.008401473984122276
1761341799344066800,1.53406689453125,-0.004166781902313232,0.01606152392923832,0.007069360930472612
1761341799354133000,1.544133056640625,-0.007625695317983627,0.012546151876449585,0.006816360633820295
1761341799364199000,1.554198974609375,-0.004750014282763004,0.014039652422070503,0.008146077394485474
1761341799374265900,1.564265869140625,-0.005994243081659079,0.013592774048447609,0.007860053330659866
1761341799384332000,1.57433203125,-0.007817708887159824,0.014188257046043873,0.008235825225710869
1761341799394398000,1.58439794921875,-0.008171909488737583,0.014053501188755035,0.004996889270842075
1761341799404463900,1.5944638671875,-0.00637906976044178,0.012292885221540928,0.006331931799650192
1761341799414529800,1.60452978515625,-0.005855225957930088,0.012408998794853687,0.007138070650398731
1761341799424596700,1.6145966796875,-0.004475974943488836,0.012412994168698788,0.007814247161149979
1761341799434663000,1.624662841796875,-0.0032551817130297422,0.011070494540035725,0.009015599265694618
1761341799444728800,1.634728759765625,-0.006858438719063997,0.01395895890891552,0.010458500124514103
1761341799454795000,1.644794921875,-0.00711676524952054,0.011583153158426285,0.008481369353830814
1761341799464862000,1.654862060546875,-0.005378253757953644,0.012561331503093243,0.00771837355569005
1761341799474927900,1.664927978515625,-0.008310660719871521,0.018116420134902,0.006104231346398592
1761341799484994000,1.674994140625,-0.009913883171975613,0.01344630029052496,0.0073013221845030785
1761341799495060000,1.68506005859375,-0.003921504598110914,0.014152304269373417,0.006274407263845205
1761341799505127000,1.695126953125,-0.007355118170380592,0.011441206559538841,0.007989749312400818
1761341799515193000,1.705193115234375,-0.005303685087710619,0.013847372494637966,0.00806405209004879
1761341799525258800,1.7152587890625,-0.007427290081977844,0.01312139444053173,0.009492837823927402
1761341799535325000,1.725324951171875,-0.006115949247032404,0.014268151484429836,0.007457383442670107
1761341799545391900,1.735391845703125,-0.005625661462545395,0.011888617649674416,0.008978581055998802
1761341799555457800,1.745457763671875,-0.006592655088752508,0.013546701520681381,0.008552475832402706
1761341799565524000,1.75552392578125,-0.005379585549235344,0.014187990687787533,0.0068113007582724094
1761341799575590000,1.76558984375,-0.005685849115252495,0.01384257897734642,0.010152769275009632
1761341799585655800,1.77565576171875,-0.007123689632862806,0.014877483248710632,0.004760134033858776
1761341799595723000,1.785722900390625,-0.007494668010622263,0.013731790706515312,0.0059718722477555275
1761341799605789000,1.795788818359375,-0.004826446995139122,0.012379704043269157,0.007148190401494503
1761341799615855000,1.805855224609375,-0.007494668010622263,0.013725931756198406,0.007428887765854597
1761341799625920800,1.815920654296875,-0.0028959212359040976,0.015271098352968693,0.0064866612665355206
1761341799635987700,1.82598779296875,-0.00678253872320056,0.011712582781910896,0.009327455423772335
1761341799646054000,1.836053955078125,-0.0060235378332436085,0.014968030154705048,0.009000418707728386
1761341799656119800,1.846119873046875,-0.004699414130300283,0.013623400591313839,0.00857164990156889
1761341799666185700,1.856185791015625,-0.005810484755784273,0.011320298537611961,0.00821132492274046
1761341799676253000,1.8662529296875,-0.005802229046821594,0.014461496844887733,0.006965763866901398
1761341799686318800,1.87631884765625,-0.006344448775053024,0.01492275670170784,0.0067809405736625195
1761341799696385000,1.886385009765625,-0.00669385539367795,0.013731258921325207,0.008547947742044926
1761341799706451000,1.896450927734375,-0.008655273355543613,0.013174124993383884,0.006582002621144056
1761341799716516900,1.906516845703125,-0.006325273774564266,0.012468920089304447,0.00708773685619235
1761341799726583000,1.9165830078125,-0.006081860978156328,0.01344443578273058,0.006042712368071079
1761341799736649000,1.92664892578125,-0.006406500469893217,0.01281513087451458,0.008258462883532047
1761341799746715100,1.936715087890625,-0.006375341210514307,0.01261113304644823,0.004736165516078472
1761341799756781000,1.946781005859375,-0.0057617491111159325,0.01401674933731556,0.004765992984175682
1761341799766848000,1.956847900390625,-0.0062123560346663,0.01252058520913124,0.006700513418763876
1761341799776914200,1.9669140625,-0.0067750816233456135,0.015123292803764343,0.008045143447816372
1761341799786980000,1.97697998046875,-0.006343116983771324,0.014532070606946945,0.007408914156258106
1761341799797046300,1.98704638671875,-0.005399292800575495,0.012324577197432518,0.006464024540036917
1761341799807113200,1.99711328125,-0.006971090566366911,0.012221778742969036,0.00759906368330121
1761341799817179100,2.00717919921875,-0.00637800432741642,0.010084858164191246,0.006363889668136835
1761341799827245300,2.017245361328125,-0.006867227144539356,0.01588975079357624,0.008125037886202335
1761341799837311000,2.02731103515625,-0.008309861645102501,0.013773336075246334,0.006366552785038948
1761341799847377200,2.037377197265625,-0.00461658975109458,0.011836685240268707,0.008010256104171276
1761341799857444000,2.047444091796875,-0.004978779703378677,0.013646570034325123,0.0079159801825881
1761341799867510000,2.057510009765625,-0.006607302464544773,0.012444685213267803,0.007771636825054884
1761341799877576200,2.067576171875,-0.007029680069535971,0.013789848424494267,0.005535380449146032
1761341799887642000,2.07764208984375,-0.00586587842553854,0.011243066750466824,0.006397712044417858
1761341799897709000,2.087708984375,-0.006088252644985914,0.014875618740916252,0.00811837986111641
1761341799907775200,2.097775146484375,-0.004792890977114439,0.013639912009239197,0.0079133166000247
1761341799917841200,2.107841064453125,-0.0049191247671842575,0.015990151092410088,0.008275240659713745
1761341799927907300,2.1179072265625,-0.005146026145666838,0.01426282525062561,0.0052168662659823895
1761341799937974300,2.127974365234375,-0.0031041805632412434,0.014918762259185314,0.005460012704133987
1761341799948040000,2.1380400390625,-0.0054512242786586285,0.015313975512981415,0.008176703006029129
1761341799958106000,2.148106201171875,-0.003777960315346718,0.015626363456249237,0.006127667147666216
1761341799968172000,2.158172119140625,-0.005212072748690844,0.013790380209684372,0.006060821935534477
1761341799978239000,2.168239013671875,-0.0036607813090085983,0.01432114839553833,0.007798268459737301
1761341799988305200,2.17830517578125,-0.007151119876652956,0.01480557769536972,0.0075908079743385315
1761341799998371000,2.18837109375,-0.005378786474466324,0.013011672534048557,0.0065223476849496365
1761341800008437200,2.198437255859375,-0.005450691562145948,0.01371980644762516,0.008473113179206848
1761341800018503200,2.208503173828125,-0.005662945564836264,0.014605307951569557,0.009218798018991947
1761341800028570000,2.218570068359375,-0.0067513794638216496,0.013863084837794304,0.007414240390062332
1761341800038636300,2.22863623046875,-0.005658951122313738,0.015468438155949116,0.006247509736567736
1761341800048702000,2.238701904296875,-0.005681587848812342,0.011709652841091156,0.006915164180099964
1761341800058768100,2.24876806640625,-0.005431250669062138,0.014876684173941612,0.008040882647037506
1761341800068835000,2.2588349609375,-0.00692049041390419,0.015206383541226387,0.009342635050415993
1761341800078901000,2.26890087890625,-0.0065111625008285046,0.014396250247955322,0.0070733558386564255
1761341800088967200,2.27896728515625,-0.006179865449666977,0.011501127853989601,0.00806431844830513
1761341800099033000,2.289033203125,-0.00782383419573307,0.01356640923768282,0.00891146995127201
1761341800109100000,2.29910009765625,-0.0062360577285289764,0.013398363254964352,0.011982627213001251
1761341800119166200,2.309166259765625,-0.005910086911171675,0.013174924068152905,0.008044078014791012
1761341800129232100,2.319232177734375,-0.0038453382439911366,0.012464925646781921,0.004290885291993618
1761341800139298300,2.32929833984375,-0.006839263718575239,0.014129667542874813,0.006380933802574873
1761341800149364200,2.3393642578125,-0.006108226254582405,0.015248994342982769,0.007107177749276161
1761341800159431200,2.34943115234375,-0.007127684075385332,0.01239009015262127,0.005144162103533745
1761341800169497000,2.3594970703125,-0.004722050856798887,0.012575979344546795,0.0070826769806444645
1761341800179563000,2.36956298828125,-0.0049095372669398785,0.014127270318567753,0.007867510430514812
1761341800189629200,2.379629150390625,-0.007665643002837896,0.01372113823890686,0.007877630181610584
1761341800199696100,2.389696044921875,-0.007452589925378561,0.012624715454876423,0.007054180838167667
1761341800209762000,2.399761962890625,-0.006957508157938719,0.01426202617585659,0.006885336712002754
1761341800219828200,2.409828125,-0.006944725289940834,0.012841762974858284,0.0029052423778921366
1761341800229894100,2.41989404296875,-0.00592526700347662,0.016231168061494827,0.009281116537749767
1761341800239961000,2.429961181640625,-0.0064962487667799,0.013954165391623974,0.0075631109066307545
1761341800250027300,2.44002734375,-0.006640858482569456,0.015122760087251663,0.006505303550511599
1761341800260093200,2.45009326171875,-0.007632619701325893,0.014759505167603493,0.0016088156262412667
1761341800270159000,2.4601591796875,-0.006583600305020809,0.01601438596844673,0.008094411343336105
1761341800280225000,2.47022509765625,-0.005951365921646357,0.01429478358477354,0.007267233915627003
1761341800290292000,2.4802919921875,-0.006476807873696089,0.014555506408214569,0.008852081373333931
1761341800300358100,2.490358154296875,-0.007273359224200249,0.015103585086762905,0.00549330236390233
1761341800310424000,2.500424072265625,-0.008315986953675747,0.01357333268970251,0.008353536948561668
1761341800320490200,2.510490234375,-0.006566556170582771,0.014825285412371159,0.004333495628088713
1761341800330557200,2.52055712890625,-0.004840561654418707,0.01426628790795803,0.009974337182939053
1761341800340623000,2.530623046875,-0.007558850105851889,0.013428190723061562,0.006429137196391821
1761341800350689300,2.540689208984375,-0.007245129905641079,0.014477210119366646,0.009466472081840038
1761341800360755200,2.550755126953125,-0.004285026341676712,0.01224388275295496,0.008290153928101063
1761341800370822100,2.560822265625,-0.005962285213172436,0.013336578384041786,0.0060293967835605145
1761341800380888300,2.570888427734375,-0.006489857099950314,0.011876899749040604,0.007960188202559948
1761341800390954000,2.5809541015625,-0.006283195689320564,0.012623916380107403,0.006918626371771097
1761341800401020200,2.591020263671875,-0.0051710596308112144,0.01236345898360014,0.008954346179962158
1761341800411087000,2.601087158203125,-0.005642439238727093,0.01185266487300396,0.004923652391880751
1761341800421153000,2.611153076171875,-0.006486129015684128,0.014838067814707756,0.006278668530285358
1761341800431219200,2.62121923828125,-0.006592122372239828,0.012613263912498951,0.004564391914755106
1761341800441285000,2.63128515625,-0.0032447953708469868,0.01438106968998909,0.008036354556679726
1761341800451351000,2.64135107421875,-0.0059625511057674885,0.011390872299671173,0.00603365758433938
1761341800461418200,2.651418212890625,-0.008656605146825314,0.015139804221689701,0.01041482388973236
1761341800471484200,2.661484130859375,-0.006536728702485561,0.013857225887477398,0.006069077644497156
1761341800481550300,2.67155029296875,-0.007029413711279631,0.014077203348279,0.007120227441191673
1761341800491616000,2.681615966796875,-0.005290103144943714,0.013278787024319172,0.005071191117167473
1761341800501683200,2.69168310546875,-0.006691724993288517,0.016348613426089287,0.008973787538707256
1761341800511749000,2.7017490234375,-0.006822752300649881,0.01558481901884079,0.00839481595903635
1761341800521815000,2.71181494140625,-0.0051897019147872925,0.014789332635700703,0.00785525981336832
1761341800531881200,2.721881103515625,-0.007667240686714649,0.014581605792045593,0.004729507956653833
1761341800541947100,2.731947021484375,-0.007045392412692308,0.013463610783219337,0.008586031384766102
1761341800552014000,2.74201416015625,-0.006562827620655298,0.01053173653781414,0.009030778892338276
1761341800562080300,2.752080322265625,-0.00977566558867693,0.013563745655119419,0.006295979022979736
1761341800572146200,2.762146240234375,-0.008649148046970367,0.013138438574969769,0.008624646812677383
1761341800582212000,2.772212158203125,-0.007501591928303242,0.014283332042396069,0.005146026145666838
1761341800592279300,2.782279296875,-0.005860818549990654,0.01420610025525093,0.009913084097206593
1761341800602345200,2.79234521484375,-0.007215302437543869,0.013677196577191353,0.006714628078043461
1761341800612411100,2.8024111328125,-0.004511395003646612,0.013628993183374405,0.008652344346046448
1761341800622477000,2.81247705078125,-0.00848456472158432,0.015187208540737629,0.005856291390955448
1761341800632544000,2.8225439453125,-0.0073716300539672375,0.012801283039152622,0.008125836960971355
1761341800642610200,2.832610107421875,-0.005781456362456083,0.015028750523924828,0.008324774913489819
1761341800652676000,2.842676025390625,-0.006925283931195736,0.014576812274754047,0.010427340865135193
1761341800662742000,2.852741943359375,-0.007815312594175339,0.013383449986577034,0.00680144689977169
1761341800672809200,2.862809326171875,-0.00572952488437295,0.014085724949836731,0.005744704511016607
1761341800682875100,2.872875244140625,-0.004217115696519613,0.013890781439840794,0.006611031014472246
1761341800692941300,2.88294140625,-0.0031907332595437765,0.012032694183290005,0.007876564748585224
1761341800703007200,2.89300732421875,-0.0037502634804695845,0.01267211977392435,0.006256031803786755
1761341800713073000,2.903072998046875,-0.006617955397814512,0.013728861697018147,0.007881625555455685
1761341800723140400,2.913140380859375,-0.0062642875127494335,0.012810603715479374,0.008567389100790024
1761341800733206500,2.92320654296875,-0.0036599822342395782,0.01564633846282959,0.007378820329904556
1761341800743272400,2.9332724609375,-0.006444850005209446,0.011678227223455906,0.006115682888776064
1761341800753338400,2.94333837890625,-0.0059684100560843945,0.014658837579190731,0.006650978233665228
1761341800763405600,2.953405517578125,-0.0075822859071195126,0.014160027727484703,0.009069927968084812
1761341800773471200,2.96347119140625,-0.00503870053216815,0.013251090422272682,0.004396879114210606
1761341800783537400,2.973537353515625,-0.006075202953070402,0.012234029360115528,0.00962493009865284
1761341800793603300,2.983603271484375,-0.005536711774766445,0.013337111100554466,0.008184426464140415
1761341800803669500,2.99366943359375,-0.006197442300617695,0.014665229246020317,0.009881925769150257
1761341800813736400,3.003736328125,-0.0065561700612306595,0.015029549598693848,0.009050752967596054
1761341800823802400,3.01380224609375,-0.0037321539130061865,0.013526194728910923,0.006387858185917139
1761341800833868500,3.02386865234375,-0.0038450718857347965,0.012308331206440926,0.008684568107128143
1761341800843934500,3.0339345703125,-0.006453105714172125,0.01179487444460392,0.008220112882554531
1761341800854001400,3.04400146484375,-0.005341236013919115,0.015275891870260239,0.0027571707032620907
1761341800864067600,3.054067626953125,-0.007252852898091078,0.01629774644970894,0.008351140655577183
1761341800874133200,3.06413330078125,-0.004000866785645485,0.012546684592962265,0.004995823837816715
1761341800884199400,3.074199462890625,-0.00481366366147995,0.011511247605085373,0.007795871235430241
1761341800894266400,3.084266357421875,-0.0036309538409113884,0.014185327105224133,0.007034739945083857
1761341800904332300,3.094332275390625,-0.006774283014237881,0.015369635075330734,0.010172476060688496
1761341800914398500,3.1043984375,-0.0065740132704377174,0.011406319215893745,0.010551444254815578
1761341800924464400,3.11446435546875,-0.005742041394114494,0.01284815464168787,0.0088776471093297
1761341800934530600,3.124530517578125,-0.007938883267343044,0.013643640093505383,0.00947978813201189
1761341800944597500,3.134597412109375,-0.0075910743325948715,0.011826565489172935,0.009097358211874962
1761341800954663400,3.144663330078125,-0.006372145377099514,0.013187441043555737,0.008095210418105125
1761341800964729600,3.1547294921875,-0.0059628174640238285,0.014532070606946945,0.00932292826473713
1761341800974795300,3.164795166015625,-0.003931891173124313,0.015260179527103901,0.007504255045205355
1761341800984862500,3.174862548828125,-0.006632070057094097,0.013176788575947285,0.007447530049830675
1761341800994928400,3.184928466796875,-0.004304200876504183,0.015119032002985477,0.005249623209238052
1761341801004994300,3.194994384765625,-0.008838498964905739,0.015216503292322159,0.010861968621611595
1761341801015060500,3.205060546875,-0.00603498937562108,0.014368552714586258,0.006396912969648838
1761341801025127400,3.21512744140625,-0.004326038993895054,0.013765613548457623,0.008234760724008083
1761341801035193300,3.225193359375,-0.007267500273883343,0.015360314399003983,0.002891660202294588
1761341801045259500,3.235259521484375,-0.006721019744873047,0.01600399985909462,0.007413974031805992
1761341801055325400,3.245325439453125,-0.006080529186874628,0.012211658991873264,0.005464806687086821
1761341801065391600,3.2553916015625,-0.006160690449178219,0.013560550287365913,0.005983323790132999
1761341801075458600,3.26545849609375,-0.006079197861254215,0.013575729914009571,0.011268367059528828
1761341801085524500,3.2755244140625,-0.004965996369719505,0.014201040379703045,0.006040848325937986
1761341801095590400,3.28559033203125,-0.006019010208547115,0.013757890090346336,0.009550095535814762
1761341801105656300,3.29565625,-0.005055478774011135,0.011285144835710526,0.00845819991081953
1761341801115723300,3.30572314453125,-0.006767092272639275,0.013855627737939358,0.007281614933162928
1761341801125789400,3.31578955078125,-0.008096542209386826,0.014669756405055523,0.008408398367464542
1761341801135855400,3.32585546875,-0.005756688769906759,0.012431102804839611,0.008727178908884525
1761341801145921500,3.335921630859375,-0.005184908397495747,0.012358931824564934,0.00749093946069479
1761341801155988500,3.345988525390625,-0.006697317585349083,0.01227291114628315,0.004965463653206825
1761341801166054400,3.356054443359375,-0.006399842444807291,0.015150723047554493,0.007901865057647228
1761341801176120600,3.36612060546875,-0.00615110294893384,0.013914483599364758,0.009333847090601921
1761341801186186500,3.3761865234375,-0.0046607982367277145,0.014879613183438778,0.010794058442115784
1761341801196252400,3.38625244140625,-0.007668572477996349,0.012736834585666656,0.008518652990460396
1761341801206319400,3.3963193359375,-0.003010969841852784,0.012563462369143963,0.009576461277902126
1761341801216385300,3.40638525390625,-0.008450742810964584,0.013743774965405464,0.005200354848057032
1761341801226451500,3.416451416015625,-0.006149771623313427,0.012491024099290371,0.004382763989269733
1761341801236517400,3.426517333984375,-0.005966812372207642,0.013215137645602226,0.007186274044215679
1761341801246584300,3.436584228515625,-0.008124238811433315,0.014097709208726883,0.009047556668519974
1761341801256650500,3.446650390625,-0.006942062173038721,0.012967996299266815,0.008199340663850307
1761341801266716400,3.45671630859375,-0.005537510849535465,0.015125157311558723,0.009927199222147465
1761341801276782600,3.466782470703125,-0.005848035216331482,0.01525591779500246,0.01022547297179699
1761341801286849500,3.476849609375,-0.0049092709086835384,0.012383433058857918,0.004898352082818747
1761341801296915500,3.48691552734375,-0.00632074661552906,0.012523781508207321,0.007709585130214691
1761341801306981600,3.496981689453125,-0.004795021377503872,0.0137200728058815,0.006792658474296331
1761341801317047300,3.50704736328125,-0.005532450973987579,0.011246529407799244,0.007966579869389534
1761341801327113500,3.517113525390625,-0.007813181728124619,0.01302392315119505,0.011224690824747086
1761341801337180400,3.527180419921875,-0.003279150230810046,0.015203986316919327,0.007416903506964445
1761341801347246300,3.537246337890625,-0.005957757588475943,0.012458001263439655,0.006767092272639275
1761341801357312500,3.5473125,-0.0052051483653485775,0.012293950654566288,0.006104231346398592
1761341801367378400,3.55737841796875,-0.007168697193264961,0.012209261767566204,0.004369448404759169
1761341801377445400,3.5674453125,-0.00666456064209342,0.012416455894708633,0.006295179948210716
1761341801387511600,3.577511474609375,-0.006433664355427027,0.01267185341566801,0.007357781287282705
1761341801397577500,3.587577392578125,-0.006667223758995533,0.014872689731419086,0.005131645128130913
1761341801407643600,3.5976435546875,-0.006666957400739193,0.012749616988003254,0.005831523798406124
1761341801417710600,3.607710693359375,-0.0074605792760849,0.013977334834635258,0.00794261135160923
1761341801427776300,3.6177763671875,-0.008870989084243774,0.012194082140922546,0.009286442771553993
1761341801437842400,3.627842529296875,-0.005002215504646301,0.011654525063931942,0.008384696207940578
1761341801447908400,3.637908447265625,-0.0065460498444736,0.013464143499732018,0.006686664652079344
1761341801457974500,3.647974609375,-0.004840561654418707,0.012806342914700508,0.010998588986694813
1761341801468041500,3.65804150390625,-0.006642722524702549,0.012940033338963985,0.005467736162245274
1761341801478107400,3.668107421875,-0.006061621010303497,0.01182416919618845,0.007188937161117792
1761341801488173600,3.678173583984375,-0.006037386134266853,0.011118697002530098,0.009156746789813042
1761341801498239500,3.688239501953125,-0.006423810962587595,0.013397297821938992,0.009646502323448658
1761341801508306400,3.698306396484375,-0.0065047708339989185,0.012951218523085117,0.008046208880841732
1761341801518372600,3.70837255859375,-0.004685565363615751,0.01251925341784954,0.006711165886372328
1761341801528438500,3.7184384765625,-0.007243265397846699,0.01302498858422041,0.008851282298564911
1761341801538504400,3.72850439453125,-0.005515672732144594,0.01227717287838459,0.006764429155737162
1761341801548571400,3.7385712890625,-0.006716492120176554,0.012405537068843842,0.005937783978879452
1761341801558637300,3.74863720703125,-0.005967345088720322,0.010718690231442451,0.007723433431237936
1761341801568703500,3.758703369140625,-0.00618119677528739,0.01381035428494215,0.007708519697189331
1761341801578769400,3.768769287109375,-0.007762315683066845,0.01350648794323206,0.007904528640210629
1761341801588835600,3.778835693359375,-0.007686415687203407,0.015242602676153183,0.0088187912479043
1761341801598902500,3.788902587890625,-0.005730856209993362,0.015337943099439144,0.005952697712928057
1761341801608968400,3.798968505859375,-0.004460262134671211,0.01224601361900568,0.00818203017115593
1761341801619034600,3.80903466796875,-0.007681355345994234,0.01420290395617485,0.008290953002870083
1761341801629100500,3.8191005859375,-0.007652060594409704,0.01593955233693123,0.006217682268470526
1761341801639167500,3.82916748046875,-0.008528240956366062,0.012996225617825985,0.0071010529063642025
1761341801649233400,3.8392333984375,-0.005634449888020754,0.011688081547617912,0.006043245084583759
1761341801659299300,3.84929931640625,-0.00595642626285553,0.012691826559603214,0.005791842471808195
1761341801669365500,3.859365478515625,-0.006449909880757332,0.011660384014248848,0.007243531756103039
1761341801679432400,3.869432373046875,-0.006660565733909607,0.013406353071331978,0.00567093538120389
1761341801689498400,3.879498291015625,-0.005247492343187332,0.014780277386307716,0.0060048955492675304
1761341801699564500,3.889564453125,-0.0051811798475682735,0.01631718873977661,0.008517853915691376
1761341801709630500,3.89963037109375,-0.005816876422613859,0.015326225198805332,0.006872020661830902
1761341801719696600,3.909696533203125,-0.0036128442734479904,0.014594655483961105,0.0072957295924425125
1761341801729763800,3.919763916015625,-0.005933256354182959,0.01576671190559864,0.0073471288196742535
1761341801739829800,3.929829833984375,-0.005151885095983744,0.01224761176854372,0.008472580462694168
1761341801749896000,3.93989599609375,-0.00717508839443326,0.012567190453410149,0.01125158928334713
1761341801759961600,3.949961669921875,-0.003742273896932602,0.01601518504321575,0.008984173648059368
1761341801770028500,3.960028564453125,-0.006645385641604662,0.01010882668197155,0.008684035390615463
1761341801780094700,3.9700947265625,-0.004805940669029951,0.014007162302732468,0.006927148438990116
1761341801790160600,3.98016064453125,-0.005527656991034746,0.013685984537005424,0.00806298665702343
1761341801800226800,3.990226806640625,-0.003668770659714937,0.013876667246222496,0.006072806194424629
1761341801810292700,4.000292724609375,-0.005483981221914291,0.014931012876331806,0.0051652006804943085
1761341801820358700,4.010358642578125,-0.00652714166790247,0.012295814231038094,0.007542072329670191
1761341801830424800,4.0204248046875,-0.006943127140402794,0.012278770096600056,0.004907673224806786
1761341801840490800,4.03049072265625,-0.0068174260668456554,0.013337642885744572,0.011302455328404903
1761341801850557700,4.0405576171875,-0.00757935643196106,0.014757907018065453,0.0054885088466107845
1761341801860623600,4.05062353515625,-0.006366552785038948,0.013615943491458893,0.01146757137030363
1761341801870689500,4.060689453125,-0.005769738461822271,0.01363431941717863,0.005431517027318478
1761341801880755700,4.070755615234375,-0.008835303597152233,0.012521917000412941,0.007592938374727964
1761341801890821600,4.080821533203125,-0.006619286723434925,0.016321448609232903,0.009637447074055672
1761341801900888600,4.090888671875,-0.00632074661552906,0.013620204292237759,0.006710100453346968
1761341801910954800,4.100954833984375,-0.007102384231984615,0.013818344101309776,0.007062969263643026
1761341801921020700,4.111020751953125,-0.0070738885551691055,0.01443752832710743,0.01011175662279129
1761341801931086800,4.1210869140625,-0.0073316823691129684,0.01161511056125164,0.007864048704504967
1761341801941153800,4.13115380859375,-0.007482683751732111,0.015235145576298237,0.010164220817387104
1761341801951219700,4.1412197265625,-0.006115416996181011,0.013064403086900711,0.005621133837848902
1761341801961285600,4.15128564453125,-0.004687163513153791,0.014993863180279732,0.004567587748169899
1761341801971351600,4.1613515625,-0.004860801622271538,0.015193067491054535,0.006087187211960554
1761341801981417700,4.171417724609375,-0.005656553898006678,0.014133661985397339,0.008867793716490269
1761341801991484700,4.181484619140625,-0.006773750297725201,0.013293168507516384,0.0057135457172989845
1761341802001550600,4.191550537109375,-0.005715409759432077,0.01528894156217575,0.007667773403227329
1761341802011616800,4.20161669921875,-0.006563893053680658,0.013796771876513958,0.009579923003911972
1761341802021682700,4.2116826171875,-0.0062304651364684105,0.012506471015512943,0.008229966275393963
1761341802031749600,4.22174951171875,-0.006947388406842947,0.011518704704940319,0.006053631659597158
1761341802041815800,4.23181591796875,-0.003634682158008218,0.012895824387669563,0.007130879908800125
1761341802051881700,4.2418818359375,-0.0073348782025277615,0.013977867551147938,0.010263023898005486
1761341802061947600,4.25194775390625,-0.004225904121994972,0.013806359842419624,0.004856806714087725
1761341802072014800,4.262014892578125,-0.005409146659076214,0.014366422779858112,0.010407633148133755
1761341802082080500,4.27208056640625,-0.004995557479560375,0.012732839211821556,0.006144977640360594
1761341802092146700,4.282146728515625,-0.007397196255624294,0.012419384904205799,0.00987233780324459
1761341802102212600,4.292212646484375,-0.005893309134989977,0.013133911415934563,0.005838980432599783
1761341802112278800,4.30227880859375,-0.007645136676728725,0.011933624744415283,0.008493619970977306
1761341802122345700,4.312345703125,-0.005795837379992008,0.013806892558932304,0.008235558867454529
1761341802132411600,4.32241162109375,-0.006214486435055733,0.014701448380947113,0.008918393403291702
1761341802142477800,4.332477783203125,-0.0046701193787157536,0.014332333579659462,0.0060027651488780975
1761341802152543700,4.342543701171875,-0.005813414230942726,0.013831925578415394,0.0086001455783844
1761341802162610700,4.352610595703125,-0.006768424063920975,0.013007677160203457,0.005498894955962896
1761341802172676900,4.3626767578125,-0.008637163788080215,0.013791179284453392,0.007423295173794031
1761341802182742500,4.372742431640625,-0.005143096670508385,0.01450117863714695,0.008028632029891014
1761341802192808700,4.38280859375,-0.0062578958459198475,0.0162974800914526,0.004057325888425112
1761341802202875600,4.392875732421875,-0.00506932707503438,0.01619814522564411,0.0062341936863958836
1761341802212941600,4.402941650390625,-0.0054642739705741405,0.013513944111764431,0.00624191714450717
1761341802223007700,4.4130078125,-0.005858954507857561,0.012642824091017246,0.008482168428599834
1761341802233073700,4.42307373046875,-0.007769239600747824,0.011679026298224926,0.008923187851905823
1761341802243139800,4.433139892578125,-0.006388390902429819,0.013403156772255898,0.006104497704654932
1761341802253206800,4.443206787109375,-0.007124488707631826,0.01336028054356575,0.008837699890136719
1761341802263272700,4.453272705078125,-0.004869856406003237,0.014191718772053719,0.009045959450304508
1761341802273339000,4.4633388671875,-0.005249356850981712,0.013349094428122044,0.00897005945444107
1761341802283404500,4.473404541015625,-0.004188885912299156,0.013421532697975636,0.008519185706973076
1761341802293471700,4.4834716796875,-0.004051200579851866,0.012773319147527218,0.007720237597823143
1761341802303537700,4.49353759765625,-0.005373992491513491,0.014827948063611984,0.009046492166817188
1761341802313603600,4.503603515625,-0.005373460240662098,0.012261459603905678,0.009041432291269302
1761341802323669800,4.513669677734375,-0.007080546114593744,0.01263962872326374,0.007768174633383751
1761341802333735700,4.523735595703125,-0.004027764778584242,0.016352608799934387,0.007536479737609625
1761341802343802600,4.533802734375,-0.007593204732984304,0.015185610391199589,0.0062515041790902615
1761341802353868800,4.543868896484375,-0.00555215822532773,0.014940866269171238,0.00974477268755436
1761341802363934700,4.553934814453125,-0.006191316992044449,0.012887036427855492,0.00885021686553955
1761341802374001000,4.5640009765625,-0.005195028148591518,0.01413659192621708,0.00785552617162466
1761341802384067800,4.57406787109375,-0.005978796631097794,0.013509949669241905,0.009562612511217594
1761341802394133800,4.5841337890625,-0.0049127331003546715,0.012527775950729847,0.008430768735706806
1761341802404199700,4.59419970703125,-0.006159891374409199,0.013483851216733456,0.008806540630757809
1761341802414265600,4.604265625,-0.005075718741863966,0.01022627204656601,0.010014018043875694
1761341802424332500,4.61433251953125,-0.007369232829660177,0.012544820085167885,0.008162056095898151
1761341802434398700,4.624398681640625,-0.0038368161767721176,0.014706508256494999,0.010675814002752304
1761341802444464600,4.634464599609375,-0.00544456671923399,0.012587164528667927,0.007053914945572615
1761341802454530800,4.64453076171875,-0.006648048758506775,0.014455106109380722,0.006213421002030373
1761341802464596700,4.6545966796875,-0.005509547423571348,0.010221212171018124,0.009067530743777752
1761341802474663700,4.66466357421875,-0.005154548212885857,0.012317120097577572,0.007141000125557184
1761341802484729900,4.674729736328125,-0.0067540425807237625,0.01489372830837965,0.006675745826214552
1761341802494795800,4.684795654296875,-0.007573231123387814,0.013398629613220692,0.006084257736802101
1761341802504861700,4.69486181640625,-0.0051774512976408005,0.01531583908945322,0.0076275598257780075
1761341802514929000,4.704928955078125,-0.008311991579830647,0.013408483006060123,0.008867260999977589
1761341802524994600,4.71499462890625,-0.0051289820112288,0.014241786673665047,0.006505836267024279
1761341802535060700,4.725060791015625,-0.005382248666137457,0.0137253999710083,0.009689644910395145
1761341802545126700,4.735126708984375,-0.00706829596310854,0.011485947296023369,0.008026767522096634
1761341802555193600,4.745193603515625,-0.005129780620336533,0.013200224377214909,0.010149839334189892
1761341802565259800,4.755259765625,-0.006136721931397915,0.011323494836688042,0.008987369947135448
1761341802575325700,4.76532568359375,-0.005344165489077568,0.012018047273159027,0.005057076457887888
1761341802585391900,4.775391845703125,-0.005298092495650053,0.014158429577946663,0.007268831599503756
1761341802595457800,4.785457763671875,-0.007506652269512415,0.010572749190032482,0.006839796435087919
1761341802605524700,4.795524658203125,-0.005871205125004053,0.012866795994341373,0.007796936668455601
1761341802615591000,4.8055908203125,-0.006506635341793299,0.012141617946326733,0.005155880004167557
1761341802625656600,4.815656494140625,-0.006048837676644325,0.01347266510128975,0.00923104863613844
1761341802635722800,4.82572265625,-0.004267183132469654,0.01569826900959015,0.007967911660671234
1761341802645789700,4.835789794921875,-0.006685866042971611,0.014691327698528767,0.007078149355947971
1761341802655855600,4.845855712890625,-0.008728244341909885,0.014191186055541039,0.00675377668812871
1761341802665921800,4.855921875,-0.005146558862179518,0.014550712890923023,0.006470682565122843
1761341802675987700,4.86598779296875,-0.008192682638764381,0.012461462989449501,0.006676012184470892
1761341802686053600,4.8760537109375,-0.0072943982668221,0.014057495631277561,0.007229949813336134
1761341802696120800,4.886120849609375,-0.005970540922135115,0.011301922611892223,0.005155613645911217
1761341802706186800,4.896186767578125,-0.0039023298304528,0.014271614141762257,0.006433132104575634
1761341802716253000,4.9062529296875,-0.0036485306918621063,0.014010624028742313,0.0054637412540614605
1761341802726318600,4.916318603515625,-0.006646983791142702,0.013280651532113552,0.005495699122548103
1761341802736385500,4.926385498046875,-0.0036669063847512007,0.01410729717463255,0.0073045180179178715
1761341802746451700,4.93645166015625,-0.005173456855118275,0.015798404812812805,0.005706089083105326
1761341802756517600,4.946517578125,-0.0059628174640238285,0.015778163447976112,0.006082926411181688
1761341802766583800,4.956583740234375,-0.006446980405598879,0.011721637099981308,0.006330866366624832
1761341802776650800,4.966650634765625,-0.005940447095781565,0.013016466051340103,0.007719971239566803
1761341802786716700,4.976716552734375,-0.008266718126833439,0.013523798435926437,0.008321313187479973
1761341802796782800,4.986782958984375,-0.008589759469032288,0.014461496844887733,0.0070698936469852924
1761341802806848800,4.996848876953125,-0.00629091914743185,0.012776781804859638,0.006172141991555691
1761341802816914700,5.006914794921875,-0.006006227340549231,0.01417307648807764,0.005973736755549908
1761341802826982000,5.01698193359375,-0.007534348871558905,0.012381834909319878,0.006578806787729263
1761341802837047800,5.0270478515625,-0.00771890627220273,0.0140143521130085,0.007225954905152321
1761341802847113700,5.03711376953125,-0.005588377360254526,0.010607636533677578,0.006655505858361721
1761341802857179600,5.0471796875,-0.005787048954516649,0.013682789169251919,0.009707754477858543
1761341802867246600,5.05724658203125,-0.004809402395039797,0.017363544553518295,0.011442005634307861
1761341802877312800,5.067312744140625,-0.006387591827660799,0.01272777933627367,0.01067980844527483
1761341802887378700,5.077378662109375,-0.006668022833764553,0.012686233967542648,0.0070589748211205006
1761341802897444600,5.087444580078125,-0.006327670533210039,0.015395201742649078,0.00893836747854948
1761341802907511800,5.09751171875,-0.006608101539313793,0.012712599709630013,0.005695968866348267
1761341802917577700,5.10757763671875,-0.007605188991874456,0.014707840047776699,0.008237689733505249
1761341802927643600,5.1176435546875,-0.00637880340218544,0.011770106852054596,0.006849117577075958
1761341802937709800,5.127709716796875,-0.006505569908767939,0.011997007764875889,0.006630471907556057
1761341802947775500,5.137775390625,-0.002426672261208296,0.012121377512812614,0.008686698973178864
1761341802957842700,5.1478427734375,-0.006409695837646723,0.014592258259654045,0.010913367383182049
1761341802967908600,5.15790869140625,-0.005840312223881483,0.013396232388913631,0.008951683528721333
1761341802977974500,5.167974609375,-0.006652043666690588,0.014511831104755402,0.008680573664605618
1761341802988040700,5.178040771484375,-0.008343150839209557,0.013938984833657742,0.007059773895889521
1761341802998107600,5.188107666015625,-0.007522098254412413,0.01426335796713829,0.007306116167455912
1761341803008173800,5.198173828125,-0.006003297865390778,0.014302772469818592,0.006727677304297686
1761341803018239700,5.20823974609375,-0.008303203620016575,0.01317998394370079,0.00914502888917923
1761341803028305700,5.2183056640625,-0.0014927018200978637,0.013744307681918144,0.006736465729773045
1761341803038371800,5.228371826171875,-0.007692008279263973,0.01152855809777975,0.007773500867187977
1761341803048438800,5.238438720703125,-0.00800279900431633,0.013214072212576866,0.006443784572184086
1761341803058504700,5.248504638671875,-0.005126052536070347,0.014631407335400581,0.008612662553787231
1761341803068570600,5.258570556640625,-0.002968625631183386,0.014398646540939808,0.008204134181141853
1761341803078636500,5.268636474609375,-0.005961752496659756,0.01161404512822628,0.006441387813538313
1761341803088703700,5.278703857421875,-0.007941014133393764,0.013346698135137558,0.006238721311092377
1761341803098769700,5.288769775390625,-0.006809968966990709,0.013677196577191353,0.00884808599948883
1761341803108835600,5.298835693359375,-0.004800347611308098,0.014674017205834389,0.004458398092538118
1761341803118901800,5.30890185546875,-0.007576426956802607,0.012349077500402927,0.008413191884756088
1761341803128968700,5.31896875,-0.006424343679100275,0.014313425868749619,0.0085439532995224
1761341803139034600,5.32903466796875,-0.007410778198391199,0.014315289445221424,0.007395331747829914
1761341803149100800,5.339100830078125,-0.005036836490035057,0.013976003043353558,0.006607568822801113
1761341803159166700,5.349166748046875,-0.006202502176165581,0.014156032353639603,0.00857244897633791
1761341803169232600,5.359232666015625,-0.0049156625755131245,0.012528841383755207,0.005155347287654877
1761341803179299600,5.369299560546875,-0.006902647204697132,0.013582387939095497,0.003364105010405183
1761341803189365500,5.379365478515625,-0.005824067164212465,0.012385030277073383,0.008704009465873241
1761341803199431700,5.389431640625,-0.007363107521086931,0.014404239133000374,0.006600378546863794
1761341803209497600,5.39949755859375,-0.005242965184152126,0.013880128972232342,0.010278736241161823
1761341803219564800,5.409564697265625,-0.006420881487429142,0.01455843634903431,0.006080262828618288
1761341803229630700,5.419630615234375,-0.00782543234527111,0.01474752090871334,0.008364723064005375
1761341803239696600,5.429696533203125,-0.006422212813049555,0.014159761369228363,0.00945049338042736
1761341803249762800,5.4397626953125,-0.007760717533528805,0.014770423993468285,0.013410347513854504
1761341803259828700,5.449828857421875,-0.0032197616528719664,0.012820190750062466,0.007041930686682463
1761341803269895700,5.459895751953125,-0.008929579518735409,0.014231400564312935,0.008439291268587112
1761341803279961600,5.469961669921875,-0.009533584117889404,0.013882526196539402,0.0067907944321632385
1761341803290027500,5.480027587890625,-0.004779042676091194,0.010266219265758991,0.007994011044502258
1761341803300093700,5.49009375,-0.00848722830414772,0.012435630895197392,0.008862201124429703
1761341803310160600,5.50016064453125,-0.005322593729943037,0.0122441491112113,0.009058210067451
1761341803320226600,5.5102265625,-0.008241950534284115,0.015341938473284245,0.008404670283198357
1761341803330292700,5.520292724609375,-0.007684284821152687,0.013002617284655571,0.0054240599274635315
1761341803340358700,5.530358642578125,-0.006072007119655609,0.013747770339250565,0.0059990365989506245
1761341803350424800,5.5404248046875,-0.005795038305222988,0.014514493755996227,0.008507201448082924
1761341803360491800,5.55049169921875,-0.006991330534219742,0.012603143230080605,0.007728493306785822
1761341803370557700,5.5605576171875,-0.006172408349812031,0.013819941319525242,0.006199572701007128
1761341803380624000,5.570623779296875,-0.006075202953070402,0.012805011123418808,0.009006810374557972
1761341803390689500,5.580689453125,-0.00447064870968461,0.015737151727080345,0.008443019352853298
1761341803400756500,5.590756591796875,-0.00629065278917551,0.013361078687012196,0.011287808418273926
1761341803410822700,5.60082275390625,-0.007810518611222506,0.012744290754199028,0.004524444229900837
1761341803420888600,5.610888671875,-0.0065407236106693745,0.014424745924770832,0.0084864292293787
1761341803430954800,5.620954833984375,-0.005894640926271677,0.014473214745521545,0.008731173351407051
1761341803441021700,5.631021728515625,-0.006060555577278137,0.01206784788519144,0.008324242196977139
1761341803451087600,5.641087646484375,-0.006370814051479101,0.015153386630117893,0.005060005933046341
1761341803461153800,5.65115380859375,-0.006658968050032854,0.013232714496552944,0.007134075742214918
1761341803471219700,5.6612197265625,-0.006873352453112602,0.012795955874025822,0.0075969332829117775
1761341803481286000,5.671285888671875,-0.005064533557742834,0.012289157137274742,0.005007009021937847
1761341803491352800,5.681352783203125,-0.005121791269630194,0.011638013646006584,0.0065231467597186565
1761341803501418500,5.69141845703125,-0.004985969979315996,0.013324594125151634,0.01059458777308464
1761341803511484700,5.701484619140625,-0.005878661759197712,0.01492355577647686,0.010661166161298752
1761341803521550600,5.711550537109375,-0.0026136261876672506,0.011523764580488205,0.008757805451750755
1761341803531617500,5.721617431640625,-0.007784419693052769,0.014699051156640053,0.005001150071620941
1761341803541683700,5.73168359375,-0.00708667142316699,0.013771738857030869,0.007340470794588327
1761341803551749600,5.74174951171875,-0.0038392129354178905,0.013820474036037922,0.010015616193413734
1761341803561815800,5.75181591796875,-0.004962267819792032,0.011602327227592468,0.007270962465554476
1761341803571881700,5.7618818359375,-0.005359345115721226,0.012289955280721188,0.007429953198879957
1761341803581948700,5.77194873046875,-0.007671501953154802,0.012283829972147942,0.005913016386330128
1761341803592014800,5.782014892578125,-0.006471747532486916,0.013978133909404278,0.008643821813166142
1761341803602080500,5.79208056640625,-0.007233145646750927,0.016021577641367912,0.006298642139881849
1761341803612146700,5.802146728515625,-0.006159359123557806,0.014392521232366562,0.006976683158427477
1761341803622213600,5.812213623046875,-0.005751096177846193,0.011905928142368793,0.008552742190659046
1761341803632279600,5.822279541015625,-0.006474144756793976,0.013032178394496441,0.008831840939819813
1761341803642345700,5.832345703125,-0.006460295990109444,0.013262808322906494,0.008127967827022076
1761341803652411600,5.84241162109375,-0.004932706709951162,0.01384124718606472,0.009097091853618622
1761341803662477800,5.852477783203125,-0.008106129243969917,0.01261219847947359,0.008503207005560398
1761341803672544800,5.862544677734375,-0.004490622319281101,0.013556288555264473,0.007698133587837219
1761341803682610700,5.872610595703125,-0.007750597782433033,0.013652162626385689,0.006263222079724073
1761341803692676900,5.8826767578125,-0.005429386626929045,0.013379987329244614,0.006140716839581728
1761341803702742800,5.89274267578125,-0.0073138391599059105,0.012711267918348312,0.006695719435811043
1761341803712809700,5.902809814453125,-0.0051745218224823475,0.013290771283209324,0.0070547135546803474
1761341803722875600,5.912875732421875,-0.005764145869761705,0.012945892289280891,0.008653408847749233
1761341803732941000,5.922941162109375,-0.005449892953038216,0.014339524321258068,0.009909622371196747
1761341803743007200,5.93300732421875,-0.004894357640296221,0.015184812247753143,0.004590757191181183
1761341803753073200,5.9430732421875,-0.007183078210800886,0.012398879043757915,0.00803315918892622
1761341803763140000,5.95314013671875,-0.00437956815585494,0.012739497236907482,0.005794506054371595
1761341803773206300,5.963206298828125,-0.006594519596546888,0.014095312915742397,0.007245662156492472
1761341803783272200,5.973272216796875,-0.006581736262887716,0.014356302097439766,0.007952997460961342
1761341803793338400,5.98333837890625,-0.004530036821961403,0.015134211629629135,0.008845956064760685
1761341803803405300,5.9934052734375,-0.007020092569291592,0.012658004648983479,0.00902651809155941
1761341803813471200,6.00347119140625,-0.005718073341995478,0.01272884476929903,0.0067780110985040665
1761341803823537200,6.013537109375,-0.007471764925867319,0.014974688179790974,0.00766005041077733
1761341803833603000,6.02360302734375,-0.005863481666892767,0.01387107465416193,0.0070222229696810246
1761341803843669200,6.033669189453125,-0.005833920557051897,0.015308648347854614,0.006037652492523193
1761341803853736200,6.043736083984375,-0.007752994541078806,0.011121094226837158,0.006667756475508213
1761341803863802000,6.053802001953125,-0.006326072849333286,0.014737134799361229,0.008018244989216328
1761341803873868300,6.063868408203125,-0.00523577444255352,0.01366414688527584,0.007130879908800125
1761341803883934200,6.073934326171875,-0.007292001508176327,0.013561348430812359,0.006715427152812481
1761341803894001200,6.084001220703125,-0.007428621407598257,0.014078800566494465,0.008942628279328346
1761341803904067300,6.0940673828125,-0.00740225613117218,0.013080115430057049,0.00506959343329072
1761341803914133200,6.10413330078125,-0.0067878649570047855,0.01221725158393383,0.008237423375248909
1761341803924199200,6.11419921875,-0.006170011591166258,0.013954698108136654,0.007110639940947294
1761341803934265000,6.12426513671875,-0.0043992758728563786,0.013381319120526314,0.007780691608786583
1761341803944332000,6.13433203125,-0.0064927865751087666,0.01350622158497572,0.007919441908597946
1761341803954398200,6.144398193359375,-0.006130064371973276,0.012775982730090618,0.009228918701410294
1761341803964464000,6.154464111328125,-0.004831506870687008,0.01224601361900568,0.006718356627970934
1761341803974530300,6.1645302734375,-0.00574869941920042,0.014838600531220436,0.005028314422816038
1761341803984597200,6.17459716796875,-0.0065351310186088085,0.010344250127673149,0.0044293696992099285
1761341803994663200,6.1846630859375,-0.006431267596781254,0.013276390731334686,0.007741542998701334
1761341804004729300,6.194729248046875,-0.006359628401696682,0.014191718772053719,0.006162022240459919
1761341804014795300,6.204795166015625,-0.005628324579447508,0.012054531835019588,0.007811850402504206
1761341804024862200,6.2148623046875,-0.005203816574066877,0.014056430198252201,0.009046225808560848
1761341804034928000,6.22492822265625,-0.005944708362221718,0.013394635170698166,0.0075796227902174
1761341804044994000,6.234994140625,-0.0041183121502399445,0.014503042213618755,0.008082693442702293
1761341804055060200,6.245060302734375,-0.005033374298363924,0.012684635818004608,0.01040630228817463
1761341804065126100,6.255126220703125,-0.003025883575901389,0.012725116685032845,0.006404103245586157
1761341804075193000,6.265193115234375,-0.008675513789057732,0.013457751832902431,0.007183610461652279
1761341804085259300,6.27525927734375,-0.004933505784720182,0.012804212048649788,0.008477373979985714
1761341804095325200,6.2853251953125,-0.005142563953995705,0.012436696328222752,0.007878429256379604
1761341804105391400,6.295391357421875,-0.007966047152876854,0.011378355324268341,0.00643686018884182
1761341804115458300,6.305458251953125,-0.004319647327065468,0.01224335003644228,0.009306682273745537
1761341804125524200,6.315524169921875,-0.006364688742905855,0.012485964223742485,0.007733553647994995
1761341804135590400,6.32559033203125,-0.007164169568568468,0.013422598131000996,0.0070304786786437035
1761341804145656000,6.335656005859375,-0.00675217853859067,0.013411679305136204,0.007098655682057142
1761341804155722200,6.34572216796875,-0.00598518829792738,0.01261166576296091,0.008779643103480339
1761341804165789200,6.3557890625,-0.0064981128089129925,0.013157347217202187,0.0052208611741662025
1761341804175855000,6.365855224609375,-0.0065100970678031445,0.015796540305018425,0.007983624003827572
1761341804185921300,6.37592138671875,-0.0078059914521873,0.013074789196252823,0.005621666554361582
1761341804195987200,6.3859873046875,-0.005677592940628529,0.013543505221605301,0.007623298559337854
1761341804206054100,6.39605419921875,-0.006736465729773045,0.014647119678556919,0.010015083476901054
1761341804216120300,6.406120361328125,-0.0075697689317166805,0.010130131617188454,0.0087807085365057
1761341804226186200,6.416186279296875,-0.005648830905556679,0.01534699834883213,0.006747917737811804
1761341804236252400,6.42625244140625,-0.0065162223763763905,0.013689180836081505,0.007276288699358702
1761341804246318000,6.436318115234375,-0.007868575863540173,0.013769874349236488,0.009405486285686493
1761341804256385000,6.446385009765625,-0.008138087578117847,0.014128868468105793,0.0076299565844237804
1761341804266451200,6.456451171875,-0.0036360137164592743,0.014104899950325489,0.007698665838688612
1761341804276517000,6.46651708984375,-0.005937517620623112,0.012414325028657913,0.007911186665296555
1761341804286583300,6.476583251953125,-0.006022206041961908,0.013170929625630379,0.006671750918030739
1761341804296650200,6.486650146484375,-0.007276821415871382,0.013307017274200916,0.006115150637924671
1761341804306716200,6.496716064453125,-0.006937268190085888,0.01618136651813984,0.007601194549351931
1761341804316782300,6.5067822265625,-0.008325307630002499,0.014427941292524338,0.006480802316218615
1761341804326848300,6.51684814453125,-0.007783354725688696,0.012463327497243881,0.005976399872452021
1761341804336914200,6.5269140625,-0.0048799761570990086,0.014533402398228645,0.008450742810964584
1761341804346981400,6.5369814453125,-0.005833654198795557,0.01324070431292057,0.00939243659377098
1761341804357047000,6.547047119140625,-0.007290403358638287,0.013730193488299847,0.009029979817569256
1761341804367113200,6.55711328125,-0.007813714444637299,0.010159427300095558,0.00827018078416586
1761341804377179100,6.56717919921875,-0.00571833923459053,0.014491857029497623,0.0059846555814146996
1761341804387246000,6.57724609375,-0.008301339112222195,0.013112340122461319,0.008113053627312183
1761341804397312300,6.587312255859375,-0.006680007092654705,0.014727813191711903,0.009500028565526009
1761341804407378200,6.597378173828125,-0.007392402272671461,0.013282516039907932,0.009039834141731262
1761341804417444400,6.6074443359375,-0.0063210129737854,0.010876616463065147,0.009298959746956825
1761341804427510300,6.61751025390625,-0.0055063520558178425,0.015151522122323513,0.007986021228134632
1761341804437577200,6.6275771484375,-0.006800648290663958,0.010757572948932648,0.009633985348045826
1761341804447643400,6.637643310546875,-0.009677127934992313,0.011537079699337482,0.007636614143848419
1761341804457709300,6.647709228515625,-0.0052024852484464645,0.015858592465519905,0.004894091282039881
1761341804467775200,6.657775146484375,-0.00782356783747673,0.01275760680437088,0.008702944032847881
1761341804477842200,6.66784228515625,-0.0059966398403048515,0.01116423774510622,0.00899562519043684
1761341804487908000,6.677908203125,-0.008036620914936066,0.015083079226315022,0.0052291168831288815
1761341804497974300,6.687974365234375,-0.00703820213675499,0.014055897481739521,0.008987636305391788
1761341804508040200,6.698040283203125,-0.007543137297034264,0.014271081425249577,0.009458216838538647
1761341804518106000,6.708106201171875,-0.007393467705696821,0.010893660597503185,0.010779943317174911
1761341804528173300,6.71817333984375,-0.007362042553722858,0.013366139493882656,0.006611830089241266
1761341804538239200,6.7282392578125,-0.006342317909002304,0.016458069905638695,0.009549296461045742
1761341804548305200,6.73830517578125,-0.008833971805870533,0.012315788306295872,0.00833729188889265
1761341804558371300,6.748371337890625,-0.006897054612636566,0.015165104530751705,0.008823052980005741
1761341804568438300,6.758438232421875,-0.007601460441946983,0.013827664777636528,0.006009423173964024
1761341804578504200,6.768504150390625,-0.0062395199202001095,0.010436128824949265,0.007742075715214014
1761341804588570000,6.778570068359375,-0.005321261938661337,0.01440849993377924,0.009309612214565277
1761341804598636000,6.788635986328125,-0.00501073757186532,0.013976802118122578,0.008915464393794537
1761341804608703200,6.798703125,-0.006016613449901342,0.012371448799967766,0.008671784773468971
1761341804618769200,6.80876904296875,-0.007672833278775215,0.012938168831169605,0.008790561929345131
1761341804628835300,6.81883544921875,-0.004381965380162001,0.012988769449293613,0.00860600546002388
1761341804638901200,6.8289013671875,-0.006712231319397688,0.014506504870951176,0.004698881413787603
1761341804648967200,6.83896728515625,-0.006310360040515661,0.011215636506676674,0.011112039908766747
1761341804659034400,6.849034423828125,-0.006394516211003065,0.013735253363847733,0.009125853888690472
1761341804669100300,6.859100341796875,-0.006555637344717979,0.012897422537207603,0.008831840939819813
1761341804679166200,6.869166259765625,-0.0073378076776862144,0.013082779012620449,0.009137838147580624
1761341804689232100,6.879232177734375,-0.005480519030243158,0.014637798070907593,0.00948165263980627
1761341804699299000,6.889299072265625,-0.0070523167960345745,0.01329796202480793,0.004057858604937792
1761341804709365200,6.899365234375,-0.006683202926069498,0.01486256904900074,0.006977482233196497
1761341804719431200,6.90943115234375,-0.007115167565643787,0.013517673127353191,0.007730890065431595
1761341804729497600,6.91949755859375,-0.006479204632341862,0.014532336965203285,0.00643765926361084
1761341804739563500,6.9295634765625,-0.002514290390536189,0.013592507690191269,0.005502090789377689
1761341804749630700,6.939630615234375,-0.008288822136819363,0.015629027038812637,0.008613727986812592
1761341804759696400,6.9496962890625,-0.005760950036346912,0.011684618890285492,0.009769007563591003
1761341804769762600,6.959762451171875,-0.008020908571779728,0.014478275552392006,0.0065740132704377174
1761341804779828500,6.969828369140625,-0.004349741153419018,0.012853214517235756,0.009965814650058746
1761341804789895400,6.9798955078125,-0.0038272286765277386,0.01576697826385498,0.010839065536856651
1761341804799961600,6.989961669921875,-0.005599296186119318,0.015413044951856136,0.009186574257910252
1761341804810027500,7.000027587890625,-0.004895955324172974,0.012508068233728409,0.009679525159299374
1761341804820093700,7.01009375,-0.005676261615008116,0.012598083354532719,0.009966880083084106
1761341804830159600,7.02015966796875,-0.006431001238524914,0.011320298537611961,0.006875482853502035
1761341804840226600,7.0302265625,-0.003403253620490432,0.014028200879693031,0.009385245852172375
1761341804850292700,7.040292724609375,-0.004987568128854036,0.010632137767970562,0.006380667444318533
1761341804860358400,7.0503583984375,-0.005285841878503561,0.011661982163786888,0.010277670808136463
1761341804870424600,7.060424560546875,-0.005055478774011135,0.014659370295703411,0.00749227125197649
1761341804880491500,7.070491455078125,-0.00663420045748353,0.011924037709832191,0.008681106381118298
1761341804890557400,7.080557373046875,-0.006771353539079428,0.012374644167721272,0.008280566893517971
1761341804900623600,7.09062353515625,-0.00509915454313159,0.011324027553200722,0.00643765926361084
1761341804910689500,7.100689453125,-0.008156996220350266,0.013512879610061646,0.00833729188889265
1761341804920755700,7.110755615234375,-0.005015531089156866,0.01450171135365963,0.007397462613880634
1761341804930822700,7.12082275390625,-0.006982009392231703,0.013613280840218067,0.010876882821321487
1761341804940888600,7.130888671875,-0.007414773106575012,0.01317945122718811,0.004576376173645258
1761341804950954800,7.140954833984375,-0.007142331451177597,0.011484615504741669,0.00663526589050889
1761341804961020400,7.1510205078125,-0.004081560764461756,0.013435914181172848,0.007693339604884386
1761341804971087400,7.16108740234375,-0.008191617205739021,0.014694790355861187,0.006655505858361721
1761341804981153500,7.171153564453125,-0.006709834095090628,0.013057212345302105,0.007505853194743395
1761341804991219500,7.181219482421875,-0.005998237524181604,0.014255900867283344,0.0068123661912977695
1761341805001285600,7.19128564453125,-0.005804892163723707,0.013051087036728859,0.008652077987790108
1761341805011351600,7.2013515625,-0.004765193909406662,0.01335521973669529,0.00959723349660635
1761341805021418500,7.21141845703125,-0.005628590937703848,0.011247594840824604,0.0068001155741512775
1761341805031484700,7.221484619140625,-0.007211041171103716,0.01270034909248352,0.0064895907416939735
1761341805041550600,7.231550537109375,-0.006178000941872597,0.01257997378706932,0.006126335822045803
1761341805051616800,7.24161669921875,-0.005133775528520346,0.01571504771709442,0.006957774516195059
1761341805061683700,7.25168359375,-0.007705057505518198,0.011424428783357143,0.007121026515960693
1761341805071749600,7.26174951171875,-0.008872853592038155,0.013308614492416382,0.008701079525053501
1761341805081815600,7.271815673828125,-0.007437409833073616,0.016413593664765358,0.007095992565155029
1761341805091881500,7.281881591796875,-0.006030728109180927,0.011095261201262474,0.01085744146257639
1761341805101947600,7.29194775390625,-0.005864280741661787,0.014738199301064014,0.007179349660873413
1761341805112014600,7.3020146484375,-0.00660543842241168,0.013015400618314743,0.010585798881947994
1761341805122080500,7.31208056640625,-0.006795055698603392,0.013591175898909569,0.009701895527541637
1761341805132146700,7.322146728515625,-0.004728176165372133,0.013554691337049007,0.007517571095377207
1761341805142212600,7.332212646484375,-0.0048738508485257626,0.015851400792598724,0.007274956908077002
1761341805152279600,7.342279541015625,-0.005007009021937847,0.012783972546458244,0.010716826654970646
1761341805162345700,7.352345703125,-0.004743356257677078,0.012228436768054962,0.006859504152089357
1761341805172411600,7.36241162109375,-0.008564726449549198,0.015667909756302834,0.005873335525393486
1761341805182477600,7.3724775390625,-0.008896555751562119,0.01263882964849472,0.008827047422528267
1761341805192543500,7.38254345703125,-0.006086121778935194,0.014315289445221424,0.004087419714778662
1761341805202610400,7.3926103515625,-0.007003581151366234,0.012793559581041336,0.007695470005273819
1761341805212676600,7.402676513671875,-0.006341785658150911,0.012754145078361034,0.008052334189414978
1761341805222742500,7.412742431640625,-0.00649651512503624,0.013449229300022125,0.008610798977315426
1761341805232808700,7.42280859375,-0.006368949543684721,0.013134976848959923,0.007388940546661615
1761341805242875600,7.432875732421875,-0.007020891644060612,0.01176078524440527,0.007377754896879196
1761341805252941600,7.442941650390625,-0.003905525663867593,0.015245531685650349,0.006960171274840832
1761341805263007700,7.4530078125,-0.006689061876386404,0.013230850920081139,0.00541473925113678
1761341805273073700,7.46307373046875,-0.005167597904801369,0.01414537988603115,0.007421963382512331
1761341805283139600,7.4731396484375,-0.006879211403429508,0.013920608907938004,0.008159925229847431
1761341805293206800,7.483206787109375,-0.006046707276254892,0.012809271924197674,0.007426757365465164
1761341805303272400,7.4932724609375,-0.007499195169657469,0.013858024962246418,0.00902491994202137
1761341805313338600,7.503338623046875,-0.004863731097429991,0.013215137645602226,0.008385761640965939
1761341805323404500,7.513404541015625,-0.007379086688160896,0.012917929328978062,0.01034531556069851
1761341805333471500,7.523471435546875,-0.005474393721669912,0.015154185704886913,0.008437426760792732
1761341805343537700,7.53353759765625,-0.0037622477393597364,0.012293151579797268,0.007400392089039087
1761341805353603600,7.543603515625,-0.004890895448625088,0.011917379684746265,0.007479754276573658
1761341805363669800,7.553669677734375,-0.005548962391912937,0.015104117803275585,0.00731304008513689
1761341805373735700,7.563735595703125,-0.007268565706908703,0.012798619456589222,0.011053716763854027
1761341805383802600,7.573802734375,-0.0054967645555734634,0.014443919993937016,0.009066731669008732
1761341805393868800,7.583868896484375,-0.007511978503316641,0.01395789347589016,0.008882706984877586
1761341805403934500,7.5939345703125,-0.005635515321046114,0.012556271627545357,0.00785552617162466
1761341805414000400,7.60400048828125,-0.003979029133915901,0.016289224848151207,0.007325024344027042
1761341805424066600,7.614066650390625,-0.004436559975147247,0.011629492044448853,0.007977498695254326
1761341805434133500,7.624133544921875,-0.006523413117974997,0.013606889173388481,0.005781722720712423
1761341805444199700,7.63419970703125,-0.005914081819355488,0.014336328953504562,0.009016664698719978
1761341805454265600,7.644265625,-0.007075752597302198,0.012618856504559517,0.008700813166797161
1761341805464331500,7.65433154296875,-0.0047058057971298695,0.014545919373631477,0.007909055799245834
1761341805474398700,7.664398681640625,-0.007867510430514812,0.011596201919019222,0.006990265101194382
1761341805484464600,7.674464599609375,-0.0073324814438819885,0.014637266285717487,0.005960420705378056
1761341805494530600,7.684530517578125,-0.007741809356957674,0.015517973341047764,0.006170544307678938
1761341805504596500,7.694596435546875,-0.005041630007326603,0.012736035510897636,0.007530088070780039
1761341805514663400,7.704663330078125,-0.006810235325247049,0.015603993088006973,0.008431035093963146
1761341805524729600,7.7147294921875,-0.004780374001711607,0.013548299670219421,0.006412359420210123
1761341805534795500,7.72479541015625,-0.005801696330308914,0.014887869358062744,0.010431868024170399
1761341805544861400,7.734861328125,-0.004681038204580545,0.014229536056518555,0.007458448875695467
1761341805554927600,7.744927734375,-0.006727410946041346,0.014493987895548344,0.006195844151079655
1761341805564994600,7.75499462890625,-0.005360410548746586,0.01543434988707304,0.004727909807115793
1761341805575060500,7.765060546875,-0.0063002402894198895,0.012974654324352741,0.009637713432312012
1761341805585126700,7.775126708984375,-0.006409962195903063,0.014248711057007313,0.006714628078043461
1761341805595192600,7.785192626953125,-0.004760933108627796,0.013891846872866154,0.008231564424932003
1761341805605259800,7.795259765625,-0.00708747049793601,0.010510165244340897,0.0057678744196891785
1761341805615325700,7.80532568359375,-0.007028614636510611,0.01438426598906517,0.007195861078798771
1761341805625391400,7.815391357421875,-0.008549279533326626,0.014445518143475056,0.006079996936023235
1761341805635457500,7.82545751953125,-0.008533034473657608,0.012838833034038544,0.009856092743575573
1761341805645523500,7.8355234375,-0.005802495405077934,0.013626063242554665,0.005278118886053562
1761341805655590700,7.845590576171875,-0.0027316042687743902,0.014197311364114285,0.007245928514748812
1761341805665656600,7.855656494140625,-0.007706655655056238,0.015006380155682564,0.005588909611105919
1761341805675722500,7.865722412109375,-0.005051750224083662,0.015110509470105171,0.008597749285399914
1761341805685788700,7.87578857421875,-0.006138852797448635,0.014574681408703327,0.009275523945689201
1761341805695854600,7.8858544921875,-0.0060179452411830425,0.014361095614731312,0.006174272391945124
1761341805705921500,7.895921630859375,-0.006991330534219742,0.014660169370472431,0.008607869036495686
1761341805715987700,7.90598779296875,-0.005093029234558344,0.015015168115496635,0.006000634748488665
1761341805726053400,7.916053466796875,-0.0068147629499435425,0.014189322479069233,0.008535430766642094
1761341805736120000,7.9261201171875,-0.006037119776010513,0.014169082045555115,0.008022506721317768
1761341805746187000,7.93618701171875,-0.00857111718505621,0.014602378010749817,0.00589757040143013
1761341805756253000,7.9462529296875,-0.005916478578001261,0.014202105812728405,0.00845819991081953
1761341805766319000,7.956319091796875,-0.008227569982409477,0.012974121607840061,0.007918110117316246
1761341805776385000,7.966385009765625,-0.004831506870687008,0.012488095089793205,0.007947671227157116
1761341805786452000,7.976451904296875,-0.008888034150004387,0.011284345760941505,0.007420898415148258
1761341805796518000,7.986517822265625,-0.00774793466553092,0.012820723466575146,0.007352455053478479
1761341805806583800,7.996583740234375,-0.005950300954282284,0.010416954755783081,0.009013734757900238
1761341805816650000,8.00664990234375,-0.006749249063432217,0.014172011986374855,0.005935653578490019
1761341805826716000,8.0167158203125,-0.003954527899622917,0.01483620423823595,0.005983057431876659
1761341805836782800,8.026782958984375,-0.005932457745075226,0.01549267303198576,0.00618306128308177
1761341805846849000,8.03684912109375,-0.008844890631735325,0.012419384904205799,0.007533283904194832
1761341805856915000,8.0469150390625,-0.005166798830032349,0.014240987598896027,0.007423295173794031
1761341805866981000,8.056981201171874,-0.0062818643637001514,0.012673716992139816,0.006627542432397604
1761341805877048000,8.067048095703125,-0.0059724049642682076,0.012105931527912617,0.007379619404673576
1761341805887114000,8.077114013671874,-0.006567355245351791,0.013882792554795742,0.007138869725167751
1761341805897180000,8.087179931640625,-0.006556968670338392,0.014031928963959217,0.0046818372793495655
1761341805907245800,8.097245849609376,-0.007514375261962414,0.012438027188181877,0.01005316711962223
1761341805917312000,8.10731201171875,-0.004837632179260254,0.012996758334338665,0.00851252768188715
1761341805927379000,8.11737890625,-0.004477838985621929,0.014120878651738167,0.005662945564836264
1761341805937444900,8.12744482421875,-0.006851780693978071,0.012561331503093243,0.007589742541313171
1761341805947511000,8.137510986328126,-0.007072556763887405,0.01492435485124588,0.00746031291782856
1761341805957577000,8.147576904296875,-0.007020891644060612,0.016049539670348167,0.006690126843750477
1761341805967643100,8.15764306640625,-0.004118045791983604,0.013452691957354546,0.005850432440638542
1761341805977710000,8.1677099609375,-0.005503688473254442,0.014257765375077724,0.01019751001149416
1761341805987776000,8.17777587890625,-0.005795304663479328,0.01498081348836422,0.008252337574958801
1761341805997842000,8.187842041015625,-0.005891445092856884,0.014623683877289295,0.011129350401461124
1761341806007907800,8.197907958984375,-0.006698382552713156,0.015232215635478497,0.006914631463587284
1761341806017974800,8.207974853515625,-0.008161523379385471,0.012287558987736702,0.007105313707143068
1761341806028041000,8.218041015625,-0.006283462047576904,0.013688381761312485,0.005222725216299295
1761341806038107000,8.22810693359375,-0.007485346868634224,0.013509150594472885,0.008271511644124985
1761341806048173000,8.238173095703125,-0.008858739398419857,0.011786884628236294,0.008832373656332493
1761341806058239000,8.248239013671874,-0.008438225835561752,0.014625015668570995,0.007692274637520313
1761341806068306000,8.258305908203125,-0.007133277133107185,0.010949852876365185,0.0065018413588404655
1761341806078372000,8.2683720703125,-0.003629622282460332,0.014517690055072308,0.008423578925430775
1761341806088438000,8.27843798828125,-0.007268032990396023,0.01119246706366539,0.006141515914350748
1761341806098504200,8.288504150390626,-0.007488276343792677,0.013199425302445889,0.007909854874014854
1761341806108571100,8.298571044921875,-0.004718055948615074,0.014190919697284698,0.005248025059700012
1761341806118636800,8.30863671875,-0.007537011988461018,0.01261060032993555,0.007457916159182787
1761341806128703000,8.318702880859375,-0.005110606085509062,0.013554158620536327,0.007571633439511061
1761341806138769000,8.328768798828126,-0.006714095361530781,0.012744557112455368,0.00726297264918685
1761341806148834800,8.338834716796875,-0.004683168604969978,0.01386921014636755,0.007752195466309786
1761341806158902000,8.348902099609376,-0.005927930120378733,0.014157097786664963,0.006849383935332298
1761341806168968000,8.358968017578125,-0.007496798411011696,0.013295832090079784,0.008019044063985348
1761341806179034000,8.3690341796875,-0.003613909473642707,0.014223410747945309,0.008799617178738117
1761341806189100000,8.37910009765625,-0.004802478477358818,0.011178351938724518,0.008843825198709965
1761341806199167000,8.3891669921875,-0.006630471907556057,0.013363209553062916,0.00920068845152855
1761341806209233200,8.399233154296875,-0.006696784868836403,0.013968279585242271,0.008156463503837585
1761341806219298800,8.409298828125,-0.0075812204740941525,0.012287825345993042,0.005262672435492277
1761341806229365000,8.419364990234374,-0.0073018549010157585,0.011538145132362843,0.005648564547300339
1761341806239431000,8.429430908203125,-0.007591607049107552,0.014998656697571278,0.006738063879311085
1761341806249497900,8.439497802734374,-0.006470416206866503,0.01362526509910822,0.00717482203617692
1761341806259564000,8.44956396484375,-0.004680239129811525,0.012571185827255249,0.009940781630575657
1761341806269631000,8.459630859375,-0.006717557553201914,0.012775183655321598,0.007937018759548664
1761341806279697000,8.46969677734375,-0.005031243897974491,0.012862002477049828,0.008964200504124165
1761341806289763000,8.47976318359375,-0.006057093385607004,0.015055914409458637,0.006813963875174522
1761341806299829000,8.4898291015625,-0.004195277579128742,0.014140053652226925,0.00947739090770483
1761341806309896000,8.49989599609375,-0.005914081819355488,0.013317936100065708,0.004099403973668814
1761341806319962000,8.509962158203125,-0.00703926756978035,0.013428457081317902,0.007328486535698175
1761341806330028000,8.520028076171876,-0.005898102652281523,0.011608718894422054,0.008275507017970085
1761341806340094000,8.530093994140625,-0.005203017964959145,0.01738138683140278,0.006488525774329901
1761341806350160000,8.540159912109376,-0.006689860485494137,0.01210007257759571,0.005483448505401611
1761341806360226800,8.550226806640625,-0.005027781706303358,0.013051619753241539,0.007637945935130119
1761341806370293000,8.56029296875,-0.007522630970925093,0.012976518832147121,0.007985488511621952
1761341806380359000,8.57035888671875,-0.006013950332999229,0.026635872200131416,0.012485165148973465
1761341806390425000,8.580425048828126,-0.00321816373616457,-0.014987205155193806,-0.001847701147198677
1761341806400492000,8.590491943359375,-0.005509547423571348,0.012731241062283516,0.007360710762441158
1761341806410558000,8.600557861328125,-0.0062187472358345985,0.011509116739034653,0.007792941760271788
1761341806420624100,8.6106240234375,-0.007149255834519863,0.008681639097630978,0.007829426787793636
1761341806430690000,8.62068994140625,-0.006159891374409199,0.010374610312283039,0.006690126843750477
1761341806440756000,8.630755859375,-0.007789480034261942,0.010637197643518448,0.005857889074832201
1761341806450823200,8.6408232421875,-0.00669225724413991,0.007330883294343948,0.006106362212449312
1761341806460888800,8.650888916015624,-0.0076272934675216675,0.009693373925983906,0.006849650293588638
1761341806470955000,8.660955078125,-0.006672549992799759,0.012386894784867764,0.006896255537867546
