time,seconds_elapsed,z,y,x
1761341797892011800,0.08201171875,0.0004972317256033421,-0.00045777298510074615,-0.0009504375047981739
1761341797902078000,0.092077880859375,-0.00011154869571328163,-0.0008503813296556473,-0.0022995546460151672
1761341797912144000,0.102143798828125,0.0001973779872059822,0.000728340819478035,-0.0006811516359448433
1761341797922210000,0.1122099609375,-0.001396489329636097,-0.0001471908763051033,-0.0013988553546369076
1761341797932277000,0.122277099609375,-0.0007469444535672665,0.0001185927540063858,0.0013732286170125008
1761341797942342700,0.1323427734375,-0.0005906694568693638,0.0017391545698046684,-0.001960553228855133
1761341797952408800,0.142408935546875,-0.0006580473855137825,0.0005370033904910088,-0.001108607742935419
1761341797962474800,0.152474853515625,0.0009165783412754536,-0.0013597281649708748,-0.0005849171429872513
1761341797972541000,0.162541015625,-0.00158705934882164,0.0008917078375816345,-0.00042672548443078995
1761341797982608000,0.17260791015625,0.00019106408581137657,-0.0001805061474442482,-0.0033073122613132
1761341797992673800,0.182673828125,0.0012408820912241936,0.00031271111220121384,0.001784385647624731
1761341798002740000,0.192739990234375,0.00033619673922657967,0.0003214748576283455,-0.0015403996221721172
1761341798012806000,0.202805908203125,-0.0003032279200851917,-0.0005983803421258926,0.0001115589402616024
1761341798022872800,0.212872802734375,-0.00013335561379790306,-0.0001352839171886444,-0.0006890115328133106
1761341798032939000,0.22293896484375,0.00044694729149341583,-0.0022130822762846947,0.0003927643410861492
1761341798043004700,0.233004638671875,-0.0007335944101214409,0.0016835322603583336,0.003397014457732439
1761341798053070800,0.24307080078125,-0.0015722238458693027,-0.0021500885486602783,-0.0012462073937058449
1761341798063137800,0.2531376953125,-0.00031375279650092125,0.0014982502907514572,0.0011511719785630703
1761341798073203700,0.26320361328125,-0.001635745633393526,0.000695839524269104,-0.0016688494943082333
1761341798083270000,0.273269775390625,-0.00042434968054294586,-0.00014872290194034576,-0.0005834521725773811
1761341798093335800,0.283335693359375,0.0008260044269263744,0.0002462239935994148,-0.002556055784225464
1761341798103402800,0.29340283203125,0.0016046157106757164,0.0026328982785344124,-0.00038846535608172417
1761341798113469000,0.303468994140625,0.00114468764513731,-0.001273958943784237,-0.0011203018948435783
1761341798123534800,0.313534912109375,0.001433738972991705,-0.00005552079528570175,-0.0019478332251310349
1761341798133601000,0.32360107421875,-0.0007865382358431816,-0.003394857980310917,-0.00048069795593619347
1761341798143667000,0.3336669921875,0.0004480401985347271,-0.0013070320710539818,0.0013549486175179482
1761341798153734000,0.34373388671875,-0.0013679694384336472,0.0005888724699616432,0.00008115917444229126
1761341798163799800,0.3537998046875,0.0024182996712625027,-0.0010150419548153877,-0.0011454285122454166
1761341798173865700,0.36386572265625,-0.0005766912363469601,0.0010318635031580925,-0.001093497034162283
1761341798183932000,0.373931884765625,-0.0014936882071197033,-0.003510330803692341,0.0011075753718614578
1761341798193998800,0.383998779296875,-0.0000031171366572380066,-0.00002105720341205597,-0.0023558656685054302
1761341798204064800,0.394064697265625,0.001471023540943861,0.0006107520312070847,-0.00031964341178536415
1761341798214131000,0.404130859375,-0.001925039105117321,-0.00014904793351888657,-0.00203898036852479
1761341798224196900,0.41419677734375,-0.0010713678784668446,-0.0019252682104706764,0.0007060253992676735
1761341798234263800,0.424263916015625,0.0007459735497832298,0.001802625134587288,0.0018083080649375916
1761341798244330000,0.434330078125,0.0009567467495799065,-0.0013207970187067986,-0.0015444131568074226
1761341798254396000,0.44439599609375,-0.00023741461336612701,-0.0016947044059634209,-0.0020272438414394855
1761341798264461800,0.4544619140625,-0.0016681491397321224,-0.0018438762053847313,0.00018302211537957191
1761341798274529000,0.464529052734375,-0.0018393904902040958,0.0007082317024469376,0.0040105171501636505
1761341798284594700,0.4745947265625,-0.002022832166403532,0.00032850727438926697,-0.0003053690306842327
1761341798294660900,0.484660888671875,0.0011740266345441341,0.0012353137135505676,0.0014746873639523983
1761341798304726800,0.494726806640625,0.0002764812670648098,0.0015234025195240974,-0.0017366665415465832
1761341798314793700,0.504793701171875,-0.0013523083180189133,0.0019383225589990616,-0.000056478194892406464
1761341798324860000,0.51485986328125,0.00011271703988313675,-0.0001753196120262146,-0.0009373044595122337
1761341798334925800,0.52492578125,0.0010120668448507786,0.00009845290333032608,-0.001914151944220066
1761341798344992000,0.534991943359375,-0.0012983577325940132,-0.0016662999987602234,-0.0012144912034273148
1761341798355059000,0.545058837890625,-0.00006664544343948364,0.0011670375242829323,0.001226562075316906
1761341798365124900,0.555124755859375,-0.000003402121365070343,0.0006683273240923882,0.0001341337338089943
1761341798375191000,0.56519091796875,-0.0010460293851792812,0.00038443412631750107,0.0027807834558188915
1761341798385256700,0.575256591796875,0.0007690940983593464,-0.0007785502821207047,-0.0020021870732307434
1761341798395323600,0.58532373046875,-0.0020432043820619583,-0.0019676517695188522,-0.002118833363056183
1761341798405389800,0.595389892578125,-0.0012926463969051838,0.000566345639526844,-0.0011118920519948006
1761341798415455700,0.605455810546875,-0.0007941029034554958,-0.0003167586401104927,-0.0014290749095380306
1761341798425522000,0.61552197265625,-0.00020137103274464607,0.0007296642288565636,0.002196983899921179
1761341798435587800,0.625587890625,-0.00020749634131789207,-0.000038125552237033844,0.001626002136617899
1761341798445654800,0.63565478515625,-0.00019998988136649132,-0.002310527488589287,-0.0012727226130664349
1761341798455721000,0.645720947265625,0.002363036386668682,-0.0005150241777300835,0.0028889989480376244
1761341798465787000,0.655786865234375,0.0027524803299456835,0.0012561175972223282,-0.0036182659678161144
1761341798475853000,0.66585302734375,0.001441672444343567,-0.0012187585234642029,0.002581572625786066
1761341798485920000,0.675919921875,-0.0025898213498294353,0.001621536910533905,-0.00034635886549949646
1761341798495986000,0.68598583984375,0.0032339792232960463,-0.00016890652477741241,-0.0006116097792983055
1761341798506051800,0.6960517578125,0.0003644125536084175,0.0024341698735952377,0.0008724560029804707
1761341798516117800,0.70611767578125,0.00006107892841100693,0.0017617223784327507,-0.0018029557541012764
1761341798526184700,0.716184814453125,0.001966678537428379,0.0026187514886260033,0.0011468888260424137
1761341798536251000,0.7262509765625,-0.0012789159081876278,0.0023252712562680244,0.002128796186298132
1761341798546316800,0.73631689453125,-0.0011908495798707008,-0.0025405650958418846,0.001950572244822979
1761341798556383000,0.746383056640625,0.00046750064939260483,0.0012088995426893234,-0.00011470913887023926
1761341798566450000,0.756449951171875,0.0013884813524782658,0.00026478804647922516,-0.0025610877200961113
1761341798576515800,0.766515869140625,0.0014470708556473255,0.0002701142802834511,-0.000510720070451498
1761341798586582000,0.77658203125,0.0007410100661218166,0.0007575415074825287,0.0022590365260839462
1761341798596648000,0.78664794921875,0.00032475823536515236,0.00003822147846221924,0.0007093437016010284
1761341798606715000,0.79671484375,0.002316125202924013,0.0024865539744496346,0.00006458209827542305
1761341798616780800,0.80678076171875,0.0006556445732712746,0.0016897358000278473,-0.002349307294934988
1761341798626846700,0.8168466796875,-0.0009202682413160801,0.0017985515296459198,-0.001875503920018673
1761341798636913000,0.826912841796875,-0.0011551589705049992,-0.00046726595610380173,0.0013916618190705776
1761341798646978800,0.836978759765625,0.0018697185441851616,-0.00022070761770009995,-0.00009766360744833946
1761341798657045800,0.847045654296875,0.0006763562560081482,0.00003149360418319702,0.0012927730567753315
1761341798667112000,0.85711181640625,0.001463692169636488,0.0004472816362977028,0.0017857830971479416
1761341798677177900,0.867177734375,0.0002666013315320015,0.002579408697783947,0.0010443590581417084
1761341798687244000,0.877244140625,-0.0013436218723654747,0.001263640820980072,-0.0007507367990911007
1761341798697311000,0.88731103515625,0.000008731149137020111,0.0012481948360800743,0.0021728817373514175
1761341798707377000,0.897376953125,0.0006917361170053482,0.0012125521898269653,-0.0006513427942991257
1761341798717442800,0.90744287109375,0.000004373956471681595,0.00028710346668958664,0.0010341722518205643
1761341798727508700,0.9175087890625,-0.00003067590296268463,-0.00012284517288208008,-0.002879135310649872
1761341798737575700,0.92757568359375,-0.0014685164205729961,-0.0003910260275006294,-0.0007001366466283798
1761341798747641900,0.937641845703125,-0.00005446514114737511,-0.0009351326152682304,-0.0019356687553226948
1761341798757707800,0.947707763671875,-0.00023955479264259338,0.0011836783960461617,-0.0002855737693607807
1761341798767774000,0.95777392578125,0.00035091908648610115,0.001147449016571045,-0.002205934375524521
1761341798777841000,0.9678408203125,-0.0024011917412281036,0.0007743397727608681,0.0011674915440380573
1761341798787906800,0.97790673828125,0.0010913587175309658,0.00005613081157207489,-0.0005297884345054626
1761341798797973000,0.987972900390625,0.0011004135012626648,-0.00047996360808610916,0.0011306926608085632
1761341798808039000,0.998038818359375,0.001161998137831688,-0.0008629048243165016,0.0014240718446671963
1761341798818105000,1.00810498046875,-0.0020258058793842793,0.0009064991027116776,-0.00007209228351712227
1761341798828172000,1.018172119140625,-0.0012612538412213326,-0.0021505458280444145,-0.0022571636363863945
1761341798838237700,1.02823779296875,0.00011506816372275352,-0.0012349514290690422,-0.0004091961309313774
1761341798848303900,1.038303955078125,0.0014708423987030983,-0.0011409753933548927,-0.002014713827520609
1761341798858369800,1.048369873046875,0.0007107765413820744,-0.0009702667593955994,0.0008047749288380146
1761341798868436700,1.058436767578125,0.0011575259268283844,-0.0007332861423492432,0.0005006664432585239
1761341798878503000,1.0685029296875,0.0018837698735296726,-0.00002994481474161148,-0.00045221252366900444
1761341798888568800,1.07856884765625,0.0019681416451931,-0.00032081082463264465,0.0007206415757536888
1761341798898635000,1.088635009765625,-0.001467069610953331,-0.0011314768344163895,-0.0007382379844784737
1761341798908702000,1.098701904296875,0.00011578155681490898,-0.00040619540959596634,0.0014584735035896301
1761341798918767900,1.108767822265625,-0.0026256758719682693,-0.0006922194734215736,-0.000027038156986236572
1761341798928834000,1.118833984375,0.0012223459780216217,0.002337806858122349,-0.0013629323802888393
1761341798938899700,1.128899658203125,-0.002877057995647192,0.00015215110033750534,0.0009276522323489189
1761341798948967000,1.138966796875,0.0005291635170578957,-0.001674051396548748,-0.002217623870819807
1761341798959032800,1.14903271484375,0.0014860373921692371,-0.0012498106807470322,0.001169383991509676
1761341798969098800,1.1590986328125,0.0001955484040081501,-0.00008824840188026428,0.00044132815673947334
1761341798979165000,1.1691650390625,0.002021411433815956,-0.0021721720695495605,-0.0020473957993090153
1761341798989231900,1.17923193359375,-0.0010472615249454975,0.0015691881999373436,0.0021291044540703297
1761341798999297800,1.1892978515625,0.000369273591786623,0.00046291109174489975,0.00008965609595179558
1761341799009364000,1.199364013671875,0.001473772805184126,-0.001686587929725647,-0.00196539843454957
1761341799019430000,1.209429931640625,-0.0016061724163591862,-0.00038004107773303986,-0.0020903004333376884
1761341799029496000,1.21949609375,-0.0005911770276725292,0.0014509735628962517,-0.0005826777778565884
1761341799039563000,1.22956298828125,0.0005878042429685593,-0.000046788714826107025,0.003300477284938097
1761341799049629000,1.23962890625,0.0022706128656864166,0.00045670662075281143,0.0011760108172893524
1761341799059694800,1.24969482421875,0.00046339211985468864,-0.00016247853636741638,-0.0005395980551838875
1761341799069760800,1.2597607421875,-0.0002872990444302559,0.00003015901893377304,0.0004074987955391407
1761341799079827700,1.26982763671875,0.0019119391217827797,0.0013921000063419342,-0.0011869356967508793
1761341799089894000,1.279893798828125,-0.001513793133199215,-0.0002599181607365608,0.003107864875346422
1761341799099959800,1.289959716796875,-0.0006269603036344051,-0.001843433827161789,-0.0027212626300752163
1761341799110026000,1.30002587890625,-0.002023260109126568,0.0003607645630836487,0.0006816443055868149
1761341799120093000,1.310093017578125,0.0012191389687359333,0.00033173616975545883,0.0007029492408037186
1761341799130158800,1.320158935546875,-0.0006885519251227379,-0.0009473925456404686,-0.001342502422630787
1761341799140225000,1.33022509765625,0.0034236351493746042,0.0000656740739941597,0.00013262219727039337
1761341799150291000,1.340291015625,-0.0036952299997210503,0.0022154459729790688,-0.0020168600603938103
1761341799160356900,1.35035693359375,0.0014995317906141281,0.0005594929680228233,0.0004676026292145252
1761341799170424000,1.360424072265625,-0.0004651239141821861,0.0011401930823922157,-0.001711063552647829
1761341799180489700,1.37048974609375,-0.00008216127753257751,0.002748476341366768,-0.0008599171414971352
1761341799190556000,1.380555908203125,-0.0024571227841079235,0.0010190056636929512,-0.001441578846424818
1761341799200621800,1.390621826171875,0.0003269454464316368,0.0010027596727013588,-0.0008751247078180313
1761341799210688800,1.400688720703125,-0.00001311860978603363,0.000022067688405513763,-0.0011827233247458935
1761341799220755000,1.4107548828125,0.00015492690727114677,-0.0014376109465956688,-0.0008799219503998756
1761341799230820900,1.42082080078125,0.0011203214526176453,0.001740739680826664,-0.0007359329611063004
1761341799240887000,1.430886962890625,-0.00034415069967508316,0.0002656141296029091,0.002397009637206793
1761341799250954000,1.4409541015625,-0.0004904842935502529,-0.0011153798550367355,0.00132268900051713
1761341799261020000,1.45102001953125,0.0000727744773030281,-0.001317514106631279,0.00039351219311356544
1761341799271086000,1.461086181640625,-0.0008112573996186256,0.00048469938337802887,0.0012260759249329567
1761341799281151700,1.47115185546875,-0.001213927287608385,-0.0028834007680416107,-0.0011721006594598293
1761341799291218700,1.48121875,0.002109695691615343,-0.0015561357140541077,0.000711146742105484
1761341799301284900,1.491284912109375,-0.0001079188659787178,-0.0003135045990347862,0.003666989505290985
1761341799311350800,1.501350830078125,-0.0010105893015861511,-0.0018425872549414635,-0.0005693132989108562
1761341799321417000,1.5114169921875,0.0018459171988070011,-0.0012218048796057701,0.00012097833678126335
1761341799331483000,1.52148291015625,-0.0005229604430496693,0.00036344490945339203,-0.00108666205778718
1761341799341549800,1.5315498046875,-0.0009227008558809757,-0.0006695948541164398,-0.0010368609800934792
1761341799351616000,1.541615966796875,0.00019219797104597092,-0.0013249488547444344,-0.004814871586859226
1761341799361682000,1.551681884765625,-0.00039715971797704697,0.002611203119158745,-0.000397486612200737
1761341799371748000,1.561748046875,0.0008444832637906075,-0.0012334547936916351,-0.0014232350513339043
1761341799381815000,1.57181494140625,0.0005699116736650467,-0.0008973646908998489,-0.002498352900147438
1761341799391880700,1.581880615234375,-0.002068636938929558,-0.0013518696650862694,0.00007850537076592445
1761341799401947000,1.59194677734375,0.0004504472017288208,0.00012511946260929108,0.00119410315528512
1761341799412012800,1.6020126953125,0.003265818115323782,-0.0010191360488533974,-0.002866556867957115
1761341799422079700,1.612079833984375,0.0023659360595047474,-0.0009056851267814636,0.001132978592067957
1761341799432146000,1.62214599609375,0.0023153014481067657,0.0015938058495521545,0.0029028807766735554
1761341799442211800,1.6322119140625,0.00004202732816338539,-0.0013143662363290787,-0.001023151446133852
1761341799452278000,1.642278076171875,-0.0002512810751795769,0.0009905043989419937,0.000608125701546669
1761341799462345000,1.652344970703125,0.0009721750393509865,-0.002201826311647892,-0.002583939116448164
1761341799472411000,1.662410888671875,0.001344605814665556,0.0006972383707761765,-0.003874528454616666
1761341799482477000,1.67247705078125,-0.00009563146159052849,0.0003076177090406418,0.0018464741297066212
1761341799492543000,1.68254296875,0.002264247741550207,0.0015150317922234535,0.0010733162052929401
1761341799502609000,1.69260888671875,-0.0009826784953474998,-0.003170534037053585,0.0026333960704505444
1761341799512675800,1.70267578125,-0.0012016710825264454,0.0016703801229596138,0.0012489007785916328
1761341799522741800,1.71274169921875,-0.00033561093732714653,-0.00038771145045757294,-0.0016635316424071789
1761341799532808000,1.722807861328125,-0.0006699524819850922,0.0006049042567610741,0.0011475658975541592
1761341799542873900,1.732873779296875,0.0005124909803271294,-0.002290218137204647,-0.001207201275974512
1761341799552940800,1.74294091796875,-0.0005502114072442055,-0.0023802611976861954,-0.0004435810260474682
1761341799563007000,1.753007080078125,0.001997901126742363,-0.00023029092699289322,0.00023206276819109917
1761341799573073000,1.763072998046875,-0.0007939022034406662,0.0004269331693649292,0.0033215507864952087
1761341799583138800,1.773138916015625,-0.0003579426556825638,-0.0005392618477344513,-0.0024700257927179337
1761341799593206000,1.7832060546875,-0.002177390269935131,-0.0024167587980628014,-0.0004409169778227806
1761341799603272000,1.79327197265625,0.0012205373495817184,-0.00027531106024980545,0.0010986565612256527
1761341799613337900,1.803337890625,0.00013117631897330284,0.0007095010951161385,-0.0003860718570649624
1761341799623403800,1.81340380859375,0.0007354472763836384,0.001300988718867302,-0.00026729516685009
1761341799633469700,1.8234697265625,0.0006121443584561348,-0.0014159083366394043,0.00102623226121068
1761341799643537000,1.833536865234375,-0.00026803044602274895,-0.001370633952319622,0.0008880146779119968
1761341799653602800,1.843602783203125,0.0016801911406219006,0.0005356306210160255,-0.00104113994166255
1761341799663669000,1.8536689453125,0.00026978086680173874,0.002742060460150242,0.0009543672204017639
1761341799673735000,1.86373486328125,-0.00045976508408784866,0.0007528942078351974,-0.0004473305307328701
1761341799683801900,1.8738017578125,-0.0026363665238022804,-0.0011565927416086197,-0.00017994921654462814
1761341799693868000,1.883867919921875,-0.0006215996108949184,0.0009463196620345116,-0.003410645294934511
1761341799703934000,1.893933837890625,0.0009661773219704628,0.00026082154363393784,-0.002665759064257145
1761341799714000000,1.903999755859375,0.0017604478634893894,0.00039228983223438263,-0.003835303010419011
1761341799724066000,1.914066162109375,-0.0003812662325799465,0.0007068086415529251,0.0002483879216015339
1761341799734132000,1.924132080078125,-0.00036934763193130493,0.0014130081981420517,0.0010068905539810658
1761341799744198100,1.9341982421875,-0.0013398034498095512,-0.00024214666336774826,0.0004036840982735157
1761341799754264000,1.94426416015625,0.0013424549251794815,-0.000634949654340744,-0.0005275239236652851
1761341799764330200,1.954330322265625,-0.0020653260871767998,0.0003032814711332321,-0.0026109148748219013
1761341799774397200,1.964397216796875,-0.0009306077845394611,0.003366994671523571,-0.0009303274564445019
1761341799784463000,1.974463134765625,-0.0014941324479877949,-0.002094350755214691,-0.002161772921681404
1761341799794529300,1.984529296875,0.00027706101536750793,-0.0020419927313923836,0.0007530869916081429
1761341799804595200,1.99459521484375,-0.0005157617852091789,-0.00039402861148118973,-0.0018440280109643936
1761341799814662100,2.004662109375,0.0007612933404743671,-0.0033214855939149857,-0.0002955859526991844
1761341799824728000,2.01472802734375,0.0005154833197593689,0.00015607010573148727,-0.0029901722446084023
1761341799834794000,2.0247939453125,-0.001052867155522108,0.00013947207480669022,-0.0016865204088389874
1761341799844860200,2.034860107421875,-0.0011764378286898136,0.0009504053741693497,-0.0011112778447568417
1761341799854927000,2.044927001953125,0.0008567278273403645,-0.0004947464913129807,-0.0004838122986257076
1761341799864993000,2.054992919921875,-0.0007219938561320305,-0.0004076613113284111,-0.0005887406878173351
1761341799875059200,2.06505908203125,-0.0016310997307300568,0.0007320428267121315,0.0017179818823933601
1761341799885125000,2.075125,-0.0004481235519051552,0.00005240458995103836,0.00008626282215118408
1761341799895192000,2.085192138671875,-0.0002791215665638447,0.0013883300125598907,-0.0003947494551539421
1761341799905258200,2.09525830078125,0.000046316999942064285,-0.0021752454340457916,-0.0004264414310455322
1761341799915324200,2.10532421875,-0.00036435527727007866,0.0014611119404435158,0.00012166285887360573
1761341799925390000,2.11539013671875,-0.00020270142704248428,-0.0012166965752840042,-0.004677886143326759
1761341799935456000,2.1254560546875,0.0009086951613426208,0.0006417501717805862,-0.0007893810980021954
1761341799945523000,2.13552294921875,0.0007792655378580093,0.00379253551363945,0.0005688313394784927
1761341799955589000,2.145589111328125,-0.0006013778038322926,0.0009667845442891121,-0.00022629369050264359
1761341799965655000,2.155655029296875,0.0023347570095211267,0.002564414404332638,0.00039608683437108994
1761341799975721200,2.16572119140625,-0.0015738876536488533,-0.0005181888118386269,-0.00014431867748498917
1761341799985788200,2.1757880859375,0.00040324311703443527,-0.001608220860362053,0.0009837965480983257
1761341799995854000,2.18585400390625,-0.001104898750782013,0.00041141267865896225,-0.0016754558309912682
1761341800005920300,2.195920166015625,0.0009334846399724483,-0.0022900979965925217,0.0026037110947072506
1761341800015986200,2.205986083984375,-0.0005626222118735313,0.0016128616407513618,0.0005053333006799221
1761341800026053000,2.21605322265625,0.0013892082497477531,0.0017619989812374115,-0.000542354304343462
1761341800036119300,2.226119384765625,0.0009634704329073429,0.0002516182139515877,-0.001333919819444418
1761341800046185000,2.23618505859375,0.0016186083666980267,0.0008716024458408356,0.0003587850369513035
1761341800056251100,2.246251220703125,0.0005774046294391155,-0.0009404271841049194,-0.0011820700019598007
1761341800066317000,2.256317138671875,-0.00040476908907294273,0.0007301736623048782,0.0008688303641974926
1761341800076384000,2.266384033203125,-0.0026215952821075916,0.001992233097553253,-0.0001993156038224697
1761341800086450200,2.2764501953125,-0.0014708437956869602,-0.0006275186315178871,0.0016427934169769287
1761341800096516000,2.28651611328125,-0.002051482442766428,0.0007685516029596329,0.0029727029614150524
1761341800106582300,2.296582275390625,0.00003537023440003395,0.0018061194568872452,0.001596913207322359
1761341800116649200,2.306649169921875,-0.0023268815129995346,-0.0006923424080014229,-0.00043170107528567314
1761341800126715100,2.316715087890625,0.0009879553690552711,0.0006930343806743622,0.0013701939024031162
1761341800136781300,2.32678125,-0.0005941679701209068,-0.0006170356646180153,-0.002103780396282673
1761341800146847000,2.336846923828125,-0.000005609355866909027,0.0013268059119582176,0.0005021225661039352
1761341800156914200,2.3469140625,-0.0014863559044897556,0.0014929715543985367,-0.0009470162913203239
1761341800166980000,2.35697998046875,0.0004407074302434921,-0.00104448851197958,0.0008314428851008415
1761341800177046000,2.3670458984375,0.001347184181213379,0.00112952571362257,-0.002536601386964321
1761341800187112200,2.3771123046875,0.000808959361165762,0.0014027655124664307,-0.0002311025746166706
1761341800197179100,2.38717919921875,-0.00014076614752411842,-0.0012150239199399948,0.0016994578763842583
1761341800207245000,2.3972451171875,0.001976180821657181,-0.0012754769995808601,0.001517297700047493
1761341800217311200,2.407311279296875,-0.0008148490451276302,0.0004432136192917824,0.0017095101065933704
1761341800227377200,2.417377197265625,0.000013394281268119812,0.002783067524433136,-0.000509701669216156
1761341800237443300,2.427443359375,0.0010933722369372845,0.001835421659052372,0.002489532809704542
1761341800247510300,2.43751025390625,-0.0010848273523151875,-0.0010929899290204048,-0.001751285046339035
1761341800257576200,2.447576171875,-0.002575854305177927,0.0014064693823456764,0.0009317980147898197
1761341800267642000,2.45764208984375,0.0010207444429397583,-0.0008186018094420433,0.0017826776020228863
1761341800277708000,2.4677080078125,-0.00015527429059147835,-0.0002993941307067871,0.0010278704576194286
1761341800287775000,2.47777490234375,-0.00021146703511476517,0.0033496692776679993,-0.0008113081566989422
1761341800297841200,2.487841064453125,0.0000943206250667572,-0.00048365257680416107,-0.0010609393939375877
1761341800307907000,2.497906982421875,-0.000016200821846723557,0.001123831607401371,0.0004147179424762726
1761341800317973200,2.50797314453125,0.0021349024027585983,0.0004897154867649078,-0.0013354355469346046
1761341800328040200,2.518040283203125,0.00035005202516913414,0.0015773503109812737,0.0004613990895450115
1761341800338106000,2.528106201171875,0.0009354706853628159,-0.0008618207648396492,-0.00046579213812947273
1761341800348172300,2.53817236328125,-0.0011617685668170452,0.0003765486180782318,-0.0005257129669189453
1761341800358238200,2.54823828125,-0.00038266368210315704,-0.000732695683836937,0.0013753874227404594
1761341800368304000,2.55830419921875,-0.0003035678528249264,-0.00033135712146759033,0.0007335655391216278
1761341800378371000,2.56837109375,0.0036277598701417446,0.0018327794969081879,0.00027365563437342644
1761341800388437000,2.57843701171875,-0.0014002881944179535,-0.0033659767359495163,0.0006028222851455212
1761341800398503200,2.588503173828125,0.001703642774373293,-0.0029278723523020744,-0.00041078217327594757
1761341800408569000,2.598569091796875,0.0007291920483112335,0.00032011885195970535,0.00017298245802521706
1761341800418636000,2.608635986328125,0.0008417656645178795,-0.0016652252525091171,-0.002844526432454586
1761341800428702200,2.6187021484375,-0.00033082393929362297,-0.0012638866901397705,-0.0033854148350656033
1761341800438768000,2.62876806640625,-0.0016641765832901,0.001007012091577053,-0.0024140309542417526
1761341800448834300,2.638834228515625,-0.001432748045772314,-0.0010244473814964294,-0.0016225394792854786
1761341800458901200,2.6489013671875,0.00002600438892841339,0.00031361449509859085,0.0003748703747987747
1761341800468967200,2.65896728515625,-0.001273085828870535,-0.00011435523629188538,0.00041108857840299606
1761341800479033300,2.669033447265625,0.0033772094175219536,0.000026658177375793457,0.0015379567630589008
1761341800489099000,2.67909912109375,0.0003603803925216198,0.0010277405381202698,-0.0020842086523771286
1761341800499165200,2.689165283203125,-0.0013956595212221146,-0.0019499938935041428,-0.0015775780193507671
1761341800509232000,2.699232177734375,-0.00045583024621009827,0.0005629649385809898,-0.0017746519297361374
1761341800519298000,2.709298095703125,0.0003538709133863449,0.002483596093952656,-0.0006215409375727177
1761341800529364200,2.7193642578125,-0.0014717262238264084,-0.0011500213295221329,-0.0006649503484368324
1761341800539430100,2.72943017578125,0.0025095599703490734,0.0008566314354538918,0.0011968663893640041
1761341800549497000,2.7394970703125,-0.0017765313386917114,-0.0018890872597694397,-0.004726269748061895
1761341800559563300,2.749563232421875,0.0002810526639223099,0.0013402914628386497,0.00213472917675972
1761341800569629200,2.759629150390625,0.0013828026130795479,-0.001191576011478901,0.0007235202938318253
1761341800579695000,2.769695068359375,0.001327988225966692,-0.0011602900922298431,-0.00041631143540143967
1761341800589762300,2.77976220703125,0.0010435627773404121,-0.00014216359704732895,0.0018284674733877182
1761341800599828000,2.789827880859375,0.0011862097308039665,0.000743604265153408,0.0016233171336352825
1761341800609894100,2.79989404296875,0.0005281427875161171,0.0006083156913518906,-0.0034438795410096645
1761341800619960000,2.8099599609375,-0.001724284142255783,0.0009066257625818253,-0.0011217151768505573
1761341800630026000,2.82002587890625,0.001380428671836853,0.0025870809331536293,0.0025156307965517044
1761341800640093200,2.83009326171875,0.0029563650023192167,0.0006603831425309181,-0.0013795755803585052
1761341800650159000,2.8401591796875,-0.0002538091503083706,0.0010492047294974327,-0.00349891884252429
1761341800660225300,2.850225341796875,-0.0011739283800125122,5.681067705154419e-8,-0.0020170947536826134
1761341800670291200,2.860291259765625,0.0013166600838303566,-0.0005954252555966377,-0.0023324131034314632
1761341800680358100,2.870358154296875,0.0017351144924759865,-0.0006445096805691719,0.00017686747014522552
1761341800690424300,2.88042431640625,0.0026312682311981916,0.0027486244216561317,-0.0018990663811564445
1761341800700490000,2.890489990234375,0.003393174149096012,-0.0013893572613596916,0.0006130295805633068
1761341800710556000,2.900555908203125,0.00104905990883708,-0.0016974853351712227,0.0009568431414663792
1761341800720623000,2.910623046875,0.00012351712211966515,0.0008911509066820145,0.0005477988161146641
1761341800730689500,2.920689453125,0.0022271480411291122,-0.000598621554672718,-0.002151048742234707
1761341800740755500,2.93075537109375,0.0008080219849944115,-0.001872093416750431,-0.0016467245295643806
1761341800750821400,2.9408212890625,0.0006282585673034191,-0.001540263183414936,0.00006701983511447906
1761341800760887300,2.95088720703125,-0.003598338458687067,-0.0012930091470479965,0.0020708651281893253
1761341800770954500,2.96095458984375,0.00023714639246463776,-0.0010426724329590797,-0.001297500915825367
1761341800781020400,2.9710205078125,-0.0003509148955345154,-0.00012913811951875687,-0.0013722372241318226
1761341800791086300,2.98108642578125,-0.00028859684243798256,-0.0003360658884048462,0.0018589762039482594
1761341800801152500,2.991152587890625,-0.0010939366184175014,0.00045136548578739166,0.0006395182572305202
1761341800811219500,3.001219482421875,0.000663483515381813,0.00037599727511405945,-0.00017807167023420334
1761341800821285400,3.011285400390625,-0.000017816200852394104,0.0007293177768588066,0.0018822373822331429
1761341800831351600,3.0213515625,-0.00028999103233218193,-0.0019242558628320694,-0.001381732989102602
1761341800841417500,3.03141748046875,-0.0005303123034536839,0.00018795393407344818,-0.0007178117521107197
1761341800851484400,3.041484375,-0.000495158601552248,0.002859637141227722,0.0002521118149161339
1761341800861550300,3.05155029296875,0.00016773026436567307,0.0008883532136678696,0.0003176918253302574
1761341800871616300,3.0616162109375,0.00005321437492966652,0.00335763581097126,-0.002493807580322027
1761341800881682400,3.071682373046875,0.0024302273523062468,-0.0004533957690000534,0.0009456519037485123
1761341800891748400,3.081748291015625,0.0012107659131288528,0.0006544794887304306,-0.00011721579357981682
1761341800901815300,3.091815185546875,0.002565619768574834,-0.0007358165457844734,-0.0011807866394519806
1761341800911881500,3.101881591796875,-0.0016722683794796467,0.0008663414046168327,-0.0008793170563876629
1761341800921947400,3.111947509765625,-0.0002048807218670845,-0.0003630928695201874,0.0006394423544406891
1761341800932013600,3.122013671875,0.0006891423836350441,-0.0024576690047979355,0.0011513018980622292
1761341800942080500,3.13208056640625,0.00023796549066901207,0.0007525123655796051,0.0033327797427773476
1761341800952146400,3.142146484375,-0.00040492136031389236,0.0023735789582133293,-0.0013876729644834995
1761341800962212600,3.152212646484375,0.0008899900130927563,-0.0008615218102931976,0.0013279840350151062
1761341800972278300,3.1622783203125,-0.0004120292142033577,0.00008682999759912491,-0.0000781649723649025
1761341800982345200,3.17234521484375,-0.00037250714376568794,-0.0022066356614232063,0.0018934854306280613
1761341800992411400,3.182411376953125,-0.0012998194433748722,0.00001390744000673294,-0.00014756107702851295
1761341801002477300,3.192477294921875,0.0002982430160045624,-0.000039699487388134,0.003898023162037134
1761341801012543500,3.20254345703125,-0.001704720314592123,0.000669499859213829,0.00176616245880723
1761341801022609400,3.212609375,-0.0014279899187386036,-0.0009387927129864693,0.0013699592091143131
1761341801032676400,3.22267626953125,-0.00011238874867558479,0.0005019772797822952,-0.002439959440380335
1761341801042742500,3.232742431640625,0.0013903784565627575,-0.000039064325392246246,0.001786581240594387
1761341801052808400,3.242808349609375,-0.0013356334529817104,0.00021846313029527664,-0.0018598190508782864
1761341801062874600,3.25287451171875,0.0001998692750930786,-0.0012386869639158249,0.0004466134123504162
1761341801072941600,3.262941650390625,-0.0005420874804258347,0.0002039475366473198,0.0032229586504399776
1761341801083007200,3.27300732421875,0.002013604622334242,-0.0006257789209485054,0.0012002410367131233
1761341801093073400,3.283073486328125,0.00026417383924126625,0.00007170252501964569,-0.001367845106869936
1761341801103139300,3.293139404296875,0.0015897131524980068,0.0007573654875159264,-0.00012588081881403923
1761341801113206300,3.303206298828125,0.00020726630464196205,0.00007027015089988708,0.0012096944265067577
1761341801123272400,3.3132724609375,0.0008740848861634731,0.0004928689450025558,0.00158670824021101
1761341801133338400,3.32333837890625,0.0017662439495325089,-0.0012056948617100716,0.0009243795648217201
1761341801143404500,3.333404541015625,0.0015487191267311573,0.0003578644245862961,0.0008625993505120277
1761341801153470500,3.343470458984375,-0.001729099079966545,0.0007405607029795647,-0.0033079111017286777
1761341801163537400,3.353537353515625,-0.001275575254112482,-0.0019979560747742653,0.00023730378597974777
1761341801173603600,3.363603515625,0.0019356640987098217,-0.0009076576679944992,0.00143892178311944
1761341801183669500,3.37366943359375,0.0003453879617154598,0.0006482675671577454,0.00045916764065623283
1761341801193735400,3.3837353515625,-0.0005329223349690437,-0.0014681462198495865,0.0017268327064812183
1761341801203802400,3.39380224609375,0.0008041495457291603,-0.00022193975746631622,-0.0011586532928049564
1761341801213868300,3.403868408203125,-0.0007069278508424759,-0.000013148412108421326,-0.0006739581003785133
1761341801223934500,3.4139345703125,-0.0016209124587476254,-0.0006920453161001205,-0.0019124816171824932
1761341801234000400,3.42400048828125,-0.002404414117336273,-0.0007849894464015961,0.0013613426126539707
1761341801244067300,3.4340673828125,-0.002353156451135874,-0.0011029094457626343,0.0006869425997138023
1761341801254133500,3.444133544921875,-0.00003008078783750534,0.0005975188687443733,0.0011988021433353424
1761341801264199400,3.454199462890625,0.00021888548508286476,-0.0017969552427530289,-0.0002744668163359165
1761341801274265600,3.464265625,-0.0008796681649982929,-0.0005793580785393715,0.0028922976925969124
1761341801284331500,3.47433154296875,0.0024145706556737423,0.0006008734926581383,-0.0018651853315532207
1761341801294398500,3.4843984375,-0.00032262643799185753,-0.0015946365892887115,0.0014070402830839157
1761341801304464400,3.49446435546875,-0.002380713354796171,-0.0004323907196521759,-0.0008429442532360554
1761341801314530300,3.5045302734375,-0.00017242040485143661,0.000741264782845974,-0.0023497608490288258
1761341801324596500,3.514596435546875,0.0009766933508217335,-0.0010541165247559547,0.0012731552124023438
1761341801334663400,3.524663330078125,0.0009524584747850895,0.0013216892257332802,0.0002526314929127693
1761341801344729300,3.534729248046875,-0.0006122644990682602,0.00018711481243371964,0.0020100977271795273
1761341801354795500,3.54479541015625,0.0008463487029075623,0.00013331882655620575,-0.001324978657066822
1761341801364861400,3.554861328125,0.0012836027890443802,-0.00036468077450990677,-0.0027403924614191055
1761341801374927600,3.564927734375,-0.0014962046407163143,-0.0016746902838349342,-0.0009350357577204704
1761341801384994600,3.57499462890625,0.002141182776540518,0.000036745332181453705,0.000414316076785326
1761341801395060500,3.585060546875,0.00007989630103111267,0.0004439428448677063,-0.000016050878912210464
1761341801405126400,3.59512646484375,0.0004887022078037262,0.0007382389158010483,0.0003456282429397106
1761341801415192300,3.6051923828125,0.0012746010906994343,0.0014985715970396996,-0.00003919890150427818
1761341801425259300,3.61525927734375,-0.0006036814302206039,-0.0011661769822239876,0.0019763694144785404
1761341801435325400,3.625325439453125,0.002093567978590727,0.0022860784083604813,-0.0033342400565743446
1761341801445391400,3.635391357421875,0.000030573923140764236,-0.00014918483793735504,0.0013234363868832588
1761341801455457500,3.64545751953125,-0.00019526202231645584,0.00027132872492074966,0.0011766953393816948
1761341801465524500,3.6555244140625,0.001081571914255619,0.0005895448848605156,0.0011437642388045788
1761341801475590400,3.66559033203125,0.002364416839554906,-0.0018176864832639694,0.0025826706551015377
1761341801485656600,3.675656494140625,0.0011114608496427536,-0.00040073227137327194,0.0014599021524190903
1761341801495722500,3.685722412109375,-0.0013999002985656261,0.0004762466996908188,0.0019041169434785843
1761341801505788700,3.69578857421875,-0.00013215327635407448,0.00025095976889133453,-0.00001690676435828209
1761341801515855600,3.705855712890625,0.0005608010105788708,0.0009303325787186623,0.0034550558775663376
1761341801525921300,3.71592138671875,-0.002643877174705267,0.001397651620209217,-0.0011204280890524387
1761341801535987500,3.725987548828125,-0.0004009632393717766,0.0017204266041517258,0.0011128983460366726
1761341801546053400,3.736053466796875,-0.00009694183245301247,-0.0008572610095143318,0.0035814354196190834
1761341801556120300,3.746120361328125,0.002531331731006503,-0.0011334307491779327,0.001992061734199524
1761341801566186500,3.7561865234375,-0.0015772506594657898,-0.0002480028197169304,-0.00016305875033140182
1761341801576252400,3.76625244140625,-0.002551435027271509,-0.00046931207180023193,-0.0025820075534284115
1761341801586318600,3.776318603515625,-0.0001898026093840599,0.0017974423244595528,0.0005010552704334259
1761341801596385500,3.786385498046875,-0.0005882116965949535,0.0003281766548752785,-0.00044649792835116386
1761341801606451500,3.796451416015625,0.0006870413199067116,0.0016947397962212563,0.0008270670659840107
1761341801616517600,3.806517578125,-0.0016344361938536167,0.0022734450176358223,-0.0010366132482886314
1761341801626583300,3.816583251953125,0.0010569333098828793,0.000011606141924858093,-0.00036304816603660583
1761341801636649500,3.8266494140625,0.0006593232974410057,-0.0010994644835591316,0.0013072867877781391
1761341801646716400,3.83671630859375,0.000005685258656740189,-0.00445978157222271,-0.0020791650749742985
1761341801656782300,3.8467822265625,-0.0004656943492591381,-0.0026786597445607185,0.0013869395479559898
1761341801666848500,3.8568486328125,-0.0008121728897094727,-0.0008425218984484673,-0.0002550245262682438
1761341801676914400,3.86691455078125,9.12696123123169e-8,0.0016147764399647713,0.00004511373117566109
1761341801686981400,3.8769814453125,-0.0005816076882183552,-0.0004646033048629761,-0.000021620653569698334
1761341801697047600,3.887047607421875,-0.0004170243628323078,0.0006565870717167854,-0.000018158461898565292
1761341801707113500,3.897113525390625,-0.0006556031294167042,-0.0013281432911753654,-0.0009054229594767094
1761341801717179600,3.9071796875,0.002834735903888941,0.0008607087656855583,0.000004312489181756973
1761341801727245800,3.917245849609375,-0.00003446219488978386,-0.00011059734970331192,0.002593832556158304
1761341801737312800,3.927312744140625,0.0012869983911514282,-0.00028183870017528534,0.0004004533402621746
1761341801747378700,3.937378662109375,0.0008249888196587563,0.001708867959678173,0.0026953527703881264
1761341801757444600,3.947444580078125,0.001953636296093464,-0.0013290001079440117,0.002668454311788082
1761341801767510500,3.957510498046875,-0.0008674687705934048,-0.0005370620638132095,0.0045431326143443584
1761341801777577700,3.96757763671875,-0.000007268041372299194,0.0011886665597558022,-0.0023725642822682858
1761341801787643600,3.9776435546875,-0.0014064996503293514,-0.0012301094830036163,-0.0009463466703891754
1761341801797709800,3.987709716796875,0.0005360101349651814,0.0022487780079245567,-0.0009524719789624214
1761341801807775700,3.997775634765625,-0.0015399684198200703,0.000023094937205314636,-0.0012151538394391537
1761341801817842700,4.0078427734375,0.0024611649569123983,-0.00011885073035955429,-0.003488161601126194
1761341801827908900,4.017908935546875,0.00007841642946004868,0.00015273317694664001,0.0006978563033044338
1761341801837974800,4.027974853515625,-0.0004638032987713814,0.0010363701730966568,0.0012011933140456676
1761341801848040700,4.038040771484375,-0.000559480395168066,0.0034814486280083656,0.0026299869641661644
1761341801858106600,4.048106689453125,0.0020128670148551464,0.00026914477348327637,0.0025442326441407204
1761341801868172500,4.058172607421875,-0.00003922684118151665,-0.0010999301448464394,0.0023144008591771126
1761341801878239700,4.06823974609375,-0.0008629425428807735,-0.0009302869439125061,-0.0006289249286055565
1761341801888305700,4.0783056640625,-0.0010539283975958824,-0.0009461427107453346,0.000985145103186369
1761341801898371600,4.08837158203125,-0.00144621217623353,-0.0008065924048423767,-0.0003482997417449951
1761341801908437800,4.098437744140625,0.0013491185382008553,-0.0031390944495797157,0.002250945195555687
1761341801918504700,4.108504638671875,0.0009744116105139256,-0.0007387865334749222,0.00021309452131390572
1761341801928570600,4.118570556640625,0.0012273495085537434,0.0005438048392534256,0.00018247216939926147
1761341801938636800,4.12863671875,0.0001402474008500576,0.0014005443081259727,-0.003249810077250004
1761341801948702700,4.13870263671875,0.00008211703971028328,-0.00010646320879459381,0.0012146416120231152
1761341801958768600,4.1487685546875,-0.00025024544447660446,-0.0014103464782238007,0.0016788304783403873
1761341801968835600,4.158835693359375,-0.0015337197110056877,0.00002408307045698166,0.0005357600748538971
1761341801978901500,4.168901611328125,-0.0003249109722673893,0.0007623117417097092,-0.00009620795026421547
1761341801988967700,4.1789677734375,0.0035268065985292196,-0.0021094297990202904,-0.0006527802906930447
1761341801999033600,4.18903369140625,-0.00022345688194036484,0.001551351509988308,0.0010314029641449451
1761341802009100800,4.199100830078125,-0.0006124838255345821,-0.0017344234511256218,0.0007777824066579342
1761341802019166700,4.209166748046875,-0.0015368671156466007,-0.0015211040154099464,0.0020007058046758175
1761341802029232600,4.219232666015625,0.00008528400212526321,0.00003576651215553284,0.00011989055201411247
1761341802039298800,4.229298828125,-0.0006912937387824059,0.0017596306279301643,0.002529518213123083
1761341802049365800,4.23936572265625,0.00026451563462615013,0.00003103725612163544,0.0006908383220434189
1761341802059431700,4.249431640625,-0.001566407736390829,0.0005759196355938911,0.0009483667090535164
1761341802069497600,4.25949755859375,0.003910089377313852,-0.0006568273529410362,-0.0006217565387487411
1761341802079563500,4.2695634765625,-0.0003352556377649307,-0.0001598810777068138,0.000715416856110096
1761341802089629700,4.279629638671875,-0.00001726066693663597,-0.000806090421974659,-0.002489771693944931
1761341802099696600,4.289696533203125,-0.000854825135320425,-0.00006013922393321991,0.00020747818052768707
1761341802109762600,4.299762451171875,-0.000639820471405983,0.002820485271513462,0.0005042338743805885
1761341802119828700,4.309828857421875,-0.00022862805053591728,-0.0005785077810287476,0.001771898940205574
1761341802129894700,4.319894775390625,-0.000029184389859437943,0.0024968236684799194,-0.00048316968604922295
1761341802139961600,4.329961669921875,-0.001551713328808546,-0.0015983190387487411,0.0025594918988645077
1761341802150027800,4.34002783203125,-0.000046432483941316605,-0.0018724128603935242,-0.0015315567143261433
1761341802160093700,4.35009375,-0.001844598911702633,0.0032208822667598724,0.00016567576676607132
1761341802170159900,4.360159912109375,-0.00025768252089619637,-0.0008329516276717186,0.001995272934436798
1761341802180225500,4.3702255859375,-0.0010478422045707703,0.0011050309985876083,0.000001364387571811676
1761341802190292500,4.38029248046875,-0.0004359632730484009,-0.0018136277794837952,-0.0011689434759318829
1761341802200358700,4.390358642578125,-0.0006250478327274323,-0.0019502472132444382,-0.001404100563377142
1761341802210425600,4.400425537109375,0.0016021090559661388,0.0020391708239912987,0.00005700159817934036
1761341802220491500,4.410491455078125,-0.0018948880024254322,-0.0022762147709727287,0.00180004071444273
1761341802230557700,4.4205576171875,-0.0024381750263273716,-0.00003382284194231033,0.0012344042770564556
1761341802240623600,4.43062353515625,0.0006508259102702141,-0.0011403663083910942,-0.0014236965216696262
1761341802250690800,4.44069091796875,0.0002607768401503563,0.00006571132689714432,0.0007737339474260807
1761341802260756700,4.4507568359375,0.0005643772892653942,-0.00140408705919981,0.0009763999842107296
1761341802270822700,4.46082275390625,-0.0006043189205229282,0.00046950485557317734,0.0014354651793837547
1761341802280888800,4.470888916015625,0.000925667118281126,0.0006663128733634949,-0.0001746825873851776
1761341802290955800,4.480955810546875,0.0007802234031260014,-0.0036227162927389145,0.0033621927723288536
1761341802301021700,4.491021728515625,-0.0011151484213769436,-0.0006647435948252678,-0.0012402823194861412
1761341802311087600,4.501087646484375,-0.00017966795712709427,-0.000947871245443821,0.00037781475111842155
1761341802321153500,4.511153564453125,0.0001265956088900566,-0.001459198072552681,0.002084102015942335
1761341802331219700,4.5212197265625,-0.0012331916950643063,0.0014319522306323051,0.0016569318249821663
1761341802341286700,4.53128662109375,-0.0015471787191927433,-0.0014312118291854858,-0.004400427453219891
1761341802351352600,4.5413525390625,0.0006324518471956253,0.002374769188463688,-0.0003215717151761055
1761341802361418800,4.551418701171875,-0.00045331893488764763,-0.0016042599454522133,0.001929065678268671
1761341802371484700,4.561484619140625,0.00019227387383580208,-0.0006740633398294449,-0.0020455187186598778
1761341802381551600,4.571551513671875,0.00042823003605008125,-0.0014679515734314919,0.0013441522605717182
1761341802391617800,4.58161767578125,0.0013887831009924412,0.001520334742963314,-0.002578290179371834
1761341802401683700,4.59168359375,0.0015062284655869007,0.0010729236528277397,0.0006776903755962849
1761341802411749600,4.60174951171875,-0.00006221979856491089,0.0004313075914978981,0.002402283251285553
1761341802421816600,4.611816650390625,0.0011798785999417305,-0.0031394585967063904,-0.00031467387452721596
1761341802431882500,4.621882568359375,0.0015559769235551357,-0.00099082849919796,0.000042255036532878876
1761341802441948700,4.63194873046875,0.0019453312270343304,-0.000979643315076828,-0.0015071723610162735
1761341802452014600,4.6420146484375,0.0013383119367063046,0.0017155567184090614,-0.0006806673482060432
1761341802462080800,4.652080810546875,-0.0008060652762651443,0.0004015527665615082,0.003043763805180788
1761341802472147700,4.662147705078125,-0.00008540647104382515,-0.0022301170974969864,-0.0009535439312458038
1761341802482213600,4.672213623046875,0.0008941041305661201,0.0015726108103990555,-0.003349057398736477
1761341802492279800,4.68227978515625,-0.001474894117563963,0.0023378515616059303,-0.00013821106404066086
1761341802502345700,4.692345703125,0.00006734253838658333,-0.0001825634390115738,0.00023835990577936172
1761341802512412700,4.70241259765625,-0.0008590612560510635,-0.00018921680748462677,-0.0003881892189383507
1761341802522478800,4.712478759765625,0.0007460257038474083,-0.0029154950752854347,0.0009279451332986355
1761341802532544500,4.72254443359375,0.001092707272619009,-0.0019605448469519615,0.0003799721598625183
1761341802542610700,4.732610595703125,-0.000523565337061882,0.0005420278757810593,-0.00018914556130766869
1761341802552677600,4.742677734375,0.0031370101496577263,-0.0011528590694069862,-0.0009865141473710537
1761341802562743600,4.75274365234375,-0.0014305771328508854,-0.0004375344142317772,0.0013205823488533497
1761341802572809700,4.762809814453125,0.002075501251965761,0.0012651681900024414,-0.0038088420405983925
1761341802582875600,4.772875732421875,-0.0009421263821423054,0.00020336639136075974,0.001425867434591055
1761341802592941800,4.78294189453125,0.0016153622418642044,0.0005442751571536064,-0.002238973043859005
1761341802603008800,4.7930087890625,0.00014529703184962273,-0.0001766430214047432,0.0005869069136679173
1761341802613074700,4.80307470703125,0.0024704267270863056,-0.0004606563597917557,0.0010847910307347775
1761341802623140900,4.813140869140625,-0.00040871696546673775,0.003634486347436905,-0.0010784948244690895
1761341802633206500,4.82320654296875,-0.00003959238529205322,-0.0008793966844677925,-0.0008595036342740059
1761341802643273500,4.8332734375,0.00118226557970047,-0.0015547750517725945,0.0009474507533013821
1761341802653339600,4.843339599609375,-0.0012068976648151875,-0.0013924641534686089,0.0023351232521235943
1761341802663405600,4.853405517578125,-0.0007877163589000702,-0.00034264661371707916,-0.000057194381952285767
1761341802673471700,4.8634716796875,0.0012523746117949486,-0.0003560474142432213,0.001044482458382845
1761341802683537700,4.87353759765625,-0.00126644317060709,0.00009349361062049866,-0.0025148321874439716
1761341802693604600,4.8836044921875,-0.0010302024893462658,0.0011293226853013039,0.0007161065004765987
1761341802703670800,4.8936708984375,-0.0011444524861872196,0.0016209417954087257,-0.0004817829467356205
1761341802713736700,4.90373681640625,0.0015329383313655853,0.0006197020411491394,0.0003002486191689968
1761341802723803000,4.913802978515625,-0.0004061092622578144,0.0013251733034849167,-0.003122179303318262
1761341802733869800,4.923869873046875,0.0012175976298749447,-0.0017587384209036827,0.003224891610443592
1761341802743935500,4.933935546875,0.00044022081419825554,0.000010399147868156433,-0.0022076908499002457
1761341802754001700,4.944001708984375,-0.0014619254507124424,0.0013813609257340431,0.0010197018273174763
1761341802764067600,4.954067626953125,0.0015535722486674786,-0.0031532030552625656,-0.001608571968972683
1761341802774134500,4.964134521484375,-0.0007245298475027084,0.00098448246717453,0.0014252536930143833
1761341802784200700,4.97420068359375,-0.0000036121346056461334,-0.0008331248536705971,0.00016504619270563126
1761341802794266600,4.9842666015625,-0.0011083693243563175,0.0015236828476190567,-0.0008114655502140522
1761341802804332800,4.994332763671875,-0.00008331891149282455,-0.0005714260041713715,0.0007685879245400429
1761341802814398700,5.004398681640625,0.0005868379957973957,0.00036837998777627945,-0.0011198334395885468
1761341802824465700,5.014465576171875,-0.00016736937686800957,-0.00008355826139450073,0.0007635545916855335
1761341802834531800,5.02453173828125,-0.0028913589194417,0.001260724849998951,-0.002226304728537798
1761341802844597800,5.03459765625,0.0008466541767120361,-0.002217896282672882,0.0013122372329235077
1761341802854663700,5.04466357421875,-0.0004674973897635937,0.0026336489245295525,0.004536104388535023
1761341802864730600,5.054730712890625,-0.0007702987641096115,-0.000507282093167305,0.0012300563976168633
1761341802874796500,5.064796630859375,-0.00016508158296346664,-0.0022190939635038376,0.0021776636131107807
1761341802884862700,5.07486279296875,0.0004043024964630604,-0.0002986881881952286,-0.00009960494935512543
1761341802894928600,5.0849287109375,0.0009976038709282875,-0.0016755172982811928,0.0011831512674689293
1761341802904995600,5.09499560546875,0.00024872319772839546,0.000735974870622158,0.00015756813809275627
1761341802915061800,5.105061767578125,-0.000613166019320488,-0.00016056932508945465,-0.001206789631396532
1761341802925127700,5.115127685546875,-0.001117834821343422,0.0006271935999393463,-0.0009042546153068542
1761341802935193900,5.12519384765625,-0.00006947014480829239,-0.002003154717385769,0.00016340147703886032
1761341802945259800,5.135259765625,0.0007907305844128132,-0.0019533541053533554,0.0009650131687521935
1761341802955326700,5.14532666015625,-0.0017485925927758217,-0.00014060083776712418,-0.002098185010254383
1761341802965392600,5.155392578125,-0.00014963047578930855,-0.002257014624774456,0.0021921670995652676
1761341802975458600,5.16545849609375,-0.002089375164359808,-0.0011889636516571045,0.0011643925681710243
1761341802985524700,5.175524658203125,0.001328259240835905,-0.0008323658257722855,0.0004290938377380371
1761341802995591700,5.185591796875,-0.00018738722428679466,0.00029626768082380295,0.0021737385541200638
1761341803005657600,5.19565771484375,0.00027706800028681755,-0.00010720081627368927,-0.0014835805632174015
1761341803015723800,5.205723876953125,-0.0015552272088825703,-0.0032148081809282303,-0.0008581364527344704
1761341803025789700,5.215789794921875,0.0011580013670027256,-0.0012611132115125656,-0.0013979589566588402
1761341803035856000,5.22585595703125,-0.0016273381188511848,-0.0004559820517897606,0.001631082035601139
1761341803045922800,5.2359228515625,-0.0004297145642340183,0.0016726823523640633,0.00014423904940485954
1761341803055988700,5.24598876953125,0.0011677308939397335,0.00031576119363307953,0.00006954465061426163
1761341803066054700,5.2560546875,0.0010713241063058376,-0.0004656100645661354,-0.0009427224285900593
1761341803076120600,5.26612060546875,-0.0018098722212016582,0.000850902870297432,-0.0021305494010448456
1761341803086187500,5.2761875,-0.001634370069950819,0.00009030476212501526,-0.0021193642169237137
1761341803096253700,5.286253662109375,0.0006806072778999805,-0.0023720720782876015,0.003239103127270937
1761341803106319600,5.296319580078125,-0.00017480039969086647,-0.0013169283047318459,-0.00047973543405532837
1761341803116385800,5.3063857421875,-0.0020543066784739494,-0.001158934086561203,-0.001211731694638729
1761341803126452700,5.31645263671875,-0.0009964988566935062,0.00006345659494400024,0.0011472958140075207
1761341803136518700,5.3265185546875,0.0003488692454993725,-0.0004679970443248749,-0.0003237975761294365
1761341803146584800,5.336584716796875,0.00022849440574645996,-0.000629650428891182,0.0011175046674907207
1761341803156650800,5.346650634765625,-0.0005113272927701473,-0.0023832982406020164,-0.001608254387974739
1761341803166717000,5.356717041015625,-0.0010186592116951942,-0.003657354973256588,-0.004299645312130451
1761341803176784000,5.366783935546875,0.0006751986220479012,0.0008543273434042931,-0.0010112249292433262
1761341803186849500,5.376849609375,-0.00003266939893364906,0.00282133836299181,0.0011946712620556355
1761341803196915700,5.386915771484375,0.0015565985813736916,0.001567159779369831,-0.00036714598536491394
1761341803206981600,5.396981689453125,0.0032194764353334904,0.00004542991518974304,-0.0015839445404708385
1761341803217048600,5.407048583984375,0.0009928741492331028,0.0013155685737729073,-0.001217436045408249
1761341803227114800,5.41711474609375,-0.00034349970519542694,-0.0005481112748384476,0.003073715604841709
1761341803237180700,5.4271806640625,0.0012860530987381935,0.0025848783552646637,0.00139257637783885
1761341803247246800,5.437246826171875,-0.001956611406058073,-0.001837034709751606,0.0006423643790185452
1761341803257312800,5.447312744140625,0.0023490337189286947,-0.0012349225580692291,-0.0002065887674689293
1761341803267379700,5.457379638671875,-0.001267538871616125,-0.0012738043442368507,0.001356420572847128
1761341803277446000,5.46744580078125,-0.0012737791985273361,-0.0013245223090052605,-0.001169885043054819
1761341803287511600,5.477511474609375,0.000863407738506794,-0.001743437722325325,0.001235215924680233
1761341803297577700,5.48757763671875,0.00032442715018987656,0.0003200862556695938,-0.0014871121384203434
1761341803307644700,5.497644775390625,0.0021729273721575737,0.00028067082166671753,0.0007267734035849571
1761341803317710600,5.507710693359375,-0.0005624499171972275,0.00021179858595132828,0.0012977938167750835
1761341803327776800,5.51777685546875,-0.0031611621379852295,-0.0025355182588100433,0.0015808879397809505
1761341803337842700,5.5278427734375,0.00013896729797124863,0.0014541614800691605,-0.0022556111216545105
1761341803347908600,5.53790869140625,0.0013187476433813572,-0.0012260442599654198,0.002050187438726425
1761341803357975800,5.547975830078125,-0.00004403851926326752,0.0015987269580364227,0.0008611073717474937
1761341803368041700,5.558041748046875,-0.0008847988210618496,-0.001130746677517891,0.001278158277273178
1761341803378108000,5.56810791015625,0.0012181736528873444,0.0007904861122369766,0.0003037783317267895
1761341803388173800,5.578173828125,0.0016711773350834846,-0.00102285947650671,-0.00047333166003227234
1761341803398240800,5.58824072265625,0.0002954709343612194,-0.0006271284073591232,0.0015776786021888256
1761341803408306700,5.598306640625,-0.0018249377608299255,-0.001263357698917389,-0.0006607086397707462
1761341803418372600,5.60837255859375,-0.000028751324862241745,0.0028530284762382507,0.0002128113992512226
1761341803428438800,5.618438720703125,-0.0012503433972597122,-0.0008061546832323074,0.0030432194471359253
1761341803438505700,5.628505615234375,0.0005113338120281696,0.0015726862475275993,-0.00007969187572598457
1761341803448571600,5.638571533203125,0.002257568296045065,0.0002791890874505043,-0.0014104736037552357
1761341803458637800,5.648637939453125,0.0008107884787023067,0.0010542608797550201,0.0007362174801528454
1761341803468703700,5.658703857421875,-0.0012225350365042686,0.00023800134658813477,-0.0003205249086022377
1761341803478769700,5.668769775390625,0.00020707817748188972,-0.0005176179111003876,0.0008583725430071354
1761341803488836900,5.6788369140625,-0.0015820334665477276,-0.0003170827403664589,-0.0016327477060258389
1761341803498902800,5.68890283203125,0.0021860939450562,0.0007296847179532051,-0.0012762220576405525
1761341803508968700,5.69896875,-0.0010722838342189789,-0.0010450463742017746,0.0011128992773592472
1761341803519034600,5.70903466796875,-0.00038679083809256554,0.0005384888499975204,0.004089046269655228
1761341803529101600,5.7191015625,0.0014846124686300755,-0.0011190632358193398,-0.002153403591364622
1761341803539167700,5.729167724609375,-0.0014252383261919022,-0.00019133184105157852,0.0012619937770068645
1761341803549233700,5.739233642578125,-0.0011488022282719612,0.0031911488622426987,-0.001086914911866188
1761341803559299600,5.749299560546875,-0.0022786841727793217,-0.0017180321738123894,0.0008475631475448608
1761341803569365800,5.75936572265625,-0.0003905026242136955,-0.0005230717360973358,0.00019322475418448448
1761341803579432700,5.7694326171875,-0.000015249010175466537,-0.0004355860874056816,0.0024445336312055588
1761341803589499000,5.779498779296875,-0.0021260702051222324,-0.00039137713611125946,0.00157927256077528
1761341803599564800,5.789564697265625,-0.0019863941706717014,0.0006273696199059486,0.0026688766665756702
1761341803609630500,5.79963037109375,-0.001435385551303625,0.0019698692485690117,-0.0034814272075891495
1761341803619698000,5.809697998046875,0.0015827813185751438,0.0012335805222392082,-0.001299142837524414
1761341803629763600,5.819763671875,0.0005745086818933487,-0.000597609207034111,-0.0005151079967617989
1761341803639829800,5.829829833984375,0.0002450919710099697,-0.001779431477189064,-0.00002024974673986435
1761341803649895700,5.839895751953125,-0.0015882281586527824,0.0019849473610520363,0.00037602847442030907
1761341803659961600,5.849961669921875,-0.000058061908930540085,0.002836165949702263,0.001513050403445959
1761341803670028800,5.86002880859375,-0.00007377425208687782,0.00008938275277614594,-0.0015069744549691677
1761341803680094700,5.8700947265625,0.0005395440384745598,-0.00005459040403366089,-0.0001993211917579174
1761341803690160600,5.88016064453125,-0.00015287799760699272,-0.00003008916974067688,-0.002330382354557514
1761341803700226800,5.890226806640625,-0.000908389687538147,0.00141141377389431,-0.002129137050360441
1761341803710293800,5.900293701171875,0.00008523557335138321,-0.0009015416726469994,0.001253077294677496
1761341803720359700,5.910359619140625,-0.00014283740893006325,-0.0011895103380084038,-0.0019364184699952602
1761341803730425000,5.920425048828125,-0.0005628177896142006,0.00035432446748018265,-0.002297543454915285
1761341803740491300,5.9304912109375,-0.0015528569929301739,-0.00018399767577648163,-0.003762878943234682
1761341803750557200,5.94055712890625,-0.001490272581577301,0.0008370578289031982,0.0026223156601190567
1761341803760624000,5.9506240234375,0.001359179150313139,-0.0008896235376596451,-0.0016226801089942455
1761341803770690300,5.960690185546875,-0.000025398563593626022,-0.0017799176275730133,0.0016516763716936111
1761341803780756200,5.970756103515625,-0.00039342325180768967,0.001399611122906208,-0.0023104147985577583
1761341803790822100,5.980822265625,0.0012739822268486023,0.0008190413936972618,0.0014390493743121624
1761341803800889300,5.990889404296875,0.0002378285862505436,0.000837450847029686,0.00009229220449924469
1761341803810955300,6.000955322265625,-0.002312681172043085,0.001169547438621521,0.004377051722258329
1761341803821021400,6.011021484375,-0.0014686770737171173,0.0011954279616475105,-0.00616556266322732
1761341803831087000,6.021087158203125,0.0011492101475596428,0.0008830390870571136,-0.00052605289965868
1761341803841153000,6.031153076171875,0.0008813571184873581,-0.0011510495096445084,0.0004703742451965809
1761341803851220200,6.04122021484375,-0.0003516864962875843,-0.00008392147719860077,0.0010397587902843952
1761341803861286100,6.0512861328125,0.00040372228249907494,-0.0003203880041837692,0.00006555113941431046
1761341803871352300,6.061352294921875,-0.0015558316372334957,-0.0014077574014663696,0.0010218927636742592
1761341803881418200,6.071418212890625,0.0003150720149278641,0.00002089422196149826,-0.0015970044769346714
1761341803891485200,6.081485107421875,-0.0005073118954896927,-0.00008083879947662354,0.000018202699720859528
1761341803901551400,6.09155126953125,0.0008875415660440922,-0.0008223988115787506,0.00008964631706476212
1761341803911617300,6.1016171875,-0.0025740349665284157,-0.0009465012699365616,-0.00012420536950230598
1761341803921683200,6.11168310546875,0.00117548368871212,-0.0005622506141662598,0.0010872702114284039
1761341803931749000,6.1217490234375,0.000009285751730203629,0.0020013079047203064,0.00009684031829237938
1761341803941816000,6.131816162109375,0.0008557243272662163,-0.003269684500992298,0.0013485043309628963
1761341803951882200,6.14188232421875,0.0008970033377408981,0.0004840409383177757,0.0013668793253600597
1761341803961948200,6.1519482421875,-0.0005453582853078842,0.0006773704662919044,-0.0006378935649991035
1761341803972014000,6.16201416015625,-0.00011605676263570786,-0.0005495483055710793,-0.00026531750336289406
1761341803982081300,6.172081298828125,0.0015855222009122372,0.00033155549317598343,0.0013027484528720379
1761341803992147200,6.182147216796875,0.00004168739542365074,-0.0011957669630646706,0.0010726512409746647
1761341804002213000,6.192213134765625,-0.0014177369885146618,0.0003673182800412178,-0.0003371858038008213
1761341804012279300,6.202279296875,0.0005356920883059502,-0.000774911604821682,0.0014926721341907978
1761341804022346200,6.21234619140625,0.0012002564035356045,-0.0004669921472668648,0.0023937304504215717
1761341804032412400,6.222412353515625,-0.0007768743671476841,0.0019290540367364883,-0.0021035498939454556
1761341804042478000,6.23247802734375,0.0025681813713163137,-0.00013148784637451172,-0.0009011160582304001
1761341804052544000,6.2425439453125,0.0011604344472289085,0.000979050062596798,0.0006222114898264408
1761341804062610200,6.252610107421875,-0.00022021541371941566,0.0029913922771811485,-0.0013442873023450375
1761341804072677000,6.262677001953125,-0.0012106453068554401,-0.0026901960372924805,0.0026003867387771606
1761341804082743000,6.272742919921875,-0.0014089737087488174,0.0021744733676314354,0.002543285023421049
1761341804092809200,6.282809326171875,0.0032848478294909,-0.0002692434936761856,0.0007144915871322155
1761341804102875100,6.292875244140625,-0.0006587966345250607,-0.0013044597581028938,0.0018915003165602684
1761341804112942300,6.3029423828125,0.0023140902630984783,0.001913970336318016,0.0007077259942889214
1761341804123008300,6.31300830078125,-0.0007386384531855583,-0.0002921978011727333,-0.0024290652945637703
1761341804133074200,6.32307421875,-0.00039988430216908455,-0.00004026200622320175,-0.00037976307794451714
1761341804143140400,6.333140380859375,-0.0006810100749135017,0.0008345991373062134,-0.0010571768507361412
1761341804153206000,6.3432060546875,0.0009507089853286743,0.0003917152062058449,0.001272556371986866
1761341804163273200,6.353273193359375,-0.0019103698432445526,0.0012203315272927284,-0.00241358345374465
1761341804173339100,6.363339111328125,0.0009229676797986031,0.0011209957301616669,0.0003020423464477062
1761341804183405000,6.373405029296875,-0.00010459544137120247,0.0007808273658156395,-0.0008993735536932945
1761341804193471200,6.38347119140625,-0.0015938347205519676,-0.001002958044409752,0.002446355763822794
1761341804203538200,6.3935380859375,0.00006661424413323402,-0.0006501264870166779,-0.0005289227701723576
1761341804213604000,6.40360400390625,-0.0004377886652946472,-0.0016405563801527023,0.0021819090470671654
1761341804223670300,6.413670166015625,0.002064846456050873,-0.0009648799896240234,-0.0024200682528316975
1761341804233736200,6.423736083984375,0.0017189020290970802,0.00045964494347572327,-0.0012727784924209118
1761341804243802400,6.43380224609375,-0.0013975673355162144,0.0019189901649951935,0.00068311532959342
1761341804253869300,6.443869384765625,0.0004011313430964947,-0.000519665889441967,-0.000385344959795475
1761341804263935000,6.45393505859375,0.0027898726984858513,-0.0013120537623763084,-0.0009082541801035404
1761341804274001200,6.464001220703125,0.0013096877373754978,0.001385461539030075,0.0009285276755690575
1761341804284067000,6.474067138671875,0.001486398745328188,-0.0008778683841228485,-0.00246546883136034
1761341804294134000,6.484134033203125,0.0023484639823436737,0.0007674321532249451,-0.000352250412106514
1761341804304200200,6.4942001953125,0.0015582628548145294,0.0011245077475905418,-0.0035926392301917076
1761341804314266000,6.50426611328125,0.0015534693375229836,0.0005796253681182861,-0.00011348538100719452
1761341804324332300,6.514332275390625,-0.003112847451120615,0.0018482236191630363,-0.0018992340192198753
1761341804334398200,6.524398193359375,-0.0007346449419856071,0.0008330270648002625,-0.001965280156582594
1761341804344465200,6.534465087890625,0.0016289297491312027,0.00042268913239240646,-0.0011142902076244354
1761341804354531300,6.54453125,-0.0013945573009550571,0.0016496069729328156,0.00038107484579086304
1761341804364597000,6.554596923828125,0.001305914018303156,-0.00038073211908340454,0.0030730143189430237
1761341804374663200,6.5646630859375,0.0005690171383321285,0.00067121721804142,-0.00023782765492796898
1761341804384730000,6.574730224609375,0.0009222179651260376,-0.000007719732820987701,-0.000006400514394044876
1761341804394796000,6.584796142578125,0.0027542065363377333,0.004118581302464008,0.0005342215299606323
1761341804404862200,6.5948623046875,-0.00045956484973430634,0.00028466805815696716,-0.0010194964706897736
1761341804414928100,6.60492822265625,0.0005431151948869228,-0.0005419766530394554,0.00019836751744151115
1761341804424994300,6.614994384765625,-0.0005086557939648628,0.000703146681189537,0.000861885491758585
1761341804435061200,6.625061279296875,-0.0008854931220412254,-0.0026290006935596466,0.001989202108234167
1761341804445127200,6.635127197265625,-0.002254048828035593,0.0007767230272293091,-0.002396000549197197
1761341804455193300,6.645193359375,0.0014860942028462887,-0.00225848238915205,-0.00007638754323124886
1761341804465259300,6.65525927734375,-0.0001482805237174034,0.0005868151783943176,0.0018740617670118809
1761341804475326200,6.665326171875,0.0016498859040439129,-0.0020917924121022224,-0.00034195510670542717
1761341804485392100,6.67539208984375,0.0037296998780220747,0.001898936927318573,-0.0011208830401301384
1761341804495458000,6.6854580078125,0.0009110099636018276,-0.0006076302379369736,0.0023785107769072056
1761341804505524200,6.695524169921875,0.0006692730821669102,0.0011172546073794365,0.002301335334777832
1761341804515590100,6.705590087890625,0.0003020232543349266,0.0006469404324889183,-0.0021120556630194187
1761341804525657000,6.715656982421875,-0.0012605227530002594,0.0021554939448833466,-0.0012779138050973415
1761341804535723300,6.72572314453125,0.0006447029300034046,0.002645782195031643,-0.001695763785392046
1761341804545789200,6.7357890625,-0.001927793025970459,-0.00017871521413326263,-0.001088096760213375
1761341804555855400,6.74585546875,-0.0005022031255066395,-0.00016593188047409058,0.001504756510257721
1761341804565922300,6.75592236328125,0.0009452956728637218,-0.00044693704694509506,0.00018529873341321945
1761341804575988200,6.76598828125,0.0013226657174527645,0.00046146754175424576,-0.0008261697366833687
1761341804586054100,6.77605419921875,-0.00123287970200181,-0.0004255743697285652,0.0006831507198512554
1761341804596120000,6.7861201171875,-0.0023838975466787815,0.00037124287337064743,0.0002003195695579052
1761341804606187000,6.79618701171875,-0.00037249596789479256,0.0009362567216157913,-0.0002981708385050297
1761341804616253200,6.806253173828125,-0.0020220582373440266,-0.000497056171298027,0.0005471166223287582
1761341804626319000,6.816319091796875,-0.0014682305045425892,-0.00216582790017128,0.00019510695710778236
1761341804636385300,6.82638525390625,-0.0010562394745647907,0.0008962741121649742,-0.001239271368831396
1761341804646451200,6.836451171875,0.0026525480207055807,0.0009124670177698135,-0.0019801678135991096
1761341804656518100,6.84651806640625,-0.00007399637252092361,0.0022440487518906593,-0.0007947948761284351
1761341804666584300,6.856584228515625,0.00032842811197042465,0.00035004038363695145,-0.001028371974825859
1761341804676650200,6.866650146484375,0.0025550969876348972,-0.00022600125521421432,0.00007231254130601883
1761341804686716400,6.87671630859375,-0.000974360853433609,0.0010187318548560143,-0.00039158668369054794
1761341804696783400,6.886783447265625,0.0021287547424435616,0.0009620068594813347,0.0005716788582503796
1761341804706849000,6.89684912109375,-0.000007896218448877335,-0.0009019523859024048,-0.0005284477956593037
1761341804716915200,6.906915283203125,0.001191591378301382,0.0006586601957678795,0.000008445698767900467
1761341804726981600,6.916981689453125,0.0014582416042685509,0.00027837231755256653,-0.0028283619321882725
1761341804737047600,6.927047607421875,0.00013917777687311172,-0.0005442788824439049,-0.000018460676074028015
1761341804747114800,6.93711474609375,-0.0005242945626378059,0.000550171360373497,0.001537973526865244
1761341804757180700,6.9471806640625,-0.001088352408260107,-0.00030363816767930984,-0.0020069596357643604
1761341804767246600,6.95724658203125,0.00033208588138222694,-0.002593538723886013,0.000815520528703928
1761341804777312500,6.9673125,0.0022980314679443836,0.0015641888603568077,0.002071200404316187
1761341804787379500,6.97737939453125,0.0006608208641409874,0.0021745096892118454,0.00048113148659467697
1761341804797445600,6.987445556640625,0.00027466239407658577,0.0029284516349434853,0.0006220126524567604
1761341804807511600,6.997511474609375,0.0010799472220242023,0.002485509030520916,0.0024320892989635468
1761341804817577700,7.00757763671875,0.002355867763981223,0.0004726918414235115,-0.001584489829838276
1761341804827643600,7.0176435546875,-0.00344960018992424,-0.00021370500326156616,-0.0022218762896955013
1761341804837710600,7.027710693359375,0.001292690634727478,-0.0003567170351743698,0.0005898894742131233
1761341804847776800,7.03777685546875,0.00008657481521368027,-0.0010734600946307182,0.0013526096008718014
1761341804857842700,7.0478427734375,-0.0008631083182990551,-0.000517657957971096,0.0006247679702937603
1761341804867908400,7.057908447265625,0.0018232828006148338,0.001213299110531807,-0.0020776228047907352
1761341804877975600,7.0679755859375,-0.0006068521179258823,0.0017824163660407066,0.0010417378507554531
1761341804888041500,7.07804150390625,-0.0007057143375277519,0.00007938966155052185,0.0010263356380164623
1761341804898107600,7.088107666015625,0.00039869872853159904,-0.0014271605759859085,-0.0008732974529266357
1761341804908173600,7.098173583984375,-0.001024923287332058,0.0006228648126125336,-0.002757743466645479
1761341804918239500,7.108239501953125,-0.00034155650064349174,0.0012353919446468353,0.002902804873883724
1761341804928306700,7.118306640625,-0.0006572278216481209,-0.0009252335876226425,0.0018041855655610561
1761341804938372600,7.12837255859375,0.0009718276560306549,-0.0011585261672735214,0.002677702810615301
1761341804948438500,7.1384384765625,-0.0015219934284687042,-0.000601879321038723,-0.0016995547339320183
1761341804958504700,7.148504638671875,-0.00241308705881238,-0.0011701975017786026,-0.0022218008525669575
1761341804968571600,7.158571533203125,0.0016803387552499771,-0.0016182390972971916,0.0006800638511776924
1761341804978637600,7.168637451171875,0.00008217571303248405,0.00036315247416496277,0.000341576524078846
1761341804988703500,7.178703369140625,0.0026217172853648663,0.0018939962610602379,-0.00046666432172060013
1761341804998769400,7.188769287109375,-0.0008382615633308887,-0.0011055218055844307,-0.0017716134898364544
1761341805008835600,7.198835693359375,-0.0001659519039094448,0.0010225800797343254,-0.0013370318338274956
1761341805018902500,7.208902587890625,0.00014137662947177887,0.00032563041895627975,-0.002595908008515835
1761341805028968400,7.218968505859375,-0.0011514588259160519,-0.0008771615102887154,0.0005560452118515968
1761341805039034600,7.22903466796875,0.0008139540441334248,-0.00017302203923463821,-0.0025731688365340233
1761341805049100500,7.2391005859375,-0.0000015869736671447754,0.0011930661275982857,-0.0006136116571724415
1761341805059167700,7.249167724609375,0.0006301146931946278,0.0023097293451428413,0.0030607511289417744
1761341805069233700,7.259233642578125,0.0001827557571232319,-0.0003290371969342232,-0.001605031080543995
1761341805079299600,7.269299560546875,-0.0013592145405709743,0.0006560664623975754,0.000563847366720438
1761341805089365500,7.279365478515625,0.0005730492994189262,0.00011091213673353195,0.0010848985984921455
1761341805099431400,7.289431396484375,-0.0000770282931625843,-0.0010712649673223495,0.0014273812994360924
1761341805109498600,7.29949853515625,-0.00008594337850809097,-0.0003587258979678154,-0.00007275538519024849
1761341805119564500,7.309564453125,0.0013489676639437675,-0.0001560589298605919,0.0017387266270816326
1761341805129630500,7.31963037109375,0.0013734623789787292,0.001084829680621624,-0.0006125178188085556
1761341805139696600,7.329696533203125,0.0010797157883644104,0.00040812045335769653,0.002766234800219536
1761341805149763600,7.339763671875,0.0005555697716772556,-0.0020249392837285995,-0.00006974954158067703
1761341805159829500,7.34982958984375,-0.0008338014595210552,-0.001991916447877884,0.0010218797251582146
1761341805169895700,7.359895751953125,-0.00023013120517134666,-0.0004642186686396599,-0.0009285812266170979
1761341805179961600,7.369961669921875,-0.002508731558918953,0.00004657544195652008,-0.0021155523136258125
1761341805190027500,7.380027587890625,-0.0015654605813324451,-0.0010909149423241615,-0.0018269936554133892
1761341805200094500,7.390094482421875,-0.0011795684695243835,-0.0019817426800727844,-0.0018120799213647842
1761341805210160400,7.400160400390625,-0.001173446886241436,-0.001393251121044159,-0.00024762004613876343
1761341805220226600,7.4102265625,0.0016596238128840923,0.001964195631444454,0.000042664818465709686
1761341805230292500,7.42029248046875,-0.0014660079032182693,-0.00012971553951501846,-0.00014573149383068085
1761341805240359400,7.430359375,-0.0003687855787575245,0.0018069352954626083,0.0004862360656261444
1761341805250425600,7.440425537109375,0.0017090062610805035,0.0039037857204675674,-0.0008943532593548298
1761341805260491500,7.450491455078125,-0.0011232653632760048,-0.0020031053572893143,0.0012106089852750301
1761341805270557700,7.4605576171875,-0.001779821701347828,-0.0012676781043410301,-0.0006206231191754341
1761341805280623600,7.47062353515625,0.00021941354498267174,-0.0006229272112250328,-0.003821210004389286
1761341805290690600,7.480690673828125,-0.0006392570212483406,-0.0023496849462389946,0.0011424068361520767
1761341805300756700,7.4907568359375,0.002158659975975752,0.00023491214960813522,-0.00021740328520536423
1761341805310822400,7.500822509765625,-0.000515808816999197,0.0006777551025152206,0.0002862405963242054
1761341805320888600,7.510888671875,0.0005712937563657761,-0.0002136053517460823,-0.003557765856385231
1761341805330955500,7.52095556640625,0.000029085669666528702,-0.0010442724451422691,0.0008629742078483105
1761341805341021400,7.531021484375,0.0009204456582665443,0.00008730404078960419,0.00024059368297457695
1761341805351087600,7.541087646484375,0.0015887441113591194,-0.0023617343977093697,0.00014553731307387352
1761341805361153500,7.551153564453125,-0.002953810151666403,0.0007411139085888863,0.0022201393730938435
1761341805371219700,7.5612197265625,-0.002378001343458891,-0.00048325397074222565,-0.00019097933545708656
1761341805381286700,7.57128662109375,-0.0007910234853625298,0.001982034184038639,0.0010484564118087292
1761341805391352600,7.5813525390625,0.00006548967212438583,0.00046515464782714844,-0.00017918087542057037
1761341805401418800,7.591418701171875,0.001055652741342783,-0.0008238153532147408,-0.0020617693662643433
1761341805411484400,7.601484375,0.0002865893766283989,0.000035478733479976654,-0.002768164034932852
1761341805421550600,7.611550537109375,0.0001755356788635254,0.00028608180582523346,0.0010947510600090027
1761341805431617500,7.621617431640625,0.002196723595261574,-0.0006982823833823204,-0.0014063101261854172
1761341805441683500,7.631683349609375,0.00006939051672816277,-0.0018796613439917564,0.000023807398974895477
1761341805451749600,7.64174951171875,0.0011290200054645538,0.0003399122506380081,-0.005651852581650019
1761341805461815600,7.651815673828125,0.00021795229986310005,0.0006600236520171165,0.0006776819936931133
1761341805471882500,7.661882568359375,0.0024673088919371367,0.00021185167133808136,-0.0007640966214239597
1761341805481948700,7.67194873046875,0.0008510365150868893,0.0015333127230405807,0.0021371515467762947
1761341805492014600,7.6820146484375,0.0002586105838418007,0.0005121286958456039,0.0017718239687383175
1761341805502080800,7.692080810546875,0.00021972833201289177,0.0017419764772057533,0.0005939076654613018
1761341805512147700,7.702147705078125,0.0013451799750328064,-0.000280722975730896,0.00010425131767988205
1761341805522213400,7.71221337890625,-0.0013611246831715107,0.0005158288404345512,-0.0026262877508997917
1761341805532279600,7.722279541015625,0.00038646114990115166,0.001024029217660427,0.0013574594631791115
1761341805542345500,7.732345458984375,0.0016852845437824726,-0.00048225466161966324,-0.0017272797413170338
1761341805552411600,7.74241162109375,-0.0007303338497877121,0.0005969060584902763,-0.001671548467129469
1761341805562478600,7.752478515625,0.0002094954252243042,0.0012709517031908035,0.0013151862658560276
1761341805572544500,7.76254443359375,0.0005498672835528851,0.0027747005224227905,0.0018032379448413849
1761341805582610700,7.772610595703125,-0.0011945031583309174,0.000026584602892398834,0.0021816734224557877
1761341805592676600,7.782676513671875,-0.0008461535908281803,0.0002709804102778435,0.0003833523951470852
1761341805602743600,7.79274365234375,0.00039567844942212105,0.001422264613211155,-0.0012371810153126717
1761341805612809700,7.802809814453125,0.00027562491595745087,-0.0007195137441158295,0.00023559154942631721
1761341805622875600,7.812875732421875,-0.0006423667073249817,0.00009088683873414993,0.0005581001751124859
1761341805632941600,7.822941650390625,-0.0005591874942183495,-0.000923442654311657,0.0004057525657117367
1761341805643007500,7.833007568359375,0.002440597163513303,-0.001411067321896553,-0.0006959973834455013
1761341805653074400,7.843074462890625,-0.0003173770383000374,0.00259348563849926,-0.00018489453941583633
1761341805663140600,7.853140625,0.0011729276739060879,-0.002364787273108959,-0.001567075029015541
1761341805673206500,7.86320654296875,0.0003445511683821678,0.0004080524668097496,0.001087031327188015
1761341805683272700,7.873272705078125,-0.00043016253039240837,0.0006195073947310448,0.0009999461472034454
1761341805693338600,7.883338623046875,0.0004285397008061409,0.0005135070532560349,-0.0003622774966061115
1761341805703405600,7.893405517578125,-0.0017158379778265953,0.0006985971704125404,-0.0006789276376366615
1761341805713471700,7.9034716796875,0.0008863704279065132,-0.0007531614974141121,0.00013617798686027527
1761341805723537700,7.91353759765625,-0.002342446241527796,0.0005392702296376228,0.0027953442186117172
1761341805733603800,7.923603759765625,-0.0009608506225049496,-0.0009382171556353569,0.0007703779265284538
1761341805743671000,7.933671142578125,-0.0007027899846434593,-0.0016527436673641205,-0.000402744859457016
1761341805753737000,7.943737060546875,0.0018413634970784187,0.0009149536490440369,-0.0024119694717228413
1761341805763803000,7.953802978515625,-0.0023139663971960545,-0.0016736388206481934,0.00007648859173059464
1761341805773869000,7.963869140625,0.00027634715661406517,-0.0027975887060165405,-0.0015976219438016415
1761341805783936000,7.97393603515625,0.0009977975860238075,0.00005598925054073334,-0.000009845476597547531
1761341805794002200,7.984002197265625,-0.0011924034915864468,-0.0010571740567684174,-0.0014589838683605194
1761341805804067800,7.99406787109375,0.0012068385258316994,-0.00008911453187465668,-0.0008472558110952377
1761341805814133800,8.0041337890625,0.0015181740745902061,0.0008289879187941551,-0.00006773928180336952
1761341805824200000,8.014199951171875,0.0012585162185132504,0.002350185066461563,-0.00015802029520273209
1761341805834265900,8.024265869140624,-0.0008294209837913513,0.005612639710307121,-0.0006667729467153549
1761341805844332000,8.03433203125,-0.003670747857540846,-0.00197790190577507,-0.0010143155232071877
1761341805854399000,8.04439892578125,0.001154647208750248,0.000639219768345356,0.00022789975628256798
1761341805864465000,8.05446484375,0.00042946822941303253,-0.002372283488512039,0.0003938148729503155
1761341805874531000,8.064531005859376,0.0019526449032127857,-0.0009736102074384689,-0.0009442814625799656
1761341805884597000,8.074596923828125,0.0007270583882927895,0.0004892637953162193,-0.0001663719303905964
1761341805894663000,8.084662841796876,-0.0011261878535151482,-0.0010797232389450073,0.00035387929528951645
1761341805904729900,8.094729736328125,0.00045759417116642,-0.0013236692175269127,0.0019403239712119102
1761341805914795800,8.104795654296876,0.000708763487637043,0.001083308830857277,0.0009775073267519474
1761341805924862000,8.114862060546875,-0.00018339557573199272,0.0007618656381964684,-0.00027764076367020607
1761341805934928000,8.124927978515625,-0.0020661423914134502,-0.0004849592223763466,-0.0007738862186670303
1761341805944994000,8.134994140625,-0.0003185761161148548,-0.0005872249603271484,0.0020594503730535507
1761341805955061000,8.14506103515625,0.0003173649311065674,0.000428895466029644,0.0002905861474573612
1761341805965127000,8.155126953125,-0.0005092802457511425,-0.0011615445837378502,-0.00031102215871214867
1761341805975193000,8.165193115234375,-0.00003232620656490326,-0.0029459381476044655,0.0016424357891082764
1761341805985259000,8.175259033203124,0.00006514554843306541,0.0013659866526722908,-0.002659368794411421
1761341805995326000,8.185325927734375,-0.0006107203662395477,-0.001082858070731163,-0.001281780656427145
1761341806005392000,8.195391845703124,-0.0007156487554311752,0.0006697680801153183,-0.0004415535368025303
1761341806015457800,8.205457763671875,0.0002614166587591171,-0.0007044998928904533,0.0006569535471498966
1761341806025524000,8.21552392578125,0.0004161461256444454,-0.0012730853632092476,0.0008055581711232662
1761341806035590000,8.22558984375,-0.0006339428946375847,-0.0018948642536997795,0.0006588906981050968
1761341806045656800,8.23565673828125,-0.00008080434054136276,-0.00005968008190393448,0.00015502097085118294
1761341806055723000,8.245722900390625,0.00038953404873609543,0.00047199521213769913,-0.0015121069736778736
1761341806065789000,8.255788818359376,0.000002576969563961029,0.00035934336483478546,0.00029511377215385437
1761341806075855000,8.265855224609375,0.001940474845468998,0.0019331248477101326,0.0010536503978073597
1761341806085922000,8.275922119140626,0.00045895855873823166,0.0004454832524061203,-0.0023024650290608406
1761341806095988000,8.285988037109375,-0.0016435766592621803,-0.0016530584543943405,0.0004562842659652233
1761341806106054100,8.29605419921875,0.002496839966624975,-0.0005539720878005028,-0.0007951352745294571
1761341806116119800,8.306119873046875,0.0008120243437588215,-0.0006082924082875252,-0.0012175217270851135
1761341806126186000,8.31618603515625,0.0012202868238091469,-0.0010533062741160393,-0.0013831700198352337
1761341806136253000,8.3262529296875,-0.0023680580779910088,0.0005559613928198814,0.003445317968726158
1761341806146318800,8.33631884765625,0.0012852665968239307,-0.0010374076664447784,0.0023504924029111862
1761341806156385000,8.346385009765624,0.0007012258283793926,-0.00006096716970205307,-0.001501522958278656
1761341806166451000,8.356450927734375,0.0010359850712120533,-0.001083088107407093,-0.00018352456390857697
1761341806176518000,8.366517822265624,-0.0011539771221578121,-0.002582238055765629,0.0015758625231683254
1761341806186584000,8.376583984375,-0.0011063064448535442,-0.0002495748922228813,-0.000700607430189848
1761341806196650000,8.38664990234375,0.0018539573065936565,0.0006629470735788345,0.001217953860759735
1761341806206716200,8.396716064453125,-0.000393484253436327,-0.000063297338783741,0.0008698785677552223
1761341806216781800,8.40678173828125,-0.0008884966373443604,-0.0012845862656831741,-0.0011192266829311848
1761341806226848800,8.416848876953125,-0.003296260256320238,-0.0017184149473905563,0.002395080402493477
1761341806236915000,8.4269150390625,0.0021488466300070286,-0.0003599850460886955,-0.003931242972612381
1761341806246980900,8.43698095703125,0.0012044897302985191,-0.000513649545609951,-0.001976482570171356
1761341806257047000,8.447047119140626,-0.00016856472939252853,-0.001737295649945736,-0.0017528017051517963
1761341806267114000,8.457114013671875,0.0016285362653434277,-0.0020970888435840607,0.001300245989114046
1761341806277180000,8.467179931640626,0.000037167221307754517,-0.001276870258152485,-0.0012921961024403572
1761341806287246000,8.47724609375,0.0008177398703992367,-0.001499776728451252,0.0010537821799516678
1761341806297312000,8.48731201171875,0.00018052523955702782,0.0007779775187373161,0.00037631765007972717
1761341806307378200,8.497378173828125,-0.00225813128054142,0.0007766466587781906,0.000773129053413868
1761341806317445000,8.507445068359376,-0.00023989984765648842,-0.0018534567207098007,-0.0008450238965451717
1761341806327510800,8.5175107421875,0.00023946911096572876,0.00042833946645259857,-0.002729476895183325
1761341806337577000,8.527576904296875,0.0002777939662337303,-0.002183389849960804,-0.0024336250498890877
1761341806347643000,8.537642822265624,-0.00032035214826464653,-0.001032371073961258,-0.0021577216684818268
1761341806357709800,8.547709716796875,0.0020512910559773445,-0.0017749685794115067,-0.0022428971715271473
1761341806367776000,8.55777587890625,0.0015684599056839943,-0.0011254241690039635,-0.0008436720818281174
1761341806377842000,8.567842041015625,0.00015629967674613,-0.000022782012820243835,0.0017852932214736938
1761341806387908000,8.577908203125,0.0001664198935031891,-0.0030563892796635628,-0.0025069238618016243
1761341806397974000,8.58797412109375,-0.001352671068161726,0.007674508728086948,0.0020584408193826675
1761341806408041000,8.598041015625,-0.00038301432505249977,0.005361021496355534,0.002356181852519512
1761341806418107100,8.608107177734375,0.0009007132612168789,0.002906990237534046,-0.0006251414306461811
1761341806428173000,8.618173095703124,-0.000409561675041914,-0.0019615348428487778,-0.0006283372640609741
1761341806438239000,8.628239013671875,0.0008362582884728909,-0.0027090059593319893,0.000019537750631570816
1761341806448306000,8.638305908203124,0.0013079037889838219,-0.003813951276242733,-0.0012579807080328465
1761341806458371800,8.648371826171875,0.0003677280619740486,-0.006824818439781666,0.00015847012400627136
1761341806468438000,8.65843798828125,-0.001307666301727295,0.0010938243940472603,-0.0008514001965522766
1761341806478504000,8.66850390625,0.0008168239146471024,0.003843965008854866,-0.0005876491777598858
